"subject","rt","button_pressed_vector_c","trial_answer","score","trial_length","stimulus","serial_order"
4983,"6001.214999938384","mi","mi",1,2,"^3_v4+",1
4983,"3012.940000044182","fi","fi",1,2,"^3_v4+",2
4983,"1512.4099999666214","mi","mi",1,2,"v3_v2",1
4983,"1283.8449999690056","re","re",1,2,"v3_v2",2
4983,"2200.4650000017136","sol","sol",1,2,"^5_^1+",1
4983,"10894.464999902993","ra","ra",1,2,"^5_^1+",2
4983,"3744.5000000298023","mi","mi",1,2,"3_^6",1
4983,"5444.1700000315905","la","la",1,2,"3_^6",2
4983,"851.869999896735","re","re",1,2,"v2_v1",1
4983,"799.7000000905246","do","do",1,2,"v2_v1",2
4983,"1702.690000180155","ti","ti",1,2,"v7_v3",1
4983,"2584.210000000894","mi","mi",1,2,"v7_v3",2
4983,"1294.2349999211729","sol","sol",1,2,"v5_v1+",1
4983,"3494.169999845326","ra","ra",1,2,"v5_v1+",2
4983,"2380.2900000009686","re","re",1,2,"^2_v7-",1
4983,"3008.2600000314415","te","te",1,2,"^2_v7-",2
4983,"2345.8499999251217","fa","fa",1,2,"v4_v3",1
4983,"1464.339999947697","mi","mi",1,2,"v4_v3",2
4983,"2807.0500001776963","do","do",1,2,"^1_^2+",1
4983,"1324.6300001628697","me","me",1,2,"^1_^2+",2
4983,"1746.8550000339746","do","do",1,3,"^1_v6_v5+",1
4983,"2999.0149999503046","la","la",1,3,"^1_v6_v5+",2
4983,"1945.395000046119","le","le",1,3,"^1_v6_v5+",3
4983,"1322.8449998423457","do","do",1,3,"v1_v7-_^7",1
4983,"1552.3349998984486","te","te",1,3,"v1_v7-_^7",2
4983,"927.3899998515844","ti","ti",1,3,"v1_v7-_^7",3
4983,"1450.955000007525","do","do",1,3,"1_v1+_^2",1
4983,"1940.7899999059737","ra","ra",1,3,"1_v1+_^2",2
4983,"778.1700000632554","re","re",1,3,"1_v1+_^2",3
4983,"2221.390000078827","re","re",1,3,"v2_v5_^3",1
4983,"5200.470000039786","sol","sol",1,3,"v2_v5_^3",2
4983,"1353.459999896586","mi","mi",1,3,"v2_v5_^3",3
4983,"2007.3949999641627","la","la",1,3,"6_^1_v5",1
4983,"1710.9499999787658","do","do",1,3,"6_^1_v5",2
4983,"1641.8399999383837","sol","sol",1,3,"6_^1_v5",3
4983,"854.6599999535829","do","do",1,3,"v1_v7-_7-",1
4983,"2019.7349998634309","te","te",1,3,"v1_v7-_7-",2
4983,"554.8500001896173","te","te",1,3,"v1_v7-_7-",3
4983,"892.0250001829118","sol","sol",1,3,"v5_v4_v3",1
4983,"713.8900000136346","fa","fa",1,3,"v5_v4_v3",2
4983,"1246.7649998143315","mi","mi",1,3,"v5_v4_v3",3
4983,"983.6999999824911","fa","fa",1,3,"v4_v3_v2",1
4983,"892.8100001066923","mi","mi",1,3,"v4_v3_v2",2
4983,"1433.9449999388307","re","re",1,3,"v4_v3_v2",3
4983,"1237.0349999982864","mi","mi",1,3,"v3_v2_v1",1
4983,"666.620000032708","re","re",1,3,"v3_v2_v1",2
4983,"611.670000012964","do","do",1,3,"v3_v2_v1",3
4983,"3599.72000005655","la","la",1,5,"^6_v5_v4_v3_v2",1
4983,"751.6199999954551","sol","sol",1,5,"^6_v5_v4_v3_v2",2
4983,"918.5800000559539","fa","fa",1,5,"^6_v5_v4_v3_v2",3
4983,"2090.0799999944866","mi","mi",1,5,"^6_v5_v4_v3_v2",4
4983,"895.9449999965727","re","re",1,5,"^6_v5_v4_v3_v2",5
4983,"986.5749999880791","sol","sol",1,5,"v5_v4_v3_v2_v1 ",1
4983,"681.3799999654293","fa","fa",1,5,"v5_v4_v3_v2_v1 ",2
4983,"838.4250001981854","mi","mi",1,5,"v5_v4_v3_v2_v1 ",3
4983,"599.495000205934","re","re",1,5,"v5_v4_v3_v2_v1 ",4
4983,"540.3950000181794","do","1 ",0,5,"v5_v4_v3_v2_v1 ",5
4983,"3090.095000108704","re","re",1,5,"v2_2_^3_^4_v2",1
4983,"1052.65500000678","re","re",1,5,"v2_2_^3_^4_v2",2
4983,"900.2450001426041","mi","mi",1,5,"v2_2_^3_^4_v2",3
4983,"603.8800000678748","fa","fa",1,5,"v2_2_^3_^4_v2",4
4983,"698.1999999843538","re","re",1,5,"v2_2_^3_^4_v2",5
4983,"1209.440000122413","fi","fi",1,5,"v5-_v3_3_^4+_v3",1
4983,"1228.1750000547618","mi","mi",1,5,"v5-_v3_3_^4+_v3",2
4983,"632.3549998924136","mi","mi",1,5,"v5-_v3_3_^4+_v3",3
4983,"870.1949999667704","fi","fi",1,5,"v5-_v3_3_^4+_v3",4
4983,"720.0599999632686","mi","mi",1,5,"v5-_v3_3_^4+_v3",5
4983,"834.3750000931323","sol","sol",1,5,"v5_^6+_^7_^1_5",1
4983,"760.7500001322478","la","te",0,5,"v5_^6+_^7_^1_5",2
4983,"789.5649999845773","ti","ti",1,5,"v5_^6+_^7_^1_5",3
4983,"596.129999961704","do","do",1,5,"v5_^6+_^7_^1_5",4
4983,"682.2800000663847","sol","sol",1,5,"v5_^6+_^7_^1_5",5
4983,"1135.2550000883639","la","la",1,5,"^6_v4_v3_^4_^5",1
4983,"1145.869999891147","fa","fa",1,5,"^6_v4_v3_^4_^5",2
4983,"679.7350000124425","mi","mi",1,5,"^6_v4_v3_^4_^5",3
4983,"524.3799998424947","fa","fa",1,5,"^6_v4_v3_^4_^5",4
4983,"1536.0899998340756","sol","sol",1,5,"^6_v4_v3_^4_^5",5
4983,"1321.0400000680238","sol","sol",1,5,"v5_v4_v3_v2_v1",1
4983,"642.0449998695403","fa","fa",1,5,"v5_v4_v3_v2_v1",2
4983,"1102.320000063628","mi","mi",1,5,"v5_v4_v3_v2_v1",3
4983,"636.1899999901652","re","re",1,5,"v5_v4_v3_v2_v1",4
4983,"615.9699999261647","do","do",1,5,"v5_v4_v3_v2_v1",5
4983,"1217.9800001904368","sol","sol",1,5,"^5_^6_v5_v4_v3",1
4983,"810.2700000163168","la","la",1,5,"^5_^6_v5_v4_v3",2
4983,"639.9600000586361","sol","sol",1,5,"^5_^6_v5_v4_v3",3
4983,"620.5250001512468","fa","fa",1,5,"^5_^6_v5_v4_v3",4
4983,"534.3899999279529","mi","mi",1,5,"^5_^6_v5_v4_v3",5
4983,"1494.0150000620633","do","do",1,7,"^1_v7_v6_v5_v4_v3_v2",1
4983,"950.294999871403","ti","ti",1,7,"^1_v7_v6_v5_v4_v3_v2",2
4983,"698.2050000224262","la","la",1,7,"^1_v7_v6_v5_v4_v3_v2",3
4983,"980.0200001336634","sol","sol",1,7,"^1_v7_v6_v5_v4_v3_v2",4
4983,"668.3949998114258","fa","fa",1,7,"^1_v7_v6_v5_v4_v3_v2",5
4983,"523.9850000943989","mi","mi",1,7,"^1_v7_v6_v5_v4_v3_v2",6
4983,"782.3149999603629","re","re",1,7,"^1_v7_v6_v5_v4_v3_v2",7
4983,"1014.1050000675023","do","do",1,7,"1_^3_v1_^5_v3_v2_^3",1
4983,"1238.2950000464916","mi","mi",1,7,"1_^3_v1_^5_v3_v2_^3",2
4983,"822.9700000956655","do","do",1,7,"1_^3_v1_^5_v3_v2_^3",3
4983,"1170.6250000279397","sol","sol",1,7,"1_^3_v1_^5_v3_v2_^3",4
4983,"1527.5099999271333","mi","mi",1,7,"1_^3_v1_^5_v3_v2_^3",5
4983,"625.8449999149889","re","re",1,7,"1_^3_v1_^5_v3_v2_^3",6
4983,"538.3649999275804","mi","mi",1,7,"1_^3_v1_^5_v3_v2_^3",7
4983,"5485.325000016019","fa","fa",1,7,"^4_v6-_v5-_^6-_^4_v2-_2-",1
4983,"5776.120000053197","le","le",1,7,"^4_v6-_v5-_^6-_^4_v2-_2-",2
4983,"1378.5300001036376","fi","fi",1,7,"^4_v6-_v5-_^6-_^4_v2-_2-",3
4983,"1163.8449998572469","le","le",1,7,"^4_v6-_v5-_^6-_^4_v2-_2-",4
4983,"1462.2250001411885","fa","fa",1,7,"^4_v6-_v5-_^6-_^4_v2-_2-",5
4983,"12604.945000028238","ra","ra",1,7,"^4_v6-_v5-_^6-_^4_v2-_2-",6
4983,"507.6099999714643","ra","ra",1,7,"^4_v6-_v5-_^6-_^4_v2-_2-",7
4983,"3008.864999981597","la","la",1,7,"^6_v5+_v4_^5+_v3_v1_v7-",1
4983,"4923.524999991059","le","le",1,7,"^6_v5+_v4_^5+_v3_v1_v7-",2
4983,"2203.0249999370426","fa","fa",1,7,"^6_v5+_v4_^5+_v3_v1_v7-",3
4983,"2756.515000015497","le","le",1,7,"^6_v5+_v4_^5+_v3_v1_v7-",4
4983,"2272.794999880716","mi","mi",1,7,"^6_v5+_v4_^5+_v3_v1_v7-",5
4983,"610.0950001273304","do","do",1,7,"^6_v5+_v4_^5+_v3_v1_v7-",6
4983,"312.7349999267608","do","te",0,7,"^6_v5+_v4_^5+_v3_v1_v7-",7
4983,"1578.5150001756847","do","do",1,7,"v1_^2_v1_v7_^1_^3_v2",1
4983,"879.9950000829995","re","re",1,7,"v1_^2_v1_v7_^1_^3_v2",2
4983,"727.6299998629838","do","do",1,7,"v1_^2_v1_v7_^1_^3_v2",3
4983,"1308.309999993071","ti","ti",1,7,"v1_^2_v1_v7_^1_^3_v2",4
4983,"1058.0400000326335","do","do",1,7,"v1_^2_v1_v7_^1_^3_v2",5
4983,"1569.8400000110269","mi","mi",1,7,"v1_^2_v1_v7_^1_^3_v2",6
4983,"586.5199998952448","re","re",1,7,"v1_^2_v1_v7_^1_^3_v2",7
4983,"1446.5599998366088","fa","fa",1,7,"^4_^5_^6_v5_v4_v3_v2",1
4983,"881.3000000081956","sol","sol",1,7,"^4_^5_^6_v5_v4_v3_v2",2
4983,"790.2550001163036","la","la",1,7,"^4_^5_^6_v5_v4_v3_v2",3
4983,"671.9249999150634","sol","sol",1,7,"^4_^5_^6_v5_v4_v3_v2",4
4983,"674.3299998342991","fa","fa",1,7,"^4_^5_^6_v5_v4_v3_v2",5
4983,"844.9750000145286","mi","mi",1,7,"^4_^5_^6_v5_v4_v3_v2",6
4983,"633.8799998629838","re","re",1,7,"^4_^5_^6_v5_v4_v3_v2",7
4983,"1149.860000004992","sol","sol",1,7,"^5_^6_v5_v4_v3_v2_v1",1
4983,"665.8600000664592","la","la",1,7,"^5_^6_v5_v4_v3_v2_v1",2
4983,"682.814999949187","sol","sol",1,7,"^5_^6_v5_v4_v3_v2_v1",3
4983,"599.8499998822808","fa","fa",1,7,"^5_^6_v5_v4_v3_v2_v1",4
4983,"632.4199999216944","mi","mi",1,7,"^5_^6_v5_v4_v3_v2_v1",5
4983,"539.7799999918789","re","re",1,7,"^5_^6_v5_v4_v3_v2_v1",6
4983,"484.3199998140335","do","do",1,7,"^5_^6_v5_v4_v3_v2_v1",7
4983,"3409.6349999308586","sol","sol",1,9,"^5_^6_v5_v4_v3_v2_v1_^2_^3",1
4983,"617.9700000211596","la","la",1,9,"^5_^6_v5_v4_v3_v2_v1_^2_^3",2
4983,"572.2300000488758","sol","sol",1,9,"^5_^6_v5_v4_v3_v2_v1_^2_^3",3
4983,"619.7699999902397","fa","fa",1,9,"^5_^6_v5_v4_v3_v2_v1_^2_^3",4
4983,"616.6049998719245","mi","mi",1,9,"^5_^6_v5_v4_v3_v2_v1_^2_^3",5
4983,"760.3549999184906","re","re",1,9,"^5_^6_v5_v4_v3_v2_v1_^2_^3",6
4983,"650.4649999551475","do","do",1,9,"^5_^6_v5_v4_v3_v2_v1_^2_^3",7
4983,"546.9949999824166","re","re",1,9,"^5_^6_v5_v4_v3_v2_v1_^2_^3",8
4983,"508.0049999523908","mi","mi",1,9,"^5_^6_v5_v4_v3_v2_v1_^2_^3",9
4983,"8895.625000121072","ti","ti",1,9,"v7_v6_v5_^6_v5_v4_^5_^6_v5",1
4983,"669.7200001217425","la","la",1,9,"v7_v6_v5_^6_v5_v4_^5_^6_v5",2
4983,"962.474999949336","sol","sol",1,9,"v7_v6_v5_^6_v5_v4_^5_^6_v5",3
4983,"1626.3099999632686","fa","la",0,9,"v7_v6_v5_^6_v5_v4_^5_^6_v5",4
4983,"842.7949999459088","sol","sol",1,9,"v7_v6_v5_^6_v5_v4_^5_^6_v5",5
4983,"828.5399999003857","la","fa",0,9,"v7_v6_v5_^6_v5_v4_^5_^6_v5",6
4983,"596.4049999602139","sol","sol",1,9,"v7_v6_v5_^6_v5_v4_^5_^6_v5",7
4983,"527.8300000354648","fa","la",0,9,"v7_v6_v5_^6_v5_v4_^5_^6_v5",8
4983,"523.1449999846518","sol","sol",1,9,"v7_v6_v5_^6_v5_v4_^5_^6_v5",9
4983,"2530.964999925345","re","re",1,9,"^2_^3_^4_^5_^6_v5_v4_v3_v2",1
4983,"2204.484999878332","mi","mi",1,9,"^2_^3_^4_^5_^6_v5_v4_v3_v2",2
4983,"1090.3950000647455","fa","fa",1,9,"^2_^3_^4_^5_^6_v5_v4_v3_v2",3
4983,"772.154999896884","sol","sol",1,9,"^2_^3_^4_^5_^6_v5_v4_v3_v2",4
4983,"706.3750000670552","la","la",1,9,"^2_^3_^4_^5_^6_v5_v4_v3_v2",5
4983,"648.1350001413375","sol","sol",1,9,"^2_^3_^4_^5_^6_v5_v4_v3_v2",6
4983,"656.6599998623133","fa","fa",1,9,"^2_^3_^4_^5_^6_v5_v4_v3_v2",7
4983,"523.5599998850375","mi","mi",1,9,"^2_^3_^4_^5_^6_v5_v4_v3_v2",8
4983,"1474.3649999145418","re","re",1,9,"^2_^3_^4_^5_^6_v5_v4_v3_v2",9
4983,"1832.2250000201166","mi","mi",1,9,"^3_^4_v2_v7_^1_^2_^3_3_^4",1
4983,"1525.8850001264364","fa","fa",1,9,"^3_^4_v2_v7_^1_^2_^3_3_^4",2
4983,"1617.7099999040365","re","re",1,9,"^3_^4_v2_v7_^1_^2_^3_3_^4",3
4983,"1108.5149999707937","ti","ti",1,9,"^3_^4_v2_v7_^1_^2_^3_3_^4",4
4983,"6941.529999952763","do","do",1,9,"^3_^4_v2_v7_^1_^2_^3_3_^4",5
4983,"1241.4750000461936","re","re",1,9,"^3_^4_v2_v7_^1_^2_^3_3_^4",6
4983,"928.3650000579655","mi","mi",1,9,"^3_^4_v2_v7_^1_^2_^3_3_^4",7
4983,"881.9099999964237","mi","mi",1,9,"^3_^4_v2_v7_^1_^2_^3_3_^4",8
4983,"592.3550000879914","fa","fa",1,9,"^3_^4_v2_v7_^1_^2_^3_3_^4",9
4983,"1624.7499999590218","re","re",1,9,"^2_^4_v3_v2_v1_v3_v2+_^3_^5+",1
4983,"944.7500000242144","fa","fa",1,9,"^2_^4_v3_v2_v1_v3_v2+_^3_^5+",2
4983,"2020.394999999553","mi","mi",1,9,"^2_^4_v3_v2_v1_v3_v2+_^3_^5+",3
4983,"1094.8699999134988","re","re",1,9,"^2_^4_v3_v2_v1_v3_v2+_^3_^5+",4
4983,"11697.565000038594","ra","do",0,9,"^2_^4_v3_v2_v1_v3_v2+_^3_^5+",5
4983,"1576.4850000850856","mi","mi",1,9,"^2_^4_v3_v2_v1_v3_v2+_^3_^5+",6
4983,"475.9100000374019","me","me",1,9,"^2_^4_v3_v2_v1_v3_v2+_^3_^5+",7
4983,"546.0550000425428","mi","mi",1,9,"^2_^4_v3_v2_v1_v3_v2+_^3_^5+",8
4983,"2110.374999931082","le","le",1,9,"^2_^4_v3_v2_v1_v3_v2+_^3_^5+",9
4983,"3391.3499999325722","sol","sol",1,9,"v5_v4_v6+_^7_^3+_v3_v2_v5_^4",1
4983,"687.8450000658631","fa","fa",1,9,"v5_v4_v6+_^7_^3+_v3_v2_v5_^4",2
4983,"2528.64500018768","la","te",0,9,"v5_v4_v6+_^7_^3+_v3_v2_v5_^4",3
4983,"834.3499999027699","ti","ti",1,9,"v5_v4_v6+_^7_^3+_v3_v2_v5_^4",4
4983,"1988.5700000450015","mi","3+",0,9,"v5_v4_v6+_^7_^3+_v3_v2_v5_^4",5
4983,"1634.2949999962002","re","mi",0,9,"v5_v4_v6+_^7_^3+_v3_v2_v5_^4",6
4983,"1510.285000083968","sol","re",0,9,"v5_v4_v6+_^7_^3+_v3_v2_v5_^4",7
4983,"2588.444999884814","la","sol",0,9,"v5_v4_v6+_^7_^3+_v3_v2_v5_^4",8
4983,"2856.7150000017136","mi","fa",0,9,"v5_v4_v6+_^7_^3+_v3_v2_v5_^4",9
4983,"1187.364999903366","mi","mi",1,9,"^3_^4_^5 _^6_v5_v4_v3_v2_v1",1
4983,"737.3849998693913","fa","fa",1,9,"^3_^4_^5 _^6_v5_v4_v3_v2_v1",2
4983,"726.5399999450892","sol","5 ",0,9,"^3_^4_^5 _^6_v5_v4_v3_v2_v1",3
4983,"1007.9499999992549","la","la",1,9,"^3_^4_^5 _^6_v5_v4_v3_v2_v1",4
4983,"564.5250000525266","sol","sol",1,9,"^3_^4_^5 _^6_v5_v4_v3_v2_v1",5
4983,"718.7200000043958","fa","fa",1,9,"^3_^4_^5 _^6_v5_v4_v3_v2_v1",6
4983,"639.3799998331815","mi","mi",1,9,"^3_^4_^5 _^6_v5_v4_v3_v2_v1",7
4983,"532.6650000642985","re","re",1,9,"^3_^4_^5 _^6_v5_v4_v3_v2_v1",8
4983,"563.740000128746","do","do",1,9,"^3_^4_^5 _^6_v5_v4_v3_v2_v1",9
