"view_history","rt","trial_type","trial_index","time_elapsed","internal_node_id","subject","responses","stimulus","button_pressed","key_press","response_sequence","melody"
"[{""page_index"":0,""viewing_time"":3065},{""page_index"":1,""viewing_time"":98788},{""page_index"":2,""viewing_time"":2311}]","104166","instructions","0","104172","0.0-0.0","13465","","","","","",""
"","2466","survey-text","1","106644","0.0-1.0","13465","{""Q0"":""20""}","","","","",""
"","5746","survey-text","2","112391","0.0-2.0","13465","{""Q0"":""Bachelor's""}","","","","",""
"","4383","survey-text","3","116776","0.0-3.0","13465","{""Q0"":""Fixed-Do""}","","","","",""
"","5056","survey-text","4","121834","0.0-4.0","13465","{""Q0"":""Yes""}","","","","",""
"","12238","survey-text","5","134073","0.0-5.0","13465","{""Q0"":""0""}","","","","",""
"","7637","survey-text","6","141713","0.0-6.0","13465","{""Q0"":""0""}","","","","",""
"[{""page_index"":0,""viewing_time"":7358},{""page_index"":1,""viewing_time"":12955},{""page_index"":2,""viewing_time"":1601}]","21915","instructions","7","163629","0.0-7.0","13465","","","","","",""
"","10249","audio-button-response","8","173887","0.0-8.0","13465","","stimuli/long/c-do.mp3","0","","",""
"","18580","audio-button-response","9","192473","0.0-9.0","13465","","stimuli/long/a-le.mp3","8","","",""
"[{""page_index"":0,""viewing_time"":17933},{""page_index"":1,""viewing_time"":17508}]","35442","instructions","10","227918","0.0-10.0","13465","","","","","",""
"","12860","audio-button-response","11","240784","0.0-11.0-0.0","13465","","stimuli/long/e-la.mp3","8","","",""
"","7761","audio-button-response","12","248550","0.0-11.0-0.1","13465","","stimuli/long/e-sol.mp3","10","","",""
"","8954","audio-button-response","13","257509","0.0-11.0-0.2","13465","","stimuli/long/a-ti.mp3","11","","",""
"","7794","audio-button-response","14","265306","0.0-11.0-0.3","13465","","stimuli/long/a-sol.mp3","7","","",""
"","8199","audio-button-response","15","273510","0.0-11.0-0.4","13465","","stimuli/long/a-do.mp3","0","","",""
"","8943","audio-button-response","16","282458","0.0-11.0-0.5","13465","","stimuli/long/c-re.mp3","2","","",""
"","9165","audio-button-response","17","291627","0.0-11.0-0.6","13465","","stimuli/long/a-re.mp3","10","","",""
"","8040","audio-button-response","18","299670","0.0-11.0-0.7","13465","","stimuli/long/e-te.mp3","11","","",""
"","8300","audio-button-response","19","307973","0.0-11.0-0.8","13465","","stimuli/long/c-ti.mp3","11","","",""
"","7492","audio-button-response","20","315469","0.0-11.0-0.9","13465","","stimuli/long/c-do.mp3","0","","",""
"","8278","audio-button-response","21","323751","0.0-11.0-0.10","13465","","stimuli/long/c-ra.mp3","1","","",""
"","17752","audio-button-response","22","341509","0.0-11.0-0.11","13465","","stimuli/long/a-me.mp3","3","","",""
"","7880","audio-button-response","23","349393","0.0-11.0-0.12","13465","","stimuli/long/c-le.mp3","8","","",""
"","16101","audio-button-response","24","365497","0.0-11.0-0.13","13465","","stimuli/long/e-le.mp3","8","","",""
"","13523","audio-button-response","25","379023","0.0-11.0-0.14","13465","","stimuli/long/e-fi.mp3","6","","",""
"","10020","audio-button-response","26","389048","0.0-11.0-0.15","13465","","stimuli/long/e-mi.mp3","3","","",""
"","9799","audio-button-response","27","398852","0.0-11.0-0.16","13465","","stimuli/long/e-ti.mp3","11","","",""
"","11635","audio-button-response","28","410490","0.0-11.0-0.17","13465","","stimuli/long/e-ra.mp3","1","","",""
"","17320","audio-button-response","29","427816","0.0-11.0-0.18","13465","","stimuli/long/c-me.mp3","2","","",""
"","18457","audio-button-response","30","446276","0.0-11.0-0.19","13465","","stimuli/long/a-fi.mp3","6","","",""
"","18854","audio-button-response","31","465134","0.0-11.0-0.20","13465","","stimuli/long/a-la.mp3","9","","",""
"","7874","audio-button-response","32","473011","0.0-11.0-0.21","13465","","stimuli/long/e-do8.mp3","0","","",""
"","7238","audio-button-response","33","480255","0.0-11.0-0.22","13465","","stimuli/long/a-do8.mp3","0","","",""
"","12706","audio-button-response","34","492964","0.0-11.0-0.23","13465","","stimuli/long/a-fa.mp3","5","","",""
"","9899","audio-button-response","35","502867","0.0-11.0-0.24","13465","","stimuli/long/a-le.mp3","8","","",""
"","7367","audio-button-response","36","510237","0.0-11.0-0.25","13465","","stimuli/long/e-do.mp3","0","","",""
"","11104","audio-button-response","37","521344","0.0-11.0-0.26","13465","","stimuli/long/e-fa.mp3","5","","",""
"","14748","audio-button-response","38","536095","0.0-11.0-0.27","13465","","stimuli/long/e-re.mp3","2","","",""
"","7091","audio-button-response","39","543188","0.0-11.0-0.28","13465","","stimuli/long/c-do8.mp3","0","","",""
"","7623","audio-button-response","40","550816","0.0-11.0-0.29","13465","","stimuli/long/c-sol.mp3","7","","",""
"","11126","audio-button-response","41","561946","0.0-11.0-0.30","13465","","stimuli/long/e-me.mp3","3","","",""
"","7786","audio-button-response","42","569736","0.0-11.0-0.31","13465","","stimuli/long/c-fa.mp3","5","","",""
"","6785","audio-button-response","43","576523","0.0-11.0-0.32","13465","","stimuli/long/c-mi.mp3","4","","",""
"","9646","audio-button-response","44","586173","0.0-11.0-0.33","13465","","stimuli/long/a-ra.mp3","1","","",""
"","9995","audio-button-response","45","596174","0.0-11.0-0.34","13465","","stimuli/long/c-fi.mp3","6","","",""
"","9304","audio-button-response","46","605483","0.0-11.0-0.35","13465","","stimuli/long/a-te.mp3","10","","",""
"","8844","audio-button-response","47","614331","0.0-11.0-0.36","13465","","stimuli/long/a-mi.mp3","4","","",""
"","8980","audio-button-response","48","623315","0.0-11.0-0.37","13465","","stimuli/long/c-la.mp3","9","","",""
"[{""page_index"":0,""viewing_time"":10629},{""page_index"":1,""viewing_time"":2022}]","12651","instructions","49","635969","0.0-12.0","13465","","","","","",""
"","null","audio-keyboard-response","50","645294","0.0-13.0-0.0","13465","","new_stimuli/mp3/melody_3_^6_buffer.mp3","","null","",""
"","1327","html-button-response","51","646625","0.0-13.0-1.0","13465","","<p>Which tone was played first after the cadence?</p><p>Please respond as quickly and as accurately as possible!</p>","4","","1","new_stimuli/mp3/melody_3_^6_buffer.mp3"
"","630","html-button-response","52","647261","0.0-13.0-2.0","13465","","<p>Which tone was played second after the cadence?</p><p>Please respond as quickly and as accurately as possible!</p>","9","","2","new_stimuli/mp3/melody_3_^6_buffer.mp3"
"","null","audio-keyboard-response","53","656458","0.0-13.0-0.1","13465","","new_stimuli/mp3/melody_v5_v1+_.mp3","","null","",""
"","970","html-button-response","54","657432","0.0-13.0-1.1","13465","","<p>Which tone was played first after the cadence?</p><p>Please respond as quickly and as accurately as possible!</p>","7","","1","new_stimuli/mp3/melody_v5_v1+_.mp3"
"","605","html-button-response","55","658041","0.0-13.0-2.1","13465","","<p>Which tone was played second after the cadence?</p><p>Please respond as quickly and as accurately as possible!</p>","1","","2","new_stimuli/mp3/melody_v5_v1+_.mp3"
"","null","audio-keyboard-response","56","667539","0.0-13.0-0.2","13465","","new_stimuli/mp3/melody_v7_v3_buffer.mp3","","null","",""
"","1384","html-button-response","57","668924","0.0-13.0-1.2","13465","","<p>Which tone was played first after the cadence?</p><p>Please respond as quickly and as accurately as possible!</p>","11","","1","new_stimuli/mp3/melody_v7_v3_buffer.mp3"
"","881","html-button-response","58","669806","0.0-13.0-2.2","13465","","<p>Which tone was played second after the cadence?</p><p>Please respond as quickly and as accurately as possible!</p>","4","","2","new_stimuli/mp3/melody_v7_v3_buffer.mp3"
"","null","audio-keyboard-response","59","679007","0.0-13.0-0.3","13465","","new_stimuli/mp3/melody_^2_v7-_.mp3","","null","",""
"","1186","html-button-response","60","680197","0.0-13.0-1.3","13465","","<p>Which tone was played first after the cadence?</p><p>Please respond as quickly and as accurately as possible!</p>","1","","1","new_stimuli/mp3/melody_^2_v7-_.mp3"
"","1385","html-button-response","61","681587","0.0-13.0-2.3","13465","","<p>Which tone was played second after the cadence?</p><p>Please respond as quickly and as accurately as possible!</p>","10","","2","new_stimuli/mp3/melody_^2_v7-_.mp3"
"","null","audio-keyboard-response","62","691032","0.0-13.0-0.4","13465","","new_stimuli/mp3/melody_v4_v3_buffer.mp3","","null","",""
"","848","html-button-response","63","691883","0.0-13.0-1.4","13465","","<p>Which tone was played first after the cadence?</p><p>Please respond as quickly and as accurately as possible!</p>","5","","1","new_stimuli/mp3/melody_v4_v3_buffer.mp3"
"","429","html-button-response","64","692314","0.0-13.0-2.4","13465","","<p>Which tone was played second after the cadence?</p><p>Please respond as quickly and as accurately as possible!</p>","4","","2","new_stimuli/mp3/melody_v4_v3_buffer.mp3"
"","null","audio-keyboard-response","65","701357","0.0-13.0-0.5","13465","","new_stimuli/mp3/melody_^1_^2+_.mp3","","null","",""
"","1353","html-button-response","66","702713","0.0-13.0-1.5","13465","","<p>Which tone was played first after the cadence?</p><p>Please respond as quickly and as accurately as possible!</p>","0","","1","new_stimuli/mp3/melody_^1_^2+_.mp3"
"","1097","html-button-response","67","703814","0.0-13.0-2.5","13465","","<p>Which tone was played second after the cadence?</p><p>Please respond as quickly and as accurately as possible!</p>","3","","2","new_stimuli/mp3/melody_^1_^2+_.mp3"
"","null","audio-keyboard-response","68","713029","0.0-13.0-0.6","13465","","new_stimuli/mp3/melody_v3_v2_buffer.mp3","","null","",""
"","1431","html-button-response","69","714463","0.0-13.0-1.6","13465","","<p>Which tone was played first after the cadence?</p><p>Please respond as quickly and as accurately as possible!</p>","3","","1","new_stimuli/mp3/melody_v3_v2_buffer.mp3"
"","1934","html-button-response","70","716399","0.0-13.0-2.6","13465","","<p>Which tone was played second after the cadence?</p><p>Please respond as quickly and as accurately as possible!</p>","2","","2","new_stimuli/mp3/melody_v3_v2_buffer.mp3"
"","null","audio-keyboard-response","71","725887","0.0-13.0-0.7","13465","","new_stimuli/mp3/melody_^3_v4+_buffer.mp3","","null","",""
"","1550","html-button-response","72","727439","0.0-13.0-1.7","13465","","<p>Which tone was played first after the cadence?</p><p>Please respond as quickly and as accurately as possible!</p>","4","","1","new_stimuli/mp3/melody_^3_v4+_buffer.mp3"
"","688","html-button-response","73","728129","0.0-13.0-2.7","13465","","<p>Which tone was played second after the cadence?</p><p>Please respond as quickly and as accurately as possible!</p>","6","","2","new_stimuli/mp3/melody_^3_v4+_buffer.mp3"
"","null","audio-keyboard-response","74","737300","0.0-13.0-0.8","13465","","new_stimuli/mp3/melody_^5_^1+_.mp3","","null","",""
"","1469","html-button-response","75","738771","0.0-13.0-1.8","13465","","<p>Which tone was played first after the cadence?</p><p>Please respond as quickly and as accurately as possible!</p>","7","","1","new_stimuli/mp3/melody_^5_^1+_.mp3"
"","9992","html-button-response","76","748766","0.0-13.0-2.8","13465","","<p>Which tone was played second after the cadence?</p><p>Please respond as quickly and as accurately as possible!</p>","1","","2","new_stimuli/mp3/melody_^5_^1+_.mp3"
"","null","audio-keyboard-response","77","757845","0.0-13.0-0.9","13465","","new_stimuli/mp3/melody_v2_v1_.mp3","","null","",""
"","997","html-button-response","78","758844","0.0-13.0-1.9","13465","","<p>Which tone was played first after the cadence?</p><p>Please respond as quickly and as accurately as possible!</p>","2","","1","new_stimuli/mp3/melody_v2_v1_.mp3"
"","599","html-button-response","79","759447","0.0-13.0-2.9","13465","","<p>Which tone was played second after the cadence?</p><p>Please respond as quickly and as accurately as possible!</p>","0","","2","new_stimuli/mp3/melody_v2_v1_.mp3"
"[{""page_index"":0,""viewing_time"":2613},{""page_index"":1,""viewing_time"":2180},{""page_index"":2,""viewing_time"":1766}]","6560","instructions","80","766007","0.0-14.0","13465","","","","","",""
"","null","audio-keyboard-response","81","775993","0.0-15.0-0.0","13465","","new_stimuli/mp3/melody_v5_v4_v3_buffer.mp3","","null","",""
"","1006","html-button-response","82","777001","0.0-15.0-1.0","13465","","<p>Which tone was played first after the cadence?</p><p>Please respond as quickly and as accurately as possible!</p>","7","","1","new_stimuli/mp3/melody_v5_v4_v3_buffer.mp3"
"","825","html-button-response","83","777829","0.0-15.0-2.0","13465","","<p>Which tone was played second after the cadence?</p><p>Please respond as quickly and as accurately as possible!</p>","5","","2","new_stimuli/mp3/melody_v5_v4_v3_buffer.mp3"
"","1010","html-button-response","84","778844","0.0-15.0-3.0","13465","","<p>Which tone was played third after the cadence?</p><p>Please respond as quickly and as accurately as possible!</p>","4","","3","new_stimuli/mp3/melody_v5_v4_v3_buffer.mp3"
"","null","audio-keyboard-response","85","788373","0.0-15.0-0.1","13465","","new_stimuli/mp3/melody_1_v1+_^2_.mp3","","null","",""
"","1157","html-button-response","86","789532","0.0-15.0-1.1","13465","","<p>Which tone was played first after the cadence?</p><p>Please respond as quickly and as accurately as possible!</p>","0","","1","new_stimuli/mp3/melody_1_v1+_^2_.mp3"
"","453","html-button-response","87","789988","0.0-15.0-2.1","13465","","<p>Which tone was played second after the cadence?</p><p>Please respond as quickly and as accurately as possible!</p>","1","","2","new_stimuli/mp3/melody_1_v1+_^2_.mp3"
"","470","html-button-response","88","790461","0.0-15.0-3.1","13465","","<p>Which tone was played third after the cadence?</p><p>Please respond as quickly and as accurately as possible!</p>","2","","3","new_stimuli/mp3/melody_1_v1+_^2_.mp3"
"","null","audio-keyboard-response","89","800457","0.0-15.0-0.2","13465","","new_stimuli/mp3/melody_v2_v5_^3_buffer.mp3","","null","",""
"","884","html-button-response","90","801345","0.0-15.0-1.2","13465","","<p>Which tone was played first after the cadence?</p><p>Please respond as quickly and as accurately as possible!</p>","2","","1","new_stimuli/mp3/melody_v2_v5_^3_buffer.mp3"
"","910","html-button-response","91","802258","0.0-15.0-2.2","13465","","<p>Which tone was played second after the cadence?</p><p>Please respond as quickly and as accurately as possible!</p>","7","","2","new_stimuli/mp3/melody_v2_v5_^3_buffer.mp3"
"","1388","html-button-response","92","803648","0.0-15.0-3.2","13465","","<p>Which tone was played third after the cadence?</p><p>Please respond as quickly and as accurately as possible!</p>","4","","3","new_stimuli/mp3/melody_v2_v5_^3_buffer.mp3"
"","null","audio-keyboard-response","93","813225","0.0-15.0-0.3","13465","","new_stimuli/mp3/melody_v3_v2_v1_.mp3","","null","",""
"","1366","html-button-response","94","814595","0.0-15.0-1.3","13465","","<p>Which tone was played first after the cadence?</p><p>Please respond as quickly and as accurately as possible!</p>","4","","1","new_stimuli/mp3/melody_v3_v2_v1_.mp3"
"","820","html-button-response","95","815420","0.0-15.0-2.3","13465","","<p>Which tone was played second after the cadence?</p><p>Please respond as quickly and as accurately as possible!</p>","2","","2","new_stimuli/mp3/melody_v3_v2_v1_.mp3"
"","1112","html-button-response","96","816535","0.0-15.0-3.3","13465","","<p>Which tone was played third after the cadence?</p><p>Please respond as quickly and as accurately as possible!</p>","0","","3","new_stimuli/mp3/melody_v3_v2_v1_.mp3"
"","null","audio-keyboard-response","97","826128","0.0-15.0-0.4","13465","","new_stimuli/mp3/melody_v1_v7-_^7_.mp3","","null","",""
"","1050","html-button-response","98","827178","0.0-15.0-1.4","13465","","<p>Which tone was played first after the cadence?</p><p>Please respond as quickly and as accurately as possible!</p>","12","","1","new_stimuli/mp3/melody_v1_v7-_^7_.mp3"
"","543","html-button-response","99","827723","0.0-15.0-2.4","13465","","<p>Which tone was played second after the cadence?</p><p>Please respond as quickly and as accurately as possible!</p>","10","","2","new_stimuli/mp3/melody_v1_v7-_^7_.mp3"
"","492","html-button-response","100","828218","0.0-15.0-3.4","13465","","<p>Which tone was played third after the cadence?</p><p>Please respond as quickly and as accurately as possible!</p>","11","","3","new_stimuli/mp3/melody_v1_v7-_^7_.mp3"
"","null","audio-keyboard-response","101","838128","0.0-15.0-0.5","13465","","new_stimuli/mp3/melody_^1_v6_v5+_.mp3","","null","",""
"","1392","html-button-response","102","839522","0.0-15.0-1.5","13465","","<p>Which tone was played first after the cadence?</p><p>Please respond as quickly and as accurately as possible!</p>","12","","1","new_stimuli/mp3/melody_^1_v6_v5+_.mp3"
"","933","html-button-response","103","840459","0.0-15.0-2.5","13465","","<p>Which tone was played second after the cadence?</p><p>Please respond as quickly and as accurately as possible!</p>","9","","2","new_stimuli/mp3/melody_^1_v6_v5+_.mp3"
"","452","html-button-response","104","840915","0.0-15.0-3.5","13465","","<p>Which tone was played third after the cadence?</p><p>Please respond as quickly and as accurately as possible!</p>","8","","3","new_stimuli/mp3/melody_^1_v6_v5+_.mp3"
"","null","audio-keyboard-response","105","850579","0.0-15.0-0.6","13465","","new_stimuli/mp3/melody_6_^1_v5_.mp3","","null","",""
"","1153","html-button-response","106","851734","0.0-15.0-1.6","13465","","<p>Which tone was played first after the cadence?</p><p>Please respond as quickly and as accurately as possible!</p>","9","","1","new_stimuli/mp3/melody_6_^1_v5_.mp3"
"","708","html-button-response","107","852447","0.0-15.0-2.6","13465","","<p>Which tone was played second after the cadence?</p><p>Please respond as quickly and as accurately as possible!</p>","12","","2","new_stimuli/mp3/melody_6_^1_v5_.mp3"
"","815","html-button-response","108","853266","0.0-15.0-3.6","13465","","<p>Which tone was played third after the cadence?</p><p>Please respond as quickly and as accurately as possible!</p>","7","","3","new_stimuli/mp3/melody_6_^1_v5_.mp3"
"","null","audio-keyboard-response","109","862972","0.0-15.0-0.7","13465","","new_stimuli/mp3/melody_v4_v3_v2_buffer.mp3","","null","",""
"","932","html-button-response","110","863908","0.0-15.0-1.7","13465","","<p>Which tone was played first after the cadence?</p><p>Please respond as quickly and as accurately as possible!</p>","5","","1","new_stimuli/mp3/melody_v4_v3_v2_buffer.mp3"
"","1112","html-button-response","111","865023","0.0-15.0-2.7","13465","","<p>Which tone was played second after the cadence?</p><p>Please respond as quickly and as accurately as possible!</p>","4","","2","new_stimuli/mp3/melody_v4_v3_v2_buffer.mp3"
"","1019","html-button-response","112","866046","0.0-15.0-3.7","13465","","<p>Which tone was played third after the cadence?</p><p>Please respond as quickly and as accurately as possible!</p>","2","","3","new_stimuli/mp3/melody_v4_v3_v2_buffer.mp3"
"","null","audio-keyboard-response","113","875653","0.0-15.0-0.8","13465","","new_stimuli/mp3/melody_v1_v7-_7-_buffer.mp3","","null","",""
"","782","html-button-response","114","876438","0.0-15.0-1.8","13465","","<p>Which tone was played first after the cadence?</p><p>Please respond as quickly and as accurately as possible!</p>","12","","1","new_stimuli/mp3/melody_v1_v7-_7-_buffer.mp3"
"","565","html-button-response","115","877007","0.0-15.0-2.8","13465","","<p>Which tone was played second after the cadence?</p><p>Please respond as quickly and as accurately as possible!</p>","10","","2","new_stimuli/mp3/melody_v1_v7-_7-_buffer.mp3"
"","452","html-button-response","116","877462","0.0-15.0-3.8","13465","","<p>Which tone was played third after the cadence?</p><p>Please respond as quickly and as accurately as possible!</p>","10","","3","new_stimuli/mp3/melody_v1_v7-_7-_buffer.mp3"
"[{""page_index"":0,""viewing_time"":4676},{""page_index"":1,""viewing_time"":2523},{""page_index"":2,""viewing_time"":1202}]","8402","instructions","117","885867","0.0-16.0","13465","","","","","",""
"","null","audio-keyboard-response","118","896520","0.0-17.0-0.0","13465","","new_stimuli/mp3/melody_^6_v4_v3_^4_^5_.mp3","","null","",""
"","1353","html-button-response","119","897875","0.0-17.0-1.0","13465","","<p>Which tone was played first after the cadence?</p><p>Please respond as quickly and as accurately as possible!</p>","9","","1","new_stimuli/mp3/melody_^6_v4_v3_^4_^5_.mp3"
"","1246","html-button-response","120","899125","0.0-17.0-2.0","13465","","<p>Which tone was played second after the cadence?</p><p>Please respond as quickly and as accurately as possible!</p>","5","","2","new_stimuli/mp3/melody_^6_v4_v3_^4_^5_.mp3"
"","854","html-button-response","121","899983","0.0-17.0-3.0","13465","","<p>Which tone was played third after the cadence?</p><p>Please respond as quickly and as accurately as possible!</p>","4","","3","new_stimuli/mp3/melody_^6_v4_v3_^4_^5_.mp3"
"","464","html-button-response","122","900451","0.0-17.0-4.0","13465","","<p>Which tone was played fourth after the cadence?</p><p>Please respond as quickly and as accurately as possible!</p>","5","","4","new_stimuli/mp3/melody_^6_v4_v3_^4_^5_.mp3"
"","464","html-button-response","123","900918","0.0-17.0-5.0","13465","","<p>Which tone was played fifth after the cadence?</p><p>Please respond as quickly and as accurately as possible!</p>","7","","5","new_stimuli/mp3/melody_^6_v4_v3_^4_^5_.mp3"
"","null","audio-keyboard-response","124","911651","0.0-17.0-0.1","13465","","new_stimuli/mp3/melody_^6_v5_v4_v3_v2_buffer.mp3","","null","",""
"","801","html-button-response","125","912455","0.0-17.0-1.1","13465","","<p>Which tone was played first after the cadence?</p><p>Please respond as quickly and as accurately as possible!</p>","9","","1","new_stimuli/mp3/melody_^6_v5_v4_v3_v2_buffer.mp3"
"","542","html-button-response","126","913000","0.0-17.0-2.1","13465","","<p>Which tone was played second after the cadence?</p><p>Please respond as quickly and as accurately as possible!</p>","7","","2","new_stimuli/mp3/melody_^6_v5_v4_v3_v2_buffer.mp3"
"","615","html-button-response","127","913618","0.0-17.0-3.1","13465","","<p>Which tone was played third after the cadence?</p><p>Please respond as quickly and as accurately as possible!</p>","5","","3","new_stimuli/mp3/melody_^6_v5_v4_v3_v2_buffer.mp3"
"","1038","html-button-response","128","914660","0.0-17.0-4.1","13465","","<p>Which tone was played fourth after the cadence?</p><p>Please respond as quickly and as accurately as possible!</p>","4","","4","new_stimuli/mp3/melody_^6_v5_v4_v3_v2_buffer.mp3"
"","919","html-button-response","129","915583","0.0-17.0-5.1","13465","","<p>Which tone was played fifth after the cadence?</p><p>Please respond as quickly and as accurately as possible!</p>","2","","5","new_stimuli/mp3/melody_^6_v5_v4_v3_v2_buffer.mp3"
"","null","audio-keyboard-response","130","926551","0.0-17.0-0.2","13465","","new_stimuli/mp3/melody_v5-_v3_3_^4+_v3_.mp3","","null","",""
"","1243","html-button-response","131","927796","0.0-17.0-1.2","13465","","<p>Which tone was played first after the cadence?</p><p>Please respond as quickly and as accurately as possible!</p>","6","","1","new_stimuli/mp3/melody_v5-_v3_3_^4+_v3_.mp3"
"","508","html-button-response","132","928309","0.0-17.0-2.2","13465","","<p>Which tone was played second after the cadence?</p><p>Please respond as quickly and as accurately as possible!</p>","4","","2","new_stimuli/mp3/melody_v5-_v3_3_^4+_v3_.mp3"
"","498","html-button-response","133","928809","0.0-17.0-3.2","13465","","<p>Which tone was played third after the cadence?</p><p>Please respond as quickly and as accurately as possible!</p>","4","","3","new_stimuli/mp3/melody_v5-_v3_3_^4+_v3_.mp3"
"","653","html-button-response","134","929466","0.0-17.0-4.2","13465","","<p>Which tone was played fourth after the cadence?</p><p>Please respond as quickly and as accurately as possible!</p>","6","","4","new_stimuli/mp3/melody_v5-_v3_3_^4+_v3_.mp3"
"","543","html-button-response","135","930010","0.0-17.0-5.2","13465","","<p>Which tone was played fifth after the cadence?</p><p>Please respond as quickly and as accurately as possible!</p>","4","","5","new_stimuli/mp3/melody_v5-_v3_3_^4+_v3_.mp3"
"","null","audio-keyboard-response","136","940603","0.0-17.0-0.3","13465","","new_stimuli/mp3/melody_v2_2_^3_^4_v2_.mp3","","null","",""
"","1057","html-button-response","137","941664","0.0-17.0-1.3","13465","","<p>Which tone was played first after the cadence?</p><p>Please respond as quickly and as accurately as possible!</p>","2","","1","new_stimuli/mp3/melody_v2_2_^3_^4_v2_.mp3"
"","575","html-button-response","138","942242","0.0-17.0-2.3","13465","","<p>Which tone was played second after the cadence?</p><p>Please respond as quickly and as accurately as possible!</p>","2","","2","new_stimuli/mp3/melody_v2_2_^3_^4_v2_.mp3"
"","477","html-button-response","139","942721","0.0-17.0-3.3","13465","","<p>Which tone was played third after the cadence?</p><p>Please respond as quickly and as accurately as possible!</p>","4","","3","new_stimuli/mp3/melody_v2_2_^3_^4_v2_.mp3"
"","409","html-button-response","140","943133","0.0-17.0-4.3","13465","","<p>Which tone was played fourth after the cadence?</p><p>Please respond as quickly and as accurately as possible!</p>","5","","4","new_stimuli/mp3/melody_v2_2_^3_^4_v2_.mp3"
"","448","html-button-response","141","943585","0.0-17.0-5.3","13465","","<p>Which tone was played fifth after the cadence?</p><p>Please respond as quickly and as accurately as possible!</p>","2","","5","new_stimuli/mp3/melody_v2_2_^3_^4_v2_.mp3"
"","null","audio-keyboard-response","142","954180","0.0-17.0-0.4","13465","","new_stimuli/mp3/melody_v5_v4_v3_v2_v1 _buffer.mp3","","null","",""
"","933","html-button-response","143","955116","0.0-17.0-1.4","13465","","<p>Which tone was played first after the cadence?</p><p>Please respond as quickly and as accurately as possible!</p>","7","","1","new_stimuli/mp3/melody_v5_v4_v3_v2_v1 _buffer.mp3"
"","664","html-button-response","144","955783","0.0-17.0-2.4","13465","","<p>Which tone was played second after the cadence?</p><p>Please respond as quickly and as accurately as possible!</p>","5","","2","new_stimuli/mp3/melody_v5_v4_v3_v2_v1 _buffer.mp3"
"","661","html-button-response","145","956447","0.0-17.0-3.4","13465","","<p>Which tone was played third after the cadence?</p><p>Please respond as quickly and as accurately as possible!</p>","4","","3","new_stimuli/mp3/melody_v5_v4_v3_v2_v1 _buffer.mp3"
"","681","html-button-response","146","957131","0.0-17.0-4.4","13465","","<p>Which tone was played fourth after the cadence?</p><p>Please respond as quickly and as accurately as possible!</p>","2","","4","new_stimuli/mp3/melody_v5_v4_v3_v2_v1 _buffer.mp3"
"","637","html-button-response","147","957773","0.0-17.0-5.4","13465","","<p>Which tone was played fifth after the cadence?</p><p>Please respond as quickly and as accurately as possible!</p>","0","","5","new_stimuli/mp3/melody_v5_v4_v3_v2_v1 _buffer.mp3"
"","null","audio-keyboard-response","148","968605","0.0-17.0-0.5","13465","","new_stimuli/mp3/melody_v5_^6+_^7_^1_5_.mp3","","null","",""
"","904","html-button-response","149","969511","0.0-17.0-1.5","13465","","<p>Which tone was played first after the cadence?</p><p>Please respond as quickly and as accurately as possible!</p>","7","","1","new_stimuli/mp3/melody_v5_^6+_^7_^1_5_.mp3"
"","589","html-button-response","150","970103","0.0-17.0-2.5","13465","","<p>Which tone was played second after the cadence?</p><p>Please respond as quickly and as accurately as possible!</p>","9","","2","new_stimuli/mp3/melody_v5_^6+_^7_^1_5_.mp3"
"","1156","html-button-response","151","971263","0.0-17.0-3.5","13465","","<p>Which tone was played third after the cadence?</p><p>Please respond as quickly and as accurately as possible!</p>","11","","3","new_stimuli/mp3/melody_v5_^6+_^7_^1_5_.mp3"
"","572","html-button-response","152","971839","0.0-17.0-4.5","13465","","<p>Which tone was played fourth after the cadence?</p><p>Please respond as quickly and as accurately as possible!</p>","12","","4","new_stimuli/mp3/melody_v5_^6+_^7_^1_5_.mp3"
"","850","html-button-response","153","972695","0.0-17.0-5.5","13465","","<p>Which tone was played fifth after the cadence?</p><p>Please respond as quickly and as accurately as possible!</p>","7","","5","new_stimuli/mp3/melody_v5_^6+_^7_^1_5_.mp3"
"","null","audio-keyboard-response","154","983318","0.0-17.0-0.6","13465","","new_stimuli/mp3/melody_v5_v4_v3_v2_v1_.mp3","","null","",""
"","845","html-button-response","155","984164","0.0-17.0-1.6","13465","","<p>Which tone was played first after the cadence?</p><p>Please respond as quickly and as accurately as possible!</p>","7","","1","new_stimuli/mp3/melody_v5_v4_v3_v2_v1_.mp3"
"","504","html-button-response","156","984671","0.0-17.0-2.6","13465","","<p>Which tone was played second after the cadence?</p><p>Please respond as quickly and as accurately as possible!</p>","5","","2","new_stimuli/mp3/melody_v5_v4_v3_v2_v1_.mp3"
"","617","html-button-response","157","985291","0.0-17.0-3.6","13465","","<p>Which tone was played third after the cadence?</p><p>Please respond as quickly and as accurately as possible!</p>","4","","3","new_stimuli/mp3/melody_v5_v4_v3_v2_v1_.mp3"
"","591","html-button-response","158","985886","0.0-17.0-4.6","13465","","<p>Which tone was played fourth after the cadence?</p><p>Please respond as quickly and as accurately as possible!</p>","2","","4","new_stimuli/mp3/melody_v5_v4_v3_v2_v1_.mp3"
"","612","html-button-response","159","986501","0.0-17.0-5.6","13465","","<p>Which tone was played fifth after the cadence?</p><p>Please respond as quickly and as accurately as possible!</p>","0","","5","new_stimuli/mp3/melody_v5_v4_v3_v2_v1_.mp3"
"","null","audio-keyboard-response","160","997470","0.0-17.0-0.7","13465","","new_stimuli/mp3/melody_^5_^6_v5_v4_v3_buffer.mp3","","null","",""
"","1168","html-button-response","161","998640","0.0-17.0-1.7","13465","","<p>Which tone was played first after the cadence?</p><p>Please respond as quickly and as accurately as possible!</p>","7","","1","new_stimuli/mp3/melody_^5_^6_v5_v4_v3_buffer.mp3"
"","473","html-button-response","162","999115","0.0-17.0-2.7","13465","","<p>Which tone was played second after the cadence?</p><p>Please respond as quickly and as accurately as possible!</p>","9","","2","new_stimuli/mp3/melody_^5_^6_v5_v4_v3_buffer.mp3"
"","594","html-button-response","163","999712","0.0-17.0-3.7","13465","","<p>Which tone was played third after the cadence?</p><p>Please respond as quickly and as accurately as possible!</p>","7","","3","new_stimuli/mp3/melody_^5_^6_v5_v4_v3_buffer.mp3"
"","625","html-button-response","164","1000341","0.0-17.0-4.7","13465","","<p>Which tone was played fourth after the cadence?</p><p>Please respond as quickly and as accurately as possible!</p>","5","","4","new_stimuli/mp3/melody_^5_^6_v5_v4_v3_buffer.mp3"
"","454","html-button-response","165","1000798","0.0-17.0-5.7","13465","","<p>Which tone was played fifth after the cadence?</p><p>Please respond as quickly and as accurately as possible!</p>","4","","5","new_stimuli/mp3/melody_^5_^6_v5_v4_v3_buffer.mp3"
"[{""page_index"":0,""viewing_time"":5568},{""page_index"":1,""viewing_time"":1505},{""page_index"":2,""viewing_time"":2003}]","9077","instructions","166","1009878","0.0-18.0","13465","","","","","",""
"","null","audio-keyboard-response","167","1021579","0.0-19.0-0.0","13465","","new_stimuli/mp3/melody_^4_v6-_v5-_^6-_^4_v2-_2-_.mp3","","null","",""
"","8385","html-button-response","168","1029966","0.0-19.0-1.0","13465","","<p>Which tone was played first after the cadence?</p><p>Please respond as quickly and as accurately as possible!</p>","6","","1","new_stimuli/mp3/melody_^4_v6-_v5-_^6-_^4_v2-_2-_.mp3"
"","893","html-button-response","169","1030860","0.0-19.0-2.0","13465","","<p>Which tone was played second after the cadence?</p><p>Please respond as quickly and as accurately as possible!</p>","9","","2","new_stimuli/mp3/melody_^4_v6-_v5-_^6-_^4_v2-_2-_.mp3"
"","1624","html-button-response","170","1032488","0.0-19.0-3.0","13465","","<p>Which tone was played third after the cadence?</p><p>Please respond as quickly and as accurately as possible!</p>","8","","3","new_stimuli/mp3/melody_^4_v6-_v5-_^6-_^4_v2-_2-_.mp3"
"","521","html-button-response","171","1033012","0.0-19.0-4.0","13465","","<p>Which tone was played fourth after the cadence?</p><p>Please respond as quickly and as accurately as possible!</p>","9","","4","new_stimuli/mp3/melody_^4_v6-_v5-_^6-_^4_v2-_2-_.mp3"
"","1733","html-button-response","172","1034748","0.0-19.0-5.0","13465","","<p>Which tone was played fifth after the cadence?</p><p>Please respond as quickly and as accurately as possible!</p>","6","","5","new_stimuli/mp3/melody_^4_v6-_v5-_^6-_^4_v2-_2-_.mp3"
"","823","html-button-response","173","1035577","0.0-19.0-6.0","13465","","<p>Which tone was played sixth after the cadence?</p><p>Please respond as quickly and as accurately as possible!</p>","2","","6","new_stimuli/mp3/melody_^4_v6-_v5-_^6-_^4_v2-_2-_.mp3"
"","552","html-button-response","174","1036133","0.0-19.0-7.0","13465","","<p>Which tone was played seventh after the cadence?</p><p>Please respond as quickly and as accurately as possible!</p>","2","","7","new_stimuli/mp3/melody_^4_v6-_v5-_^6-_^4_v2-_2-_.mp3"
"","null","audio-keyboard-response","175","1047730","0.0-19.0-0.1","13465","","new_stimuli/mp3/melody_^5_^6_v5_v4_v3_v2_v1_buffer.mp3","","null","",""
"","1012","html-button-response","176","1048744","0.0-19.0-1.1","13465","","<p>Which tone was played first after the cadence?</p><p>Please respond as quickly and as accurately as possible!</p>","7","","1","new_stimuli/mp3/melody_^5_^6_v5_v4_v3_v2_v1_buffer.mp3"
"","555","html-button-response","177","1049301","0.0-19.0-2.1","13465","","<p>Which tone was played second after the cadence?</p><p>Please respond as quickly and as accurately as possible!</p>","9","","2","new_stimuli/mp3/melody_^5_^6_v5_v4_v3_v2_v1_buffer.mp3"
"","537","html-button-response","178","1049842","0.0-19.0-3.1","13465","","<p>Which tone was played third after the cadence?</p><p>Please respond as quickly and as accurately as possible!</p>","7","","3","new_stimuli/mp3/melody_^5_^6_v5_v4_v3_v2_v1_buffer.mp3"
"","519","html-button-response","179","1050362","0.0-19.0-4.1","13465","","<p>Which tone was played fourth after the cadence?</p><p>Please respond as quickly and as accurately as possible!</p>","5","","4","new_stimuli/mp3/melody_^5_^6_v5_v4_v3_v2_v1_buffer.mp3"
"","516","html-button-response","180","1050881","0.0-19.0-5.1","13465","","<p>Which tone was played fifth after the cadence?</p><p>Please respond as quickly and as accurately as possible!</p>","4","","5","new_stimuli/mp3/melody_^5_^6_v5_v4_v3_v2_v1_buffer.mp3"
"","487","html-button-response","181","1051370","0.0-19.0-6.1","13465","","<p>Which tone was played sixth after the cadence?</p><p>Please respond as quickly and as accurately as possible!</p>","2","","6","new_stimuli/mp3/melody_^5_^6_v5_v4_v3_v2_v1_buffer.mp3"
"","534","html-button-response","182","1051907","0.0-19.0-7.1","13465","","<p>Which tone was played seventh after the cadence?</p><p>Please respond as quickly and as accurately as possible!</p>","0","","7","new_stimuli/mp3/melody_^5_^6_v5_v4_v3_v2_v1_buffer.mp3"
"","null","audio-keyboard-response","183","1063573","0.0-19.0-0.2","13465","","new_stimuli/mp3/melody_^6_v5+_v4_^5+_v3_v1_v7-_.mp3","","null","",""
"","3674","html-button-response","184","1067248","0.0-19.0-1.2","13465","","<p>Which tone was played first after the cadence?</p><p>Please respond as quickly and as accurately as possible!</p>","9","","1","new_stimuli/mp3/melody_^6_v5+_v4_^5+_v3_v1_v7-_.mp3"
"","877","html-button-response","185","1068127","0.0-19.0-2.2","13465","","<p>Which tone was played second after the cadence?</p><p>Please respond as quickly and as accurately as possible!</p>","8","","2","new_stimuli/mp3/melody_^6_v5+_v4_^5+_v3_v1_v7-_.mp3"
"","2497","html-button-response","186","1070628","0.0-19.0-3.2","13465","","<p>Which tone was played third after the cadence?</p><p>Please respond as quickly and as accurately as possible!</p>","5","","3","new_stimuli/mp3/melody_^6_v5+_v4_^5+_v3_v1_v7-_.mp3"
"","816","html-button-response","187","1071447","0.0-19.0-4.2","13465","","<p>Which tone was played fourth after the cadence?</p><p>Please respond as quickly and as accurately as possible!</p>","8","","4","new_stimuli/mp3/melody_^6_v5+_v4_^5+_v3_v1_v7-_.mp3"
"","2041","html-button-response","188","1073491","0.0-19.0-5.2","13465","","<p>Which tone was played fifth after the cadence?</p><p>Please respond as quickly and as accurately as possible!</p>","4","","5","new_stimuli/mp3/melody_^6_v5+_v4_^5+_v3_v1_v7-_.mp3"
"","725","html-button-response","189","1074218","0.0-19.0-6.2","13465","","<p>Which tone was played sixth after the cadence?</p><p>Please respond as quickly and as accurately as possible!</p>","12","","6","new_stimuli/mp3/melody_^6_v5+_v4_^5+_v3_v1_v7-_.mp3"
"","763","html-button-response","190","1074985","0.0-19.0-7.2","13465","","<p>Which tone was played seventh after the cadence?</p><p>Please respond as quickly and as accurately as possible!</p>","10","","7","new_stimuli/mp3/melody_^6_v5+_v4_^5+_v3_v1_v7-_.mp3"
"","null","audio-keyboard-response","191","1086972","0.0-19.0-0.3","13465","","new_stimuli/mp3/melody_1_^3_v1_^5_v3_v2_^3_.mp3","","null","",""
"","1056","html-button-response","192","1088030","0.0-19.0-1.3","13465","","<p>Which tone was played first after the cadence?</p><p>Please respond as quickly and as accurately as possible!</p>","0","","1","new_stimuli/mp3/melody_1_^3_v1_^5_v3_v2_^3_.mp3"
"","1544","html-button-response","193","1089577","0.0-19.0-2.3","13465","","<p>Which tone was played second after the cadence?</p><p>Please respond as quickly and as accurately as possible!</p>","3","","2","new_stimuli/mp3/melody_1_^3_v1_^5_v3_v2_^3_.mp3"
"","754","html-button-response","194","1090336","0.0-19.0-3.3","13465","","<p>Which tone was played third after the cadence?</p><p>Please respond as quickly and as accurately as possible!</p>","0","","3","new_stimuli/mp3/melody_1_^3_v1_^5_v3_v2_^3_.mp3"
"","2615","html-button-response","195","1092955","0.0-19.0-4.3","13465","","<p>Which tone was played fourth after the cadence?</p><p>Please respond as quickly and as accurately as possible!</p>","7","","4","new_stimuli/mp3/melody_1_^3_v1_^5_v3_v2_^3_.mp3"
"","888","html-button-response","196","1093846","0.0-19.0-5.3","13465","","<p>Which tone was played fifth after the cadence?</p><p>Please respond as quickly and as accurately as possible!</p>","4","","5","new_stimuli/mp3/melody_1_^3_v1_^5_v3_v2_^3_.mp3"
"","563","html-button-response","197","1094412","0.0-19.0-6.3","13465","","<p>Which tone was played sixth after the cadence?</p><p>Please respond as quickly and as accurately as possible!</p>","2","","6","new_stimuli/mp3/melody_1_^3_v1_^5_v3_v2_^3_.mp3"
"","818","html-button-response","198","1095232","0.0-19.0-7.3","13465","","<p>Which tone was played seventh after the cadence?</p><p>Please respond as quickly and as accurately as possible!</p>","4","","7","new_stimuli/mp3/melody_1_^3_v1_^5_v3_v2_^3_.mp3"
"","null","audio-keyboard-response","199","1106953","0.0-19.0-0.4","13465","","new_stimuli/mp3/melody_^1_v7_v6_v5_v4_v3_v2_buffer.mp3","","null","",""
"","646","html-button-response","200","1107601","0.0-19.0-1.4","13465","","<p>Which tone was played first after the cadence?</p><p>Please respond as quickly and as accurately as possible!</p>","12","","1","new_stimuli/mp3/melody_^1_v7_v6_v5_v4_v3_v2_buffer.mp3"
"","780","html-button-response","201","1108386","0.0-19.0-2.4","13465","","<p>Which tone was played second after the cadence?</p><p>Please respond as quickly and as accurately as possible!</p>","11","","2","new_stimuli/mp3/melody_^1_v7_v6_v5_v4_v3_v2_buffer.mp3"
"","722","html-button-response","202","1109110","0.0-19.0-3.4","13465","","<p>Which tone was played third after the cadence?</p><p>Please respond as quickly and as accurately as possible!</p>","9","","3","new_stimuli/mp3/melody_^1_v7_v6_v5_v4_v3_v2_buffer.mp3"
"","575","html-button-response","203","1109690","0.0-19.0-4.4","13465","","<p>Which tone was played fourth after the cadence?</p><p>Please respond as quickly and as accurately as possible!</p>","7","","4","new_stimuli/mp3/melody_^1_v7_v6_v5_v4_v3_v2_buffer.mp3"
"","548","html-button-response","204","1110243","0.0-19.0-5.4","13465","","<p>Which tone was played fifth after the cadence?</p><p>Please respond as quickly and as accurately as possible!</p>","5","","5","new_stimuli/mp3/melody_^1_v7_v6_v5_v4_v3_v2_buffer.mp3"
"","668","html-button-response","205","1110916","0.0-19.0-6.4","13465","","<p>Which tone was played sixth after the cadence?</p><p>Please respond as quickly and as accurately as possible!</p>","4","","6","new_stimuli/mp3/melody_^1_v7_v6_v5_v4_v3_v2_buffer.mp3"
"","785","html-button-response","206","1111706","0.0-19.0-7.4","13465","","<p>Which tone was played seventh after the cadence?</p><p>Please respond as quickly and as accurately as possible!</p>","2","","7","new_stimuli/mp3/melody_^1_v7_v6_v5_v4_v3_v2_buffer.mp3"
"","null","audio-keyboard-response","207","1123440","0.0-19.0-0.5","13465","","new_stimuli/mp3/melody_^4_^5_^6_v5_v4_v3_v2_.mp3","","null","",""
"","1516","html-button-response","208","1124958","0.0-19.0-1.5","13465","","<p>Which tone was played first after the cadence?</p><p>Please respond as quickly and as accurately as possible!</p>","5","","1","new_stimuli/mp3/melody_^4_^5_^6_v5_v4_v3_v2_.mp3"
"","692","html-button-response","209","1125656","0.0-19.0-2.5","13465","","<p>Which tone was played second after the cadence?</p><p>Please respond as quickly and as accurately as possible!</p>","7","","2","new_stimuli/mp3/melody_^4_^5_^6_v5_v4_v3_v2_.mp3"
"","596","html-button-response","210","1126255","0.0-19.0-3.5","13465","","<p>Which tone was played third after the cadence?</p><p>Please respond as quickly and as accurately as possible!</p>","9","","3","new_stimuli/mp3/melody_^4_^5_^6_v5_v4_v3_v2_.mp3"
"","510","html-button-response","211","1126770","0.0-19.0-4.5","13465","","<p>Which tone was played fourth after the cadence?</p><p>Please respond as quickly and as accurately as possible!</p>","7","","4","new_stimuli/mp3/melody_^4_^5_^6_v5_v4_v3_v2_.mp3"
"","724","html-button-response","212","1127497","0.0-19.0-5.5","13465","","<p>Which tone was played fifth after the cadence?</p><p>Please respond as quickly and as accurately as possible!</p>","5","","5","new_stimuli/mp3/melody_^4_^5_^6_v5_v4_v3_v2_.mp3"
"","400","html-button-response","213","1127902","0.0-19.0-6.5","13465","","<p>Which tone was played sixth after the cadence?</p><p>Please respond as quickly and as accurately as possible!</p>","4","","6","new_stimuli/mp3/melody_^4_^5_^6_v5_v4_v3_v2_.mp3"
"","440","html-button-response","214","1128344","0.0-19.0-7.5","13465","","<p>Which tone was played seventh after the cadence?</p><p>Please respond as quickly and as accurately as possible!</p>","2","","7","new_stimuli/mp3/melody_^4_^5_^6_v5_v4_v3_v2_.mp3"
"","null","audio-keyboard-response","215","1140069","0.0-19.0-0.6","13465","","new_stimuli/mp3/melody_v1_^2_v1_v7_^1_^3_v2_.mp3","","null","",""
"","1221","html-button-response","216","1141291","0.0-19.0-1.6","13465","","<p>Which tone was played first after the cadence?</p><p>Please respond as quickly and as accurately as possible!</p>","0","","1","new_stimuli/mp3/melody_v1_^2_v1_v7_^1_^3_v2_.mp3"
"","822","html-button-response","217","1142117","0.0-19.0-2.6","13465","","<p>Which tone was played second after the cadence?</p><p>Please respond as quickly and as accurately as possible!</p>","2","","2","new_stimuli/mp3/melody_v1_^2_v1_v7_^1_^3_v2_.mp3"
"","536","html-button-response","218","1142658","0.0-19.0-3.6","13465","","<p>Which tone was played third after the cadence?</p><p>Please respond as quickly and as accurately as possible!</p>","0","","3","new_stimuli/mp3/melody_v1_^2_v1_v7_^1_^3_v2_.mp3"
"","1095","html-button-response","219","1143755","0.0-19.0-4.6","13465","","<p>Which tone was played fourth after the cadence?</p><p>Please respond as quickly and as accurately as possible!</p>","11","","4","new_stimuli/mp3/melody_v1_^2_v1_v7_^1_^3_v2_.mp3"
"","958","html-button-response","220","1144714","0.0-19.0-5.6","13465","","<p>Which tone was played fifth after the cadence?</p><p>Please respond as quickly and as accurately as possible!</p>","0","","5","new_stimuli/mp3/melody_v1_^2_v1_v7_^1_^3_v2_.mp3"
"","872","html-button-response","221","1145589","0.0-19.0-6.6","13465","","<p>Which tone was played sixth after the cadence?</p><p>Please respond as quickly and as accurately as possible!</p>","4","","6","new_stimuli/mp3/melody_v1_^2_v1_v7_^1_^3_v2_.mp3"
"","738","html-button-response","222","1146332","0.0-19.0-7.6","13465","","<p>Which tone was played seventh after the cadence?</p><p>Please respond as quickly and as accurately as possible!</p>","2","","7","new_stimuli/mp3/melody_v1_^2_v1_v7_^1_^3_v2_.mp3"
"[{""page_index"":0,""viewing_time"":5490},{""page_index"":1,""viewing_time"":42880},{""page_index"":2,""viewing_time"":1367}]","49738","instructions","223","1196070","0.0-20.0","13465","","","","","",""
"","null","audio-keyboard-response","224","1208732","0.0-21.0-0.0","13465","","new_stimuli/mp3/melody_v7_v6_v5_^6_v5_v4_^5_^6_v5_.mp3","","null","",""
"","1917","html-button-response","225","1210651","0.0-21.0-1.0","13465","","<p>Which tone was played first after the cadence?</p><p>Please respond as quickly and as accurately as possible!</p>","11","","1","new_stimuli/mp3/melody_v7_v6_v5_^6_v5_v4_^5_^6_v5_.mp3"
"","498","html-button-response","226","1211153","0.0-21.0-2.0","13465","","<p>Which tone was played second after the cadence?</p><p>Please respond as quickly and as accurately as possible!</p>","9","","2","new_stimuli/mp3/melody_v7_v6_v5_^6_v5_v4_^5_^6_v5_.mp3"
"","464","html-button-response","227","1211621","0.0-21.0-3.0","13465","","<p>Which tone was played third after the cadence?</p><p>Please respond as quickly and as accurately as possible!</p>","7","","3","new_stimuli/mp3/melody_v7_v6_v5_^6_v5_v4_^5_^6_v5_.mp3"
"","874","html-button-response","228","1212499","0.0-21.0-4.0","13465","","<p>Which tone was played fourth after the cadence?</p><p>Please respond as quickly and as accurately as possible!</p>","5","","4","new_stimuli/mp3/melody_v7_v6_v5_^6_v5_v4_^5_^6_v5_.mp3"
"","525","html-button-response","229","1213027","0.0-21.0-5.0","13465","","<p>Which tone was played fifth after the cadence?</p><p>Please respond as quickly and as accurately as possible!</p>","7","","5","new_stimuli/mp3/melody_v7_v6_v5_^6_v5_v4_^5_^6_v5_.mp3"
"","444","html-button-response","230","1213475","0.0-21.0-6.0","13465","","<p>Which tone was played sixth after the cadence?</p><p>Please respond as quickly and as accurately as possible!</p>","5","","6","new_stimuli/mp3/melody_v7_v6_v5_^6_v5_v4_^5_^6_v5_.mp3"
"","686","html-button-response","231","1214165","0.0-21.0-7.0","13465","","<p>Which tone was played seventh after the cadence?</p><p>Please respond as quickly and as accurately as possible!</p>","7","","7","new_stimuli/mp3/melody_v7_v6_v5_^6_v5_v4_^5_^6_v5_.mp3"
"","487","html-button-response","232","1214654","0.0-21.0-8.0","13465","","<p>Which tone was played eight after the cadence?</p><p>Please respond as quickly and as accurately as possible!</p>","9","","8","new_stimuli/mp3/melody_v7_v6_v5_^6_v5_v4_^5_^6_v5_.mp3"
"","495","html-button-response","233","1215154","0.0-21.0-9.0","13465","","<p>Which tone was played nineth after the cadence?</p><p>Please respond as quickly and as accurately as possible!</p>","7","","9","new_stimuli/mp3/melody_v7_v6_v5_^6_v5_v4_^5_^6_v5_.mp3"
"","null","audio-keyboard-response","234","1227876","0.0-21.0-0.1","13465","","new_stimuli/mp3/melody_^2_^3_^4_^5_^6_v5_v4_v3_v2_buffer.mp3","","null","",""
"","1032","html-button-response","235","1228911","0.0-21.0-1.1","13465","","<p>Which tone was played first after the cadence?</p><p>Please respond as quickly and as accurately as possible!</p>","2","","1","new_stimuli/mp3/melody_^2_^3_^4_^5_^6_v5_v4_v3_v2_buffer.mp3"
"","479","html-button-response","236","1229391","0.0-21.0-2.1","13465","","<p>Which tone was played second after the cadence?</p><p>Please respond as quickly and as accurately as possible!</p>","4","","2","new_stimuli/mp3/melody_^2_^3_^4_^5_^6_v5_v4_v3_v2_buffer.mp3"
"","705","html-button-response","237","1230098","0.0-21.0-3.1","13465","","<p>Which tone was played third after the cadence?</p><p>Please respond as quickly and as accurately as possible!</p>","5","","3","new_stimuli/mp3/melody_^2_^3_^4_^5_^6_v5_v4_v3_v2_buffer.mp3"
"","675","html-button-response","238","1230777","0.0-21.0-4.1","13465","","<p>Which tone was played fourth after the cadence?</p><p>Please respond as quickly and as accurately as possible!</p>","7","","4","new_stimuli/mp3/melody_^2_^3_^4_^5_^6_v5_v4_v3_v2_buffer.mp3"
"","508","html-button-response","239","1231288","0.0-21.0-5.1","13465","","<p>Which tone was played fifth after the cadence?</p><p>Please respond as quickly and as accurately as possible!</p>","9","","5","new_stimuli/mp3/melody_^2_^3_^4_^5_^6_v5_v4_v3_v2_buffer.mp3"
"","642","html-button-response","240","1231931","0.0-21.0-6.1","13465","","<p>Which tone was played sixth after the cadence?</p><p>Please respond as quickly and as accurately as possible!</p>","7","","6","new_stimuli/mp3/melody_^2_^3_^4_^5_^6_v5_v4_v3_v2_buffer.mp3"
"","616","html-button-response","241","1232551","0.0-21.0-7.1","13465","","<p>Which tone was played seventh after the cadence?</p><p>Please respond as quickly and as accurately as possible!</p>","5","","7","new_stimuli/mp3/melody_^2_^3_^4_^5_^6_v5_v4_v3_v2_buffer.mp3"
"","1794","html-button-response","242","1234348","0.0-21.0-8.1","13465","","<p>Which tone was played eight after the cadence?</p><p>Please respond as quickly and as accurately as possible!</p>","4","","8","new_stimuli/mp3/melody_^2_^3_^4_^5_^6_v5_v4_v3_v2_buffer.mp3"
"","692","html-button-response","243","1235044","0.0-21.0-9.1","13465","","<p>Which tone was played nineth after the cadence?</p><p>Please respond as quickly and as accurately as possible!</p>","2","","9","new_stimuli/mp3/melody_^2_^3_^4_^5_^6_v5_v4_v3_v2_buffer.mp3"
"","null","audio-keyboard-response","244","1247710","0.0-21.0-0.2","13465","","new_stimuli/mp3/melody_^3_^4_v2_v7_^1_^2_^3_3_^4_.mp3","","null","",""
"","1842","html-button-response","245","1249553","0.0-21.0-1.2","13465","","<p>Which tone was played first after the cadence?</p><p>Please respond as quickly and as accurately as possible!</p>","4","","1","new_stimuli/mp3/melody_^3_^4_v2_v7_^1_^2_^3_3_^4_.mp3"
"","571","html-button-response","246","1250128","0.0-21.0-2.2","13465","","<p>Which tone was played second after the cadence?</p><p>Please respond as quickly and as accurately as possible!</p>","5","","2","new_stimuli/mp3/melody_^3_^4_v2_v7_^1_^2_^3_3_^4_.mp3"
"","1147","html-button-response","247","1251277","0.0-21.0-3.2","13465","","<p>Which tone was played third after the cadence?</p><p>Please respond as quickly and as accurately as possible!</p>","2","","3","new_stimuli/mp3/melody_^3_^4_v2_v7_^1_^2_^3_3_^4_.mp3"
"","983","html-button-response","248","1252262","0.0-21.0-4.2","13465","","<p>Which tone was played fourth after the cadence?</p><p>Please respond as quickly and as accurately as possible!</p>","11","","4","new_stimuli/mp3/melody_^3_^4_v2_v7_^1_^2_^3_3_^4_.mp3"
"","861","html-button-response","249","1253128","0.0-21.0-5.2","13465","","<p>Which tone was played fifth after the cadence?</p><p>Please respond as quickly and as accurately as possible!</p>","0","","5","new_stimuli/mp3/melody_^3_^4_v2_v7_^1_^2_^3_3_^4_.mp3"
"","583","html-button-response","250","1253714","0.0-21.0-6.2","13465","","<p>Which tone was played sixth after the cadence?</p><p>Please respond as quickly and as accurately as possible!</p>","2","","6","new_stimuli/mp3/melody_^3_^4_v2_v7_^1_^2_^3_3_^4_.mp3"
"","2788","html-button-response","251","1256505","0.0-21.0-7.2","13465","","<p>Which tone was played seventh after the cadence?</p><p>Please respond as quickly and as accurately as possible!</p>","4","","7","new_stimuli/mp3/melody_^3_^4_v2_v7_^1_^2_^3_3_^4_.mp3"
"","400","html-button-response","252","1256908","0.0-21.0-8.2","13465","","<p>Which tone was played eight after the cadence?</p><p>Please respond as quickly and as accurately as possible!</p>","5","","8","new_stimuli/mp3/melody_^3_^4_v2_v7_^1_^2_^3_3_^4_.mp3"
"","380","html-button-response","253","1257293","0.0-21.0-9.2","13465","","<p>Which tone was played nineth after the cadence?</p><p>Please respond as quickly and as accurately as possible!</p>","5","","9","new_stimuli/mp3/melody_^3_^4_v2_v7_^1_^2_^3_3_^4_.mp3"
"","null","audio-keyboard-response","254","1270263","0.0-21.0-0.3","13465","","new_stimuli/mp3/melody_^5_^6_v5_v4_v3_v2_v1_^2_^3_buffer.mp3","","null","",""
"","1014","html-button-response","255","1271279","0.0-21.0-1.3","13465","","<p>Which tone was played first after the cadence?</p><p>Please respond as quickly and as accurately as possible!</p>","7","","1","new_stimuli/mp3/melody_^5_^6_v5_v4_v3_v2_v1_^2_^3_buffer.mp3"
"","441","html-button-response","256","1271723","0.0-21.0-2.3","13465","","<p>Which tone was played second after the cadence?</p><p>Please respond as quickly and as accurately as possible!</p>","9","","2","new_stimuli/mp3/melody_^5_^6_v5_v4_v3_v2_v1_^2_^3_buffer.mp3"
"","451","html-button-response","257","1272178","0.0-21.0-3.3","13465","","<p>Which tone was played third after the cadence?</p><p>Please respond as quickly and as accurately as possible!</p>","7","","3","new_stimuli/mp3/melody_^5_^6_v5_v4_v3_v2_v1_^2_^3_buffer.mp3"
"","474","html-button-response","258","1272654","0.0-21.0-4.3","13465","","<p>Which tone was played fourth after the cadence?</p><p>Please respond as quickly and as accurately as possible!</p>","5","","4","new_stimuli/mp3/melody_^5_^6_v5_v4_v3_v2_v1_^2_^3_buffer.mp3"
"","450","html-button-response","259","1273107","0.0-21.0-5.3","13465","","<p>Which tone was played fifth after the cadence?</p><p>Please respond as quickly and as accurately as possible!</p>","4","","5","new_stimuli/mp3/melody_^5_^6_v5_v4_v3_v2_v1_^2_^3_buffer.mp3"
"","587","html-button-response","260","1273698","0.0-21.0-6.3","13465","","<p>Which tone was played sixth after the cadence?</p><p>Please respond as quickly and as accurately as possible!</p>","2","","6","new_stimuli/mp3/melody_^5_^6_v5_v4_v3_v2_v1_^2_^3_buffer.mp3"
"","469","html-button-response","261","1274170","0.0-21.0-7.3","13465","","<p>Which tone was played seventh after the cadence?</p><p>Please respond as quickly and as accurately as possible!</p>","0","","7","new_stimuli/mp3/melody_^5_^6_v5_v4_v3_v2_v1_^2_^3_buffer.mp3"
"","437","html-button-response","262","1274608","0.0-21.0-8.3","13465","","<p>Which tone was played eight after the cadence?</p><p>Please respond as quickly and as accurately as possible!</p>","2","","8","new_stimuli/mp3/melody_^5_^6_v5_v4_v3_v2_v1_^2_^3_buffer.mp3"
"","645","html-button-response","263","1275255","0.0-21.0-9.3","13465","","<p>Which tone was played nineth after the cadence?</p><p>Please respond as quickly and as accurately as possible!</p>","4","","9","new_stimuli/mp3/melody_^5_^6_v5_v4_v3_v2_v1_^2_^3_buffer.mp3"
"","null","audio-keyboard-response","264","1287921","0.0-21.0-0.4","13465","","new_stimuli/mp3/melody_v5_v4_v6+_^7_^3+_v3_v2_v5_^4_.mp3","","null","",""
"","2870","html-button-response","265","1290794","0.0-21.0-1.4","13465","","<p>Which tone was played first after the cadence?</p><p>Please respond as quickly and as accurately as possible!</p>","7","","1","new_stimuli/mp3/melody_v5_v4_v6+_^7_^3+_v3_v2_v5_^4_.mp3"
"","2033","html-button-response","266","1292831","0.0-21.0-2.4","13465","","<p>Which tone was played second after the cadence?</p><p>Please respond as quickly and as accurately as possible!</p>","5","","2","new_stimuli/mp3/melody_v5_v4_v6+_^7_^3+_v3_v2_v5_^4_.mp3"
"","1107","html-button-response","267","1293941","0.0-21.0-3.4","13465","","<p>Which tone was played third after the cadence?</p><p>Please respond as quickly and as accurately as possible!</p>","9","","3","new_stimuli/mp3/melody_v5_v4_v6+_^7_^3+_v3_v2_v5_^4_.mp3"
"","4021","html-button-response","268","1297967","0.0-21.0-4.4","13465","","<p>Which tone was played fourth after the cadence?</p><p>Please respond as quickly and as accurately as possible!</p>","11","","4","new_stimuli/mp3/melody_v5_v4_v6+_^7_^3+_v3_v2_v5_^4_.mp3"
"","1345","html-button-response","269","1299316","0.0-21.0-5.4","13465","","<p>Which tone was played fifth after the cadence?</p><p>Please respond as quickly and as accurately as possible!</p>","4","","5","new_stimuli/mp3/melody_v5_v4_v6+_^7_^3+_v3_v2_v5_^4_.mp3"
"","724","html-button-response","270","1300044","0.0-21.0-6.4","13465","","<p>Which tone was played sixth after the cadence?</p><p>Please respond as quickly and as accurately as possible!</p>","3","","6","new_stimuli/mp3/melody_v5_v4_v6+_^7_^3+_v3_v2_v5_^4_.mp3"
"","2099","html-button-response","271","1302147","0.0-21.0-7.4","13465","","<p>Which tone was played seventh after the cadence?</p><p>Please respond as quickly and as accurately as possible!</p>","7","","7","new_stimuli/mp3/melody_v5_v4_v6+_^7_^3+_v3_v2_v5_^4_.mp3"
"","489","html-button-response","272","1302639","0.0-21.0-8.4","13465","","<p>Which tone was played eight after the cadence?</p><p>Please respond as quickly and as accurately as possible!</p>","9","","8","new_stimuli/mp3/melody_v5_v4_v6+_^7_^3+_v3_v2_v5_^4_.mp3"
"","487","html-button-response","273","1303131","0.0-21.0-9.4","13465","","<p>Which tone was played nineth after the cadence?</p><p>Please respond as quickly and as accurately as possible!</p>","9","","9","new_stimuli/mp3/melody_v5_v4_v6+_^7_^3+_v3_v2_v5_^4_.mp3"
"","null","audio-keyboard-response","274","1316073","0.0-21.0-0.5","13465","","new_stimuli/mp3/melody_^2_^4_v3_v2_v1_v3_v2+_^3_^5+_.mp3","","null","",""
"","1957","html-button-response","275","1318034","0.0-21.0-1.5","13465","","<p>Which tone was played first after the cadence?</p><p>Please respond as quickly and as accurately as possible!</p>","2","","1","new_stimuli/mp3/melody_^2_^4_v3_v2_v1_v3_v2+_^3_^5+_.mp3"
"","784","html-button-response","276","1318822","0.0-21.0-2.5","13465","","<p>Which tone was played second after the cadence?</p><p>Please respond as quickly and as accurately as possible!</p>","5","","2","new_stimuli/mp3/melody_^2_^4_v3_v2_v1_v3_v2+_^3_^5+_.mp3"
"","445","html-button-response","277","1319270","0.0-21.0-3.5","13465","","<p>Which tone was played third after the cadence?</p><p>Please respond as quickly and as accurately as possible!</p>","4","","3","new_stimuli/mp3/melody_^2_^4_v3_v2_v1_v3_v2+_^3_^5+_.mp3"
"","1024","html-button-response","278","1320299","0.0-21.0-4.5","13465","","<p>Which tone was played fourth after the cadence?</p><p>Please respond as quickly and as accurately as possible!</p>","2","","4","new_stimuli/mp3/melody_^2_^4_v3_v2_v1_v3_v2+_^3_^5+_.mp3"
"","545","html-button-response","279","1320847","0.0-21.0-5.5","13465","","<p>Which tone was played fifth after the cadence?</p><p>Please respond as quickly and as accurately as possible!</p>","0","","5","new_stimuli/mp3/melody_^2_^4_v3_v2_v1_v3_v2+_^3_^5+_.mp3"
"","787","html-button-response","280","1321636","0.0-21.0-6.5","13465","","<p>Which tone was played sixth after the cadence?</p><p>Please respond as quickly and as accurately as possible!</p>","4","","6","new_stimuli/mp3/melody_^2_^4_v3_v2_v1_v3_v2+_^3_^5+_.mp3"
"","411","html-button-response","281","1322050","0.0-21.0-7.5","13465","","<p>Which tone was played seventh after the cadence?</p><p>Please respond as quickly and as accurately as possible!</p>","3","","7","new_stimuli/mp3/melody_^2_^4_v3_v2_v1_v3_v2+_^3_^5+_.mp3"
"","537","html-button-response","282","1322590","0.0-21.0-8.5","13465","","<p>Which tone was played eight after the cadence?</p><p>Please respond as quickly and as accurately as possible!</p>","7","","8","new_stimuli/mp3/melody_^2_^4_v3_v2_v1_v3_v2+_^3_^5+_.mp3"
"","818","html-button-response","283","1323411","0.0-21.0-9.5","13465","","<p>Which tone was played nineth after the cadence?</p><p>Please respond as quickly and as accurately as possible!</p>","7","","9","new_stimuli/mp3/melody_^2_^4_v3_v2_v1_v3_v2+_^3_^5+_.mp3"
"","null","audio-keyboard-response","284","1336024","0.0-21.0-0.6","13465","","new_stimuli/mp3/melody_^3_^4_^5 _^6_v5_v4_v3_v2_v1_.mp3","","null","",""
"","938","html-button-response","285","1336963","0.0-21.0-1.6","13465","","<p>Which tone was played first after the cadence?</p><p>Please respond as quickly and as accurately as possible!</p>","4","","1","new_stimuli/mp3/melody_^3_^4_^5 _^6_v5_v4_v3_v2_v1_.mp3"
"","744","html-button-response","286","1337711","0.0-21.0-2.6","13465","","<p>Which tone was played second after the cadence?</p><p>Please respond as quickly and as accurately as possible!</p>","5","","2","new_stimuli/mp3/melody_^3_^4_^5 _^6_v5_v4_v3_v2_v1_.mp3"
"","636","html-button-response","287","1338349","0.0-21.0-3.6","13465","","<p>Which tone was played third after the cadence?</p><p>Please respond as quickly and as accurately as possible!</p>","7","","3","new_stimuli/mp3/melody_^3_^4_^5 _^6_v5_v4_v3_v2_v1_.mp3"
"","791","html-button-response","288","1339144","0.0-21.0-4.6","13465","","<p>Which tone was played fourth after the cadence?</p><p>Please respond as quickly and as accurately as possible!</p>","9","","4","new_stimuli/mp3/melody_^3_^4_^5 _^6_v5_v4_v3_v2_v1_.mp3"
"","562","html-button-response","289","1339711","0.0-21.0-5.6","13465","","<p>Which tone was played fifth after the cadence?</p><p>Please respond as quickly and as accurately as possible!</p>","7","","5","new_stimuli/mp3/melody_^3_^4_^5 _^6_v5_v4_v3_v2_v1_.mp3"
"","517","html-button-response","290","1340229","0.0-21.0-6.6","13465","","<p>Which tone was played sixth after the cadence?</p><p>Please respond as quickly and as accurately as possible!</p>","5","","6","new_stimuli/mp3/melody_^3_^4_^5 _^6_v5_v4_v3_v2_v1_.mp3"
"","411","html-button-response","291","1340643","0.0-21.0-7.6","13465","","<p>Which tone was played seventh after the cadence?</p><p>Please respond as quickly and as accurately as possible!</p>","4","","7","new_stimuli/mp3/melody_^3_^4_^5 _^6_v5_v4_v3_v2_v1_.mp3"
"","445","html-button-response","292","1341090","0.0-21.0-8.6","13465","","<p>Which tone was played eight after the cadence?</p><p>Please respond as quickly and as accurately as possible!</p>","2","","8","new_stimuli/mp3/melody_^3_^4_^5 _^6_v5_v4_v3_v2_v1_.mp3"
"","514","html-button-response","293","1341606","0.0-21.0-9.6","13465","","<p>Which tone was played nineth after the cadence?</p><p>Please respond as quickly and as accurately as possible!</p>","0","","9","new_stimuli/mp3/melody_^3_^4_^5 _^6_v5_v4_v3_v2_v1_.mp3"
"","79347","survey-text","294","1420958","0.0-22.0","13465","{""Q0"":""sing the melody short after it ends""}","","","","",""
"","91174","survey-text","295","1512134","0.0-23.0","13465","{""Q0"":""I misclicked quite a few times because I'm used to play on a piano and the buttons were not laid out like on a piano. I've pressed fa mi re as fa mi re# a few times I think. Would be nice to make sharps/flats black buttons.""}","","","","",""
"","5895","survey-text","296","1518031","0.0-24.0","13465","{""Q0"":""No""}","","","","",""
"","7875","survey-text","297","1525907","0.0-25.0","13465","{""Q0"":""Computer speakers""}","","","","",""
"","1882","survey-text","298","1527791","0.0-26.0","13465","{""Q0"":""Male""}","","","","",""
"","2885","survey-text","299","1530678","0.0-27.0","13465","{""Q0"":""Yes""}","","","","",""
"[{""page_index"":0,""viewing_time"":5675}]","5676","instructions","300","1536358","0.0-28.0","13465","","","","","",""
