"view_history","rt","trial_type","trial_index","time_elapsed","internal_node_id","subject","responses","stimulus","button_pressed","key_press","response_sequence","melody"
"[{""page_index"":0,""viewing_time"":7921.744999999646},{""page_index"":1,""viewing_time"":6314.410000006319},{""page_index"":2,""viewing_time"":2108.809999997902}]","16346.270000001823","instructions","0","17048","0.0-0.0","13509","","","","","",""
"","8797.725000003993","survey-text","1","25860","0.0-1.0","13509","{""Q0"":""21""}","","","","",""
"","10477.650000000722","survey-text","2","36339","0.0-2.0","13509","{""Q0"":""Bachelor's""}","","","","",""
"","5553.6599999977625","survey-text","3","41893","0.0-3.0","13509","{""Q0"":""moveable""}","","","","",""
"","3151.879999997618","survey-text","4","45047","0.0-4.0","13509","{""Q0"":""no""}","","","","",""
"","17865.72499999602","survey-text","5","62913","0.0-5.0","13509","{""Q0"":""45 weeks""}","","","","",""
"","4395.109999997658","survey-text","6","67310","0.0-6.0","13509","{""Q0"":""0""}","","","","",""
"[{""page_index"":0,""viewing_time"":6750.780000002123},{""page_index"":1,""viewing_time"":21910.23000000132},{""page_index"":2,""viewing_time"":1815.9249999953317}]","30477.474999999686","instructions","7","97787","0.0-7.0","13509","","","","","",""
"","8528.989999998885","audio-button-response","8","106337","0.0-8.0","13509","","stimuli/long/c-do.mp3","0","","",""
"","6664.955000000191","audio-button-response","9","113005","0.0-9.0","13509","","stimuli/long/a-le.mp3","8","","",""
"[{""page_index"":0,""viewing_time"":4602.02500000014},{""page_index"":1,""viewing_time"":15967.734999998356}]","20570.0050000014","instructions","10","133574","0.0-10.0","13509","","","","","",""
"","7938.609999997425","audio-button-response","11","141514","0.0-11.0-0.0","13509","","stimuli/long/a-do8.mp3","0","","",""
"","8024.265000000014","audio-button-response","12","149540","0.0-11.0-0.1","13509","","stimuli/long/e-do.mp3","0","","",""
"","7906.295000000682","audio-button-response","13","157448","0.0-11.0-0.2","13509","","stimuli/long/e-te.mp3","10","","",""
"","8631.374999997206","audio-button-response","14","166080","0.0-11.0-0.3","13509","","stimuli/long/e-mi.mp3","4","","",""
"","7624.2050000000745","audio-button-response","15","173705","0.0-11.0-0.4","13509","","stimuli/long/c-do8.mp3","0","","",""
"","8262.614999999641","audio-button-response","16","181969","0.0-11.0-0.5","13509","","stimuli/long/c-mi.mp3","4","","",""
"","8068.52500000241","audio-button-response","17","190039","0.0-11.0-0.6","13509","","stimuli/long/e-sol.mp3","7","","",""
"","8398.805000004359","audio-button-response","18","198439","0.0-11.0-0.7","13509","","stimuli/long/c-la.mp3","9","","",""
"","8554.239999997662","audio-button-response","19","206996","0.0-11.0-0.8","13509","","stimuli/long/c-le.mp3","8","","",""
"","8553.91999999847","audio-button-response","20","215552","0.0-11.0-0.9","13509","","stimuli/long/e-le.mp3","8","","",""
"","10431.03500000143","audio-button-response","21","225985","0.0-11.0-0.10","13509","","stimuli/long/e-me.mp3","3","","",""
"","9274.670000006154","audio-button-response","22","235262","0.0-11.0-0.11","13509","","stimuli/long/a-mi.mp3","4","","",""
"","13063.809999999648","audio-button-response","23","248327","0.0-11.0-0.12","13509","","stimuli/long/a-me.mp3","3","","",""
"","8284.315000004426","audio-button-response","24","256612","0.0-11.0-0.13","13509","","stimuli/long/a-ra.mp3","1","","",""
"","9265.545000002021","audio-button-response","25","265880","0.0-11.0-0.14","13509","","stimuli/long/c-me.mp3","3","","",""
"","8467.980000001262","audio-button-response","26","274349","0.0-11.0-0.15","13509","","stimuli/long/c-ra.mp3","8","","",""
"","8748.429999999644","audio-button-response","27","283098","0.0-11.0-0.16","13509","","stimuli/long/a-sol.mp3","7","","",""
"","8020.609999999579","audio-button-response","28","291120","0.0-11.0-0.17","13509","","stimuli/long/a-ti.mp3","11","","",""
"","7856.229999997595","audio-button-response","29","298977","0.0-11.0-0.18","13509","","stimuli/long/c-re.mp3","2","","",""
"","7536.414999995031","audio-button-response","30","306515","0.0-11.0-0.19","13509","","stimuli/long/e-re.mp3","2","","",""
"","7672.55500000465","audio-button-response","31","314189","0.0-11.0-0.20","13509","","stimuli/long/c-sol.mp3","7","","",""
"","7719.100000002072","audio-button-response","32","321909","0.0-11.0-0.21","13509","","stimuli/long/e-ti.mp3","11","","",""
"","7627.739999996265","audio-button-response","33","329539","0.0-11.0-0.22","13509","","stimuli/long/a-fa.mp3","5","","",""
"","7817.150000002584","audio-button-response","34","337357","0.0-11.0-0.23","13509","","stimuli/long/c-do.mp3","0","","",""
"","7852.615000003425","audio-button-response","35","345210","0.0-11.0-0.24","13509","","stimuli/long/a-la.mp3","9","","",""
"","11445.255000006","audio-button-response","36","356657","0.0-11.0-0.25","13509","","stimuli/long/e-fa.mp3","7","","",""
"","7538.215000000491","audio-button-response","37","364196","0.0-11.0-0.26","13509","","stimuli/long/c-ti.mp3","11","","",""
"","7727.160000002186","audio-button-response","38","371925","0.0-11.0-0.27","13509","","stimuli/long/a-re.mp3","2","","",""
"","8636.115000001155","audio-button-response","39","380562","0.0-11.0-0.28","13509","","stimuli/long/e-ra.mp3","8","","",""
"","7593.909999995958","audio-button-response","40","388157","0.0-11.0-0.29","13509","","stimuli/long/a-le.mp3","8","","",""
"","8832.425000000512","audio-button-response","41","396991","0.0-11.0-0.30","13509","","stimuli/long/e-fi.mp3","6","","",""
"","8162.059999995108","audio-button-response","42","405154","0.0-11.0-0.31","13509","","stimuli/long/a-do.mp3","0","","",""
"","9376.915000000736","audio-button-response","43","414532","0.0-11.0-0.32","13509","","stimuli/long/c-fi.mp3","6","","",""
"","12541.930000006687","audio-button-response","44","427075","0.0-11.0-0.33","13509","","stimuli/long/c-fa.mp3","5","","",""
"","10235.70500000642","audio-button-response","45","437312","0.0-11.0-0.34","13509","","stimuli/long/a-te.mp3","10","","",""
"","8328.7049999999","audio-button-response","46","445642","0.0-11.0-0.35","13509","","stimuli/long/a-fi.mp3","6","","",""
"","8329.460000000836","audio-button-response","47","453973","0.0-11.0-0.36","13509","","stimuli/long/e-do8.mp3","12","","",""
"","8525.754999995115","audio-button-response","48","462500","0.0-11.0-0.37","13509","","stimuli/long/e-la.mp3","9","","",""
"[{""page_index"":0,""viewing_time"":51329.08999999933},{""page_index"":1,""viewing_time"":2364.3250000022817}]","53693.87499999715","instructions","49","516191","0.0-12.0","13509","","","","","",""
"","null","audio-keyboard-response","50","525754","0.0-13.0-0.0","13509","","new_stimuli/mp3/melody_v7_v3_buffer.mp3","","null","",""
"","2692.889999998384","html-button-response","51","528448","0.0-13.0-1.0","13509","","<p>Which tone was played first after the cadence?</p><p>Please respond as quickly and as accurately as possible!</p>","11","","1","new_stimuli/mp3/melody_v7_v3_buffer.mp3"
"","1545.81500000495","html-button-response","52","529995","0.0-13.0-2.0","13509","","<p>Which tone was played second after the cadence?</p><p>Please respond as quickly and as accurately as possible!</p>","4","","2","new_stimuli/mp3/melody_v7_v3_buffer.mp3"
"","null","audio-keyboard-response","53","539168","0.0-13.0-0.1","13509","","new_stimuli/mp3/melody_^2_v7-_.mp3","","null","",""
"","2837.9899999999907","html-button-response","54","542008","0.0-13.0-1.1","13509","","<p>Which tone was played first after the cadence?</p><p>Please respond as quickly and as accurately as possible!</p>","2","","1","new_stimuli/mp3/melody_^2_v7-_.mp3"
"","1646.144999998738","html-button-response","55","543656","0.0-13.0-2.1","13509","","<p>Which tone was played second after the cadence?</p><p>Please respond as quickly and as accurately as possible!</p>","10","","2","new_stimuli/mp3/melody_^2_v7-_.mp3"
"","null","audio-keyboard-response","56","552849","0.0-13.0-0.2","13509","","new_stimuli/mp3/melody_v3_v2_buffer.mp3","","null","",""
"","1473.9399999962188","html-button-response","57","554325","0.0-13.0-1.2","13509","","<p>Which tone was played first after the cadence?</p><p>Please respond as quickly and as accurately as possible!</p>","4","","1","new_stimuli/mp3/melody_v3_v2_buffer.mp3"
"","853.0350000000326","html-button-response","58","555180","0.0-13.0-2.2","13509","","<p>Which tone was played second after the cadence?</p><p>Please respond as quickly and as accurately as possible!</p>","2","","2","new_stimuli/mp3/melody_v3_v2_buffer.mp3"
"","null","audio-keyboard-response","59","564244","0.0-13.0-0.3","13509","","new_stimuli/mp3/melody_v2_v1_.mp3","","null","",""
"","1433.1900000034366","html-button-response","60","565679","0.0-13.0-1.3","13509","","<p>Which tone was played first after the cadence?</p><p>Please respond as quickly and as accurately as possible!</p>","2","","1","new_stimuli/mp3/melody_v2_v1_.mp3"
"","936.1750000024913","html-button-response","61","566616","0.0-13.0-2.3","13509","","<p>Which tone was played second after the cadence?</p><p>Please respond as quickly and as accurately as possible!</p>","0","","2","new_stimuli/mp3/melody_v2_v1_.mp3"
"","null","audio-keyboard-response","62","576068","0.0-13.0-0.4","13509","","new_stimuli/mp3/melody_^3_v4+_buffer.mp3","","null","",""
"","895.5849999984493","html-button-response","63","576965","0.0-13.0-1.4","13509","","<p>Which tone was played first after the cadence?</p><p>Please respond as quickly and as accurately as possible!</p>","4","","1","new_stimuli/mp3/melody_^3_v4+_buffer.mp3"
"","835.0449999996927","html-button-response","64","577802","0.0-13.0-2.4","13509","","<p>Which tone was played second after the cadence?</p><p>Please respond as quickly and as accurately as possible!</p>","6","","2","new_stimuli/mp3/melody_^3_v4+_buffer.mp3"
"","null","audio-keyboard-response","65","586969","0.0-13.0-0.5","13509","","new_stimuli/mp3/melody_v5_v1+_.mp3","","null","",""
"","1665.1950000014622","html-button-response","66","588636","0.0-13.0-1.5","13509","","<p>Which tone was played first after the cadence?</p><p>Please respond as quickly and as accurately as possible!</p>","7","","1","new_stimuli/mp3/melody_v5_v1+_.mp3"
"","1179.380000001518","html-button-response","67","589816","0.0-13.0-2.5","13509","","<p>Which tone was played second after the cadence?</p><p>Please respond as quickly and as accurately as possible!</p>","1","","2","new_stimuli/mp3/melody_v5_v1+_.mp3"
"","null","audio-keyboard-response","68","598984","0.0-13.0-0.6","13509","","new_stimuli/mp3/melody_^5_^1+_.mp3","","null","",""
"","2017.339999998454","html-button-response","69","601003","0.0-13.0-1.6","13509","","<p>Which tone was played first after the cadence?</p><p>Please respond as quickly and as accurately as possible!</p>","7","","1","new_stimuli/mp3/melody_^5_^1+_.mp3"
"","1981.549999996787","html-button-response","70","602986","0.0-13.0-2.6","13509","","<p>Which tone was played second after the cadence?</p><p>Please respond as quickly and as accurately as possible!</p>","1","","2","new_stimuli/mp3/melody_^5_^1+_.mp3"
"","null","audio-keyboard-response","71","612283","0.0-13.0-0.7","13509","","new_stimuli/mp3/melody_3_^6_buffer.mp3","","null","",""
"","1187.145000003511","html-button-response","72","613472","0.0-13.0-1.7","13509","","<p>Which tone was played first after the cadence?</p><p>Please respond as quickly and as accurately as possible!</p>","4","","1","new_stimuli/mp3/melody_3_^6_buffer.mp3"
"","999.5699999998324","html-button-response","73","614473","0.0-13.0-2.7","13509","","<p>Which tone was played second after the cadence?</p><p>Please respond as quickly and as accurately as possible!</p>","9","","2","new_stimuli/mp3/melody_3_^6_buffer.mp3"
"","null","audio-keyboard-response","74","623904","0.0-13.0-0.8","13509","","new_stimuli/mp3/melody_v4_v3_buffer.mp3","","null","",""
"","1113.9299999995856","html-button-response","75","625019","0.0-13.0-1.8","13509","","<p>Which tone was played first after the cadence?</p><p>Please respond as quickly and as accurately as possible!</p>","5","","1","new_stimuli/mp3/melody_v4_v3_buffer.mp3"
"","672.7049999971641","html-button-response","76","625693","0.0-13.0-2.8","13509","","<p>Which tone was played second after the cadence?</p><p>Please respond as quickly and as accurately as possible!</p>","4","","2","new_stimuli/mp3/melody_v4_v3_buffer.mp3"
"","null","audio-keyboard-response","77","634706","0.0-13.0-0.9","13509","","new_stimuli/mp3/melody_^1_^2+_.mp3","","null","",""
"","1017.0550000038929","html-button-response","78","635725","0.0-13.0-1.9","13509","","<p>Which tone was played first after the cadence?</p><p>Please respond as quickly and as accurately as possible!</p>","0","","1","new_stimuli/mp3/melody_^1_^2+_.mp3"
"","862.7699999996694","html-button-response","79","636590","0.0-13.0-2.9","13509","","<p>Which tone was played second after the cadence?</p><p>Please respond as quickly and as accurately as possible!</p>","3","","2","new_stimuli/mp3/melody_^1_^2+_.mp3"
"[{""page_index"":0,""viewing_time"":25741.314999999362},{""page_index"":1,""viewing_time"":10771.5349999998},{""page_index"":2,""viewing_time"":5371.444999997038}]","41884.579999998095","instructions","80","678473","0.0-14.0","13509","","","","","",""
"","null","audio-keyboard-response","81","688157","0.0-15.0-0.0","13509","","new_stimuli/mp3/melody_v1_v7-_7-_buffer.mp3","","null","",""
"","1638.810000004014","html-button-response","82","689798","0.0-15.0-1.0","13509","","<p>Which tone was played first after the cadence?</p><p>Please respond as quickly and as accurately as possible!</p>","12","","1","new_stimuli/mp3/melody_v1_v7-_7-_buffer.mp3"
"","953.7349999955622","html-button-response","83","690753","0.0-15.0-2.0","13509","","<p>Which tone was played second after the cadence?</p><p>Please respond as quickly and as accurately as possible!</p>","10","","2","new_stimuli/mp3/melody_v1_v7-_7-_buffer.mp3"
"","679.0449999971315","html-button-response","84","691433","0.0-15.0-3.0","13509","","<p>Which tone was played third after the cadence?</p><p>Please respond as quickly and as accurately as possible!</p>","10","","3","new_stimuli/mp3/melody_v1_v7-_7-_buffer.mp3"
"","null","audio-keyboard-response","85","701334","0.0-15.0-0.1","13509","","new_stimuli/mp3/melody_^1_v6_v5+_.mp3","","null","",""
"","1171.1149999973131","html-button-response","86","702507","0.0-15.0-1.1","13509","","<p>Which tone was played first after the cadence?</p><p>Please respond as quickly and as accurately as possible!</p>","12","","1","new_stimuli/mp3/melody_^1_v6_v5+_.mp3"
"","991.3949999973411","html-button-response","87","703501","0.0-15.0-2.1","13509","","<p>Which tone was played second after the cadence?</p><p>Please respond as quickly and as accurately as possible!</p>","9","","2","new_stimuli/mp3/melody_^1_v6_v5+_.mp3"
"","784.1799999951618","html-button-response","88","704286","0.0-15.0-3.1","13509","","<p>Which tone was played third after the cadence?</p><p>Please respond as quickly and as accurately as possible!</p>","8","","3","new_stimuli/mp3/melody_^1_v6_v5+_.mp3"
"","null","audio-keyboard-response","89","713976","0.0-15.0-0.2","13509","","new_stimuli/mp3/melody_v4_v3_v2_buffer.mp3","","null","",""
"","1294.7550000025658","html-button-response","90","715273","0.0-15.0-1.2","13509","","<p>Which tone was played first after the cadence?</p><p>Please respond as quickly and as accurately as possible!</p>","5","","1","new_stimuli/mp3/melody_v4_v3_v2_buffer.mp3"
"","822.4950000003446","html-button-response","91","716097","0.0-15.0-2.2","13509","","<p>Which tone was played second after the cadence?</p><p>Please respond as quickly and as accurately as possible!</p>","4","","2","new_stimuli/mp3/melody_v4_v3_v2_buffer.mp3"
"","969.0550000014482","html-button-response","92","717068","0.0-15.0-3.2","13509","","<p>Which tone was played third after the cadence?</p><p>Please respond as quickly and as accurately as possible!</p>","2","","3","new_stimuli/mp3/melody_v4_v3_v2_buffer.mp3"
"","null","audio-keyboard-response","93","727043","0.0-15.0-0.3","13509","","new_stimuli/mp3/melody_v2_v5_^3_buffer.mp3","","null","",""
"","1388.85000000312","html-button-response","94","728434","0.0-15.0-1.3","13509","","<p>Which tone was played first after the cadence?</p><p>Please respond as quickly and as accurately as possible!</p>","2","","1","new_stimuli/mp3/melody_v2_v5_^3_buffer.mp3"
"","1153.5199999997858","html-button-response","95","729589","0.0-15.0-2.3","13509","","<p>Which tone was played second after the cadence?</p><p>Please respond as quickly and as accurately as possible!</p>","7","","2","new_stimuli/mp3/melody_v2_v5_^3_buffer.mp3"
"","936.4999999961583","html-button-response","96","730527","0.0-15.0-3.3","13509","","<p>Which tone was played third after the cadence?</p><p>Please respond as quickly and as accurately as possible!</p>","4","","3","new_stimuli/mp3/melody_v2_v5_^3_buffer.mp3"
"","null","audio-keyboard-response","97","740086","0.0-15.0-0.4","13509","","new_stimuli/mp3/melody_v1_v7-_^7_.mp3","","null","",""
"","1493.614999999525","html-button-response","98","741581","0.0-15.0-1.4","13509","","<p>Which tone was played first after the cadence?</p><p>Please respond as quickly and as accurately as possible!</p>","5","","1","new_stimuli/mp3/melody_v1_v7-_^7_.mp3"
"","800.7399999987101","html-button-response","99","742383","0.0-15.0-2.4","13509","","<p>Which tone was played second after the cadence?</p><p>Please respond as quickly and as accurately as possible!</p>","3","","2","new_stimuli/mp3/melody_v1_v7-_^7_.mp3"
"","936.119999998482","html-button-response","100","743320","0.0-15.0-3.4","13509","","<p>Which tone was played third after the cadence?</p><p>Please respond as quickly and as accurately as possible!</p>","4","","3","new_stimuli/mp3/melody_v1_v7-_^7_.mp3"
"","null","audio-keyboard-response","101","753274","0.0-15.0-0.5","13509","","new_stimuli/mp3/melody_v5_v4_v3_buffer.mp3","","null","",""
"","1073.1749999977183","html-button-response","102","754349","0.0-15.0-1.5","13509","","<p>Which tone was played first after the cadence?</p><p>Please respond as quickly and as accurately as possible!</p>","7","","1","new_stimuli/mp3/melody_v5_v4_v3_buffer.mp3"
"","864.0150000064168","html-button-response","103","755214","0.0-15.0-2.5","13509","","<p>Which tone was played second after the cadence?</p><p>Please respond as quickly and as accurately as possible!</p>","5","","2","new_stimuli/mp3/melody_v5_v4_v3_buffer.mp3"
"","616.4450000069337","html-button-response","104","755833","0.0-15.0-3.5","13509","","<p>Which tone was played third after the cadence?</p><p>Please respond as quickly and as accurately as possible!</p>","4","","3","new_stimuli/mp3/melody_v5_v4_v3_buffer.mp3"
"","null","audio-keyboard-response","105","765394","0.0-15.0-0.6","13509","","new_stimuli/mp3/melody_v3_v2_v1_.mp3","","null","",""
"","1451.764999998035","html-button-response","106","766847","0.0-15.0-1.6","13509","","<p>Which tone was played first after the cadence?</p><p>Please respond as quickly and as accurately as possible!</p>","4","","1","new_stimuli/mp3/melody_v3_v2_v1_.mp3"
"","808.0600000030827","html-button-response","107","767657","0.0-15.0-2.6","13509","","<p>Which tone was played second after the cadence?</p><p>Please respond as quickly and as accurately as possible!</p>","2","","2","new_stimuli/mp3/melody_v3_v2_v1_.mp3"
"","764.0249999968801","html-button-response","108","768423","0.0-15.0-3.6","13509","","<p>Which tone was played third after the cadence?</p><p>Please respond as quickly and as accurately as possible!</p>","0","","3","new_stimuli/mp3/melody_v3_v2_v1_.mp3"
"","null","audio-keyboard-response","109","777926","0.0-15.0-0.7","13509","","new_stimuli/mp3/melody_1_v1+_^2_.mp3","","null","",""
"","932.6050000017276","html-button-response","110","778860","0.0-15.0-1.7","13509","","<p>Which tone was played first after the cadence?</p><p>Please respond as quickly and as accurately as possible!</p>","0","","1","new_stimuli/mp3/melody_1_v1+_^2_.mp3"
"","649.6199999965029","html-button-response","111","779511","0.0-15.0-2.7","13509","","<p>Which tone was played second after the cadence?</p><p>Please respond as quickly and as accurately as possible!</p>","1","","2","new_stimuli/mp3/melody_1_v1+_^2_.mp3"
"","726.5750000005355","html-button-response","112","780239","0.0-15.0-3.7","13509","","<p>Which tone was played third after the cadence?</p><p>Please respond as quickly and as accurately as possible!</p>","2","","3","new_stimuli/mp3/melody_1_v1+_^2_.mp3"
"","null","audio-keyboard-response","113","789878","0.0-15.0-0.8","13509","","new_stimuli/mp3/melody_6_^1_v5_.mp3","","null","",""
"","1464.8349999987986","html-button-response","114","791344","0.0-15.0-1.8","13509","","<p>Which tone was played first after the cadence?</p><p>Please respond as quickly and as accurately as possible!</p>","9","","1","new_stimuli/mp3/melody_6_^1_v5_.mp3"
"","1041.3200000040233","html-button-response","115","792387","0.0-15.0-2.8","13509","","<p>Which tone was played second after the cadence?</p><p>Please respond as quickly and as accurately as possible!</p>","12","","2","new_stimuli/mp3/melody_6_^1_v5_.mp3"
"","1093.0200000002515","html-button-response","116","793481","0.0-15.0-3.8","13509","","<p>Which tone was played third after the cadence?</p><p>Please respond as quickly and as accurately as possible!</p>","7","","3","new_stimuli/mp3/melody_6_^1_v5_.mp3"
"[{""page_index"":0,""viewing_time"":2740.1249999967404},{""page_index"":1,""viewing_time"":15109.824999999488},{""page_index"":2,""viewing_time"":1491.2350000012666}]","19341.444999998203","instructions","117","812822","0.0-16.0","13509","","","","","",""
"","null","audio-keyboard-response","118","823765","0.0-17.0-0.0","13509","","new_stimuli/mp3/melody_v5-_v3_3_^4+_v3_.mp3","","null","",""
"","1793.6050000062678","html-button-response","119","825561","0.0-17.0-1.0","13509","","<p>Which tone was played first after the cadence?</p><p>Please respond as quickly and as accurately as possible!</p>","6","","1","new_stimuli/mp3/melody_v5-_v3_3_^4+_v3_.mp3"
"","975.4800000010291","html-button-response","120","826537","0.0-17.0-2.0","13509","","<p>Which tone was played second after the cadence?</p><p>Please respond as quickly and as accurately as possible!</p>","4","","2","new_stimuli/mp3/melody_v5-_v3_3_^4+_v3_.mp3"
"","503.9200000029523","html-button-response","121","827042","0.0-17.0-3.0","13509","","<p>Which tone was played third after the cadence?</p><p>Please respond as quickly and as accurately as possible!</p>","4","","3","new_stimuli/mp3/melody_v5-_v3_3_^4+_v3_.mp3"
"","1926.2549999984913","html-button-response","122","828970","0.0-17.0-4.0","13509","","<p>Which tone was played fourth after the cadence?</p><p>Please respond as quickly and as accurately as possible!</p>","6","","4","new_stimuli/mp3/melody_v5-_v3_3_^4+_v3_.mp3"
"","888.8349999979837","html-button-response","123","829860","0.0-17.0-5.0","13509","","<p>Which tone was played fifth after the cadence?</p><p>Please respond as quickly and as accurately as possible!</p>","4","","5","new_stimuli/mp3/melody_v5-_v3_3_^4+_v3_.mp3"
"","null","audio-keyboard-response","124","840494","0.0-17.0-0.1","13509","","new_stimuli/mp3/melody_v5_^6+_^7_^1_5_.mp3","","null","",""
"","1183.714999999269","html-button-response","125","841680","0.0-17.0-1.1","13509","","<p>Which tone was played first after the cadence?</p><p>Please respond as quickly and as accurately as possible!</p>","7","","1","new_stimuli/mp3/melody_v5_^6+_^7_^1_5_.mp3"
"","846.050000000163","html-button-response","126","842527","0.0-17.0-2.1","13509","","<p>Which tone was played second after the cadence?</p><p>Please respond as quickly and as accurately as possible!</p>","9","","2","new_stimuli/mp3/melody_v5_^6+_^7_^1_5_.mp3"
"","974.6599999997998","html-button-response","127","843503","0.0-17.0-3.1","13509","","<p>Which tone was played third after the cadence?</p><p>Please respond as quickly and as accurately as possible!</p>","11","","3","new_stimuli/mp3/melody_v5_^6+_^7_^1_5_.mp3"
"","836.2899999993388","html-button-response","128","844340","0.0-17.0-4.1","13509","","<p>Which tone was played fourth after the cadence?</p><p>Please respond as quickly and as accurately as possible!</p>","12","","4","new_stimuli/mp3/melody_v5_^6+_^7_^1_5_.mp3"
"","1276.505000001751","html-button-response","129","845618","0.0-17.0-5.1","13509","","<p>Which tone was played fifth after the cadence?</p><p>Please respond as quickly and as accurately as possible!</p>","7","","5","new_stimuli/mp3/melody_v5_^6+_^7_^1_5_.mp3"
"","null","audio-keyboard-response","130","856248","0.0-17.0-0.2","13509","","new_stimuli/mp3/melody_^6_v4_v3_^4_^5_.mp3","","null","",""
"","1333.8000000003958","html-button-response","131","857584","0.0-17.0-1.2","13509","","<p>Which tone was played first after the cadence?</p><p>Please respond as quickly and as accurately as possible!</p>","9","","1","new_stimuli/mp3/melody_^6_v4_v3_^4_^5_.mp3"
"","1112.759999996284","html-button-response","132","858698","0.0-17.0-2.2","13509","","<p>Which tone was played second after the cadence?</p><p>Please respond as quickly and as accurately as possible!</p>","5","","2","new_stimuli/mp3/melody_^6_v4_v3_^4_^5_.mp3"
"","743.0349999994505","html-button-response","133","859442","0.0-17.0-3.2","13509","","<p>Which tone was played third after the cadence?</p><p>Please respond as quickly and as accurately as possible!</p>","4","","3","new_stimuli/mp3/melody_^6_v4_v3_^4_^5_.mp3"
"","820.410000000149","html-button-response","134","860264","0.0-17.0-4.2","13509","","<p>Which tone was played fourth after the cadence?</p><p>Please respond as quickly and as accurately as possible!</p>","5","","4","new_stimuli/mp3/melody_^6_v4_v3_^4_^5_.mp3"
"","1016.7849999997998","html-button-response","135","861282","0.0-17.0-5.2","13509","","<p>Which tone was played fifth after the cadence?</p><p>Please respond as quickly and as accurately as possible!</p>","7","","5","new_stimuli/mp3/melody_^6_v4_v3_^4_^5_.mp3"
"","null","audio-keyboard-response","136","871863","0.0-17.0-0.3","13509","","new_stimuli/mp3/melody_v5_v4_v3_v2_v1 _buffer.mp3","","null","",""
"","1445.8599999998696","html-button-response","137","873310","0.0-17.0-1.3","13509","","<p>Which tone was played first after the cadence?</p><p>Please respond as quickly and as accurately as possible!</p>","7","","1","new_stimuli/mp3/melody_v5_v4_v3_v2_v1 _buffer.mp3"
"","937.2700000021141","html-button-response","138","874248","0.0-17.0-2.3","13509","","<p>Which tone was played second after the cadence?</p><p>Please respond as quickly and as accurately as possible!</p>","5","","2","new_stimuli/mp3/melody_v5_v4_v3_v2_v1 _buffer.mp3"
"","768.5649999984307","html-button-response","139","875018","0.0-17.0-3.3","13509","","<p>Which tone was played third after the cadence?</p><p>Please respond as quickly and as accurately as possible!</p>","4","","3","new_stimuli/mp3/melody_v5_v4_v3_v2_v1 _buffer.mp3"
"","751.300000003539","html-button-response","140","875771","0.0-17.0-4.3","13509","","<p>Which tone was played fourth after the cadence?</p><p>Please respond as quickly and as accurately as possible!</p>","2","","4","new_stimuli/mp3/melody_v5_v4_v3_v2_v1 _buffer.mp3"
"","900.4899999999907","html-button-response","141","876672","0.0-17.0-5.3","13509","","<p>Which tone was played fifth after the cadence?</p><p>Please respond as quickly and as accurately as possible!</p>","0","","5","new_stimuli/mp3/melody_v5_v4_v3_v2_v1 _buffer.mp3"
"","null","audio-keyboard-response","142","887342","0.0-17.0-0.4","13509","","new_stimuli/mp3/melody_v2_2_^3_^4_v2_.mp3","","null","",""
"","1455.3699999960372","html-button-response","143","888800","0.0-17.0-1.4","13509","","<p>Which tone was played first after the cadence?</p><p>Please respond as quickly and as accurately as possible!</p>","2","","1","new_stimuli/mp3/melody_v2_2_^3_^4_v2_.mp3"
"","481.9749999950873","html-button-response","144","889283","0.0-17.0-2.4","13509","","<p>Which tone was played second after the cadence?</p><p>Please respond as quickly and as accurately as possible!</p>","2","","2","new_stimuli/mp3/melody_v2_2_^3_^4_v2_.mp3"
"","912.9550000070594","html-button-response","145","890198","0.0-17.0-3.4","13509","","<p>Which tone was played third after the cadence?</p><p>Please respond as quickly and as accurately as possible!</p>","4","","3","new_stimuli/mp3/melody_v2_2_^3_^4_v2_.mp3"
"","936.2049999980954","html-button-response","146","891136","0.0-17.0-4.4","13509","","<p>Which tone was played fourth after the cadence?</p><p>Please respond as quickly and as accurately as possible!</p>","5","","4","new_stimuli/mp3/melody_v2_2_^3_^4_v2_.mp3"
"","1229.1150000018533","html-button-response","147","892366","0.0-17.0-5.4","13509","","<p>Which tone was played fifth after the cadence?</p><p>Please respond as quickly and as accurately as possible!</p>","2","","5","new_stimuli/mp3/melody_v2_2_^3_^4_v2_.mp3"
"","null","audio-keyboard-response","148","902946","0.0-17.0-0.5","13509","","new_stimuli/mp3/melody_v5_v4_v3_v2_v1_.mp3","","null","",""
"","1571.5799999961164","html-button-response","149","904520","0.0-17.0-1.5","13509","","<p>Which tone was played first after the cadence?</p><p>Please respond as quickly and as accurately as possible!</p>","7","","1","new_stimuli/mp3/melody_v5_v4_v3_v2_v1_.mp3"
"","807.5000000025611","html-button-response","150","905329","0.0-17.0-2.5","13509","","<p>Which tone was played second after the cadence?</p><p>Please respond as quickly and as accurately as possible!</p>","5","","2","new_stimuli/mp3/melody_v5_v4_v3_v2_v1_.mp3"
"","754.2350000003353","html-button-response","151","906086","0.0-17.0-3.5","13509","","<p>Which tone was played third after the cadence?</p><p>Please respond as quickly and as accurately as possible!</p>","4","","3","new_stimuli/mp3/melody_v5_v4_v3_v2_v1_.mp3"
"","1057.6399999990826","html-button-response","152","907145","0.0-17.0-4.5","13509","","<p>Which tone was played fourth after the cadence?</p><p>Please respond as quickly and as accurately as possible!</p>","2","","4","new_stimuli/mp3/melody_v5_v4_v3_v2_v1_.mp3"
"","1081.1099999991711","html-button-response","153","908227","0.0-17.0-5.5","13509","","<p>Which tone was played fifth after the cadence?</p><p>Please respond as quickly and as accurately as possible!</p>","0","","5","new_stimuli/mp3/melody_v5_v4_v3_v2_v1_.mp3"
"","null","audio-keyboard-response","154","918934","0.0-17.0-0.6","13509","","new_stimuli/mp3/melody_^6_v5_v4_v3_v2_buffer.mp3","","null","",""
"","1443.630000001518","html-button-response","155","920379","0.0-17.0-1.6","13509","","<p>Which tone was played first after the cadence?</p><p>Please respond as quickly and as accurately as possible!</p>","9","","1","new_stimuli/mp3/melody_^6_v5_v4_v3_v2_buffer.mp3"
"","795.1299999984913","html-button-response","156","921175","0.0-17.0-2.6","13509","","<p>Which tone was played second after the cadence?</p><p>Please respond as quickly and as accurately as possible!</p>","7","","2","new_stimuli/mp3/melody_^6_v5_v4_v3_v2_buffer.mp3"
"","884.0249999994412","html-button-response","157","922061","0.0-17.0-3.6","13509","","<p>Which tone was played third after the cadence?</p><p>Please respond as quickly and as accurately as possible!</p>","5","","3","new_stimuli/mp3/melody_^6_v5_v4_v3_v2_buffer.mp3"
"","685.9949999997625","html-button-response","158","922748","0.0-17.0-4.6","13509","","<p>Which tone was played fourth after the cadence?</p><p>Please respond as quickly and as accurately as possible!</p>","4","","4","new_stimuli/mp3/melody_^6_v5_v4_v3_v2_buffer.mp3"
"","1137.3400000011316","html-button-response","159","923886","0.0-17.0-5.6","13509","","<p>Which tone was played fifth after the cadence?</p><p>Please respond as quickly and as accurately as possible!</p>","2","","5","new_stimuli/mp3/melody_^6_v5_v4_v3_v2_buffer.mp3"
"","null","audio-keyboard-response","160","934834","0.0-17.0-0.7","13509","","new_stimuli/mp3/melody_^5_^6_v5_v4_v3_buffer.mp3","","null","",""
"","1136.6800000033109","html-button-response","161","935972","0.0-17.0-1.7","13509","","<p>Which tone was played first after the cadence?</p><p>Please respond as quickly and as accurately as possible!</p>","7","","1","new_stimuli/mp3/melody_^5_^6_v5_v4_v3_buffer.mp3"
"","1040.8999999999069","html-button-response","162","937014","0.0-17.0-2.7","13509","","<p>Which tone was played second after the cadence?</p><p>Please respond as quickly and as accurately as possible!</p>","9","","2","new_stimuli/mp3/melody_^5_^6_v5_v4_v3_buffer.mp3"
"","983.2750000059605","html-button-response","163","938000","0.0-17.0-3.7","13509","","<p>Which tone was played third after the cadence?</p><p>Please respond as quickly and as accurately as possible!</p>","7","","3","new_stimuli/mp3/melody_^5_^6_v5_v4_v3_buffer.mp3"
"","828.5800000012387","html-button-response","164","938829","0.0-17.0-4.7","13509","","<p>Which tone was played fourth after the cadence?</p><p>Please respond as quickly and as accurately as possible!</p>","5","","4","new_stimuli/mp3/melody_^5_^6_v5_v4_v3_buffer.mp3"
"","794.4350000035483","html-button-response","165","939625","0.0-17.0-5.7","13509","","<p>Which tone was played fifth after the cadence?</p><p>Please respond as quickly and as accurately as possible!</p>","4","","5","new_stimuli/mp3/melody_^5_^6_v5_v4_v3_buffer.mp3"
"[{""page_index"":0,""viewing_time"":1488.1149999999907},{""page_index"":1,""viewing_time"":1406.6549999988638},{""page_index"":2,""viewing_time"":1138.1949999995995}]","4033.1999999979744","instructions","166","943659","0.0-18.0","13509","","","","","",""
"","null","audio-keyboard-response","167","955338","0.0-19.0-0.0","13509","","new_stimuli/mp3/melody_^4_v6-_v5-_^6-_^4_v2-_2-_.mp3","","null","",""
"","1822.455000001355","html-button-response","168","957162","0.0-19.0-1.0","13509","","<p>Which tone was played first after the cadence?</p><p>Please respond as quickly and as accurately as possible!</p>","5","","1","new_stimuli/mp3/melody_^4_v6-_v5-_^6-_^4_v2-_2-_.mp3"
"","1790.2499999981374","html-button-response","169","958954","0.0-19.0-2.0","13509","","<p>Which tone was played second after the cadence?</p><p>Please respond as quickly and as accurately as possible!</p>","8","","2","new_stimuli/mp3/melody_^4_v6-_v5-_^6-_^4_v2-_2-_.mp3"
"","799.6599999970058","html-button-response","170","959755","0.0-19.0-3.0","13509","","<p>Which tone was played third after the cadence?</p><p>Please respond as quickly and as accurately as possible!</p>","6","","3","new_stimuli/mp3/melody_^4_v6-_v5-_^6-_^4_v2-_2-_.mp3"
"","760.3499999968335","html-button-response","171","960517","0.0-19.0-4.0","13509","","<p>Which tone was played fourth after the cadence?</p><p>Please respond as quickly and as accurately as possible!</p>","8","","4","new_stimuli/mp3/melody_^4_v6-_v5-_^6-_^4_v2-_2-_.mp3"
"","881.9100000036415","html-button-response","172","961400","0.0-19.0-5.0","13509","","<p>Which tone was played fifth after the cadence?</p><p>Please respond as quickly and as accurately as possible!</p>","5","","5","new_stimuli/mp3/melody_^4_v6-_v5-_^6-_^4_v2-_2-_.mp3"
"","910.2600000042003","html-button-response","173","962311","0.0-19.0-6.0","13509","","<p>Which tone was played sixth after the cadence?</p><p>Please respond as quickly and as accurately as possible!</p>","2","","6","new_stimuli/mp3/melody_^4_v6-_v5-_^6-_^4_v2-_2-_.mp3"
"","479.769999998156","html-button-response","174","962792","0.0-19.0-7.0","13509","","<p>Which tone was played seventh after the cadence?</p><p>Please respond as quickly and as accurately as possible!</p>","2","","7","new_stimuli/mp3/melody_^4_v6-_v5-_^6-_^4_v2-_2-_.mp3"
"","null","audio-keyboard-response","175","974443","0.0-19.0-0.1","13509","","new_stimuli/mp3/melody_^6_v5+_v4_^5+_v3_v1_v7-_.mp3","","null","",""
"","7972.0699999962235","html-button-response","176","982417","0.0-19.0-1.1","13509","","<p>Which tone was played first after the cadence?</p><p>Please respond as quickly and as accurately as possible!</p>","7","","1","new_stimuli/mp3/melody_^6_v5+_v4_^5+_v3_v1_v7-_.mp3"
"","952.0199999969918","html-button-response","177","983371","0.0-19.0-2.1","13509","","<p>Which tone was played second after the cadence?</p><p>Please respond as quickly and as accurately as possible!</p>","4","","2","new_stimuli/mp3/melody_^6_v5+_v4_^5+_v3_v1_v7-_.mp3"
"","622.8100000007544","html-button-response","178","983995","0.0-19.0-3.1","13509","","<p>Which tone was played third after the cadence?</p><p>Please respond as quickly and as accurately as possible!</p>","3","","3","new_stimuli/mp3/melody_^6_v5+_v4_^5+_v3_v1_v7-_.mp3"
"","643.7599999989616","html-button-response","179","984640","0.0-19.0-4.1","13509","","<p>Which tone was played fourth after the cadence?</p><p>Please respond as quickly and as accurately as possible!</p>","4","","4","new_stimuli/mp3/melody_^6_v5+_v4_^5+_v3_v1_v7-_.mp3"
"","1770.3050000055227","html-button-response","180","986411","0.0-19.0-5.1","13509","","<p>Which tone was played fifth after the cadence?</p><p>Please respond as quickly and as accurately as possible!</p>","1","","5","new_stimuli/mp3/melody_^6_v5+_v4_^5+_v3_v1_v7-_.mp3"
"","2510.985000000801","html-button-response","181","988926","0.0-19.0-6.1","13509","","<p>Which tone was played sixth after the cadence?</p><p>Please respond as quickly and as accurately as possible!</p>","10","","6","new_stimuli/mp3/melody_^6_v5+_v4_^5+_v3_v1_v7-_.mp3"
"","1455.4300000017975","html-button-response","182","990384","0.0-19.0-7.1","13509","","<p>Which tone was played seventh after the cadence?</p><p>Please respond as quickly and as accurately as possible!</p>","8","","7","new_stimuli/mp3/melody_^6_v5+_v4_^5+_v3_v1_v7-_.mp3"
"","null","audio-keyboard-response","183","1001959","0.0-19.0-0.2","13509","","new_stimuli/mp3/melody_^5_^6_v5_v4_v3_v2_v1_buffer.mp3","","null","",""
"","1262.210000000894","html-button-response","184","1003223","0.0-19.0-1.2","13509","","<p>Which tone was played first after the cadence?</p><p>Please respond as quickly and as accurately as possible!</p>","7","","1","new_stimuli/mp3/melody_^5_^6_v5_v4_v3_v2_v1_buffer.mp3"
"","935.9249999979511","html-button-response","185","1004161","0.0-19.0-2.2","13509","","<p>Which tone was played second after the cadence?</p><p>Please respond as quickly and as accurately as possible!</p>","9","","2","new_stimuli/mp3/melody_^5_^6_v5_v4_v3_v2_v1_buffer.mp3"
"","747.5200000044424","html-button-response","186","1004910","0.0-19.0-3.2","13509","","<p>Which tone was played third after the cadence?</p><p>Please respond as quickly and as accurately as possible!</p>","7","","3","new_stimuli/mp3/melody_^5_^6_v5_v4_v3_v2_v1_buffer.mp3"
"","752.2249999964843","html-button-response","187","1005663","0.0-19.0-4.2","13509","","<p>Which tone was played fourth after the cadence?</p><p>Please respond as quickly and as accurately as possible!</p>","5","","4","new_stimuli/mp3/melody_^5_^6_v5_v4_v3_v2_v1_buffer.mp3"
"","657.1100000001024","html-button-response","188","1006321","0.0-19.0-5.2","13509","","<p>Which tone was played fifth after the cadence?</p><p>Please respond as quickly and as accurately as possible!</p>","4","","5","new_stimuli/mp3/melody_^5_^6_v5_v4_v3_v2_v1_buffer.mp3"
"","784.4200000035344","html-button-response","189","1007107","0.0-19.0-6.2","13509","","<p>Which tone was played sixth after the cadence?</p><p>Please respond as quickly and as accurately as possible!</p>","2","","6","new_stimuli/mp3/melody_^5_^6_v5_v4_v3_v2_v1_buffer.mp3"
"","726.7300000021933","html-button-response","190","1007835","0.0-19.0-7.2","13509","","<p>Which tone was played seventh after the cadence?</p><p>Please respond as quickly and as accurately as possible!</p>","0","","7","new_stimuli/mp3/melody_^5_^6_v5_v4_v3_v2_v1_buffer.mp3"
"","null","audio-keyboard-response","191","1019537","0.0-19.0-0.3","13509","","new_stimuli/mp3/melody_^4_^5_^6_v5_v4_v3_v2_.mp3","","null","",""
"","1607.9400000018068","html-button-response","192","1021147","0.0-19.0-1.3","13509","","<p>Which tone was played first after the cadence?</p><p>Please respond as quickly and as accurately as possible!</p>","5","","1","new_stimuli/mp3/melody_^4_^5_^6_v5_v4_v3_v2_.mp3"
"","850.0750000020489","html-button-response","193","1021998","0.0-19.0-2.3","13509","","<p>Which tone was played second after the cadence?</p><p>Please respond as quickly and as accurately as possible!</p>","7","","2","new_stimuli/mp3/melody_^4_^5_^6_v5_v4_v3_v2_.mp3"
"","1017.2500000044238","html-button-response","194","1023017","0.0-19.0-3.3","13509","","<p>Which tone was played third after the cadence?</p><p>Please respond as quickly and as accurately as possible!</p>","9","","3","new_stimuli/mp3/melody_^4_^5_^6_v5_v4_v3_v2_.mp3"
"","1070.9950000019744","html-button-response","195","1024089","0.0-19.0-4.3","13509","","<p>Which tone was played fourth after the cadence?</p><p>Please respond as quickly and as accurately as possible!</p>","7","","4","new_stimuli/mp3/melody_^4_^5_^6_v5_v4_v3_v2_.mp3"
"","748.1000000042841","html-button-response","196","1024838","0.0-19.0-5.3","13509","","<p>Which tone was played fifth after the cadence?</p><p>Please respond as quickly and as accurately as possible!</p>","5","","5","new_stimuli/mp3/melody_^4_^5_^6_v5_v4_v3_v2_.mp3"
"","639.7950000027195","html-button-response","197","1025479","0.0-19.0-6.3","13509","","<p>Which tone was played sixth after the cadence?</p><p>Please respond as quickly and as accurately as possible!</p>","4","","6","new_stimuli/mp3/melody_^4_^5_^6_v5_v4_v3_v2_.mp3"
"","888.76500000339","html-button-response","198","1026369","0.0-19.0-7.3","13509","","<p>Which tone was played seventh after the cadence?</p><p>Please respond as quickly and as accurately as possible!</p>","2","","7","new_stimuli/mp3/melody_^4_^5_^6_v5_v4_v3_v2_.mp3"
"","null","audio-keyboard-response","199","1038334","0.0-19.0-0.4","13509","","new_stimuli/mp3/melody_1_^3_v1_^5_v3_v2_^3_.mp3","","null","",""
"","1084.2149999954272","html-button-response","200","1039420","0.0-19.0-1.4","13509","","<p>Which tone was played first after the cadence?</p><p>Please respond as quickly and as accurately as possible!</p>","0","","1","new_stimuli/mp3/melody_1_^3_v1_^5_v3_v2_^3_.mp3"
"","1426.5749999976251","html-button-response","201","1040848","0.0-19.0-2.4","13509","","<p>Which tone was played second after the cadence?</p><p>Please respond as quickly and as accurately as possible!</p>","4","","2","new_stimuli/mp3/melody_1_^3_v1_^5_v3_v2_^3_.mp3"
"","955.2899999979418","html-button-response","202","1041804","0.0-19.0-3.4","13509","","<p>Which tone was played third after the cadence?</p><p>Please respond as quickly and as accurately as possible!</p>","0","","3","new_stimuli/mp3/melody_1_^3_v1_^5_v3_v2_^3_.mp3"
"","1007.6449999976903","html-button-response","203","1042813","0.0-19.0-4.4","13509","","<p>Which tone was played fourth after the cadence?</p><p>Please respond as quickly and as accurately as possible!</p>","7","","4","new_stimuli/mp3/melody_1_^3_v1_^5_v3_v2_^3_.mp3"
"","1090.9800000009127","html-button-response","204","1043906","0.0-19.0-5.4","13509","","<p>Which tone was played fifth after the cadence?</p><p>Please respond as quickly and as accurately as possible!</p>","4","","5","new_stimuli/mp3/melody_1_^3_v1_^5_v3_v2_^3_.mp3"
"","1046.570000005886","html-button-response","205","1044954","0.0-19.0-6.4","13509","","<p>Which tone was played sixth after the cadence?</p><p>Please respond as quickly and as accurately as possible!</p>","2","","6","new_stimuli/mp3/melody_1_^3_v1_^5_v3_v2_^3_.mp3"
"","965.0400000028312","html-button-response","206","1045920","0.0-19.0-7.4","13509","","<p>Which tone was played seventh after the cadence?</p><p>Please respond as quickly and as accurately as possible!</p>","4","","7","new_stimuli/mp3/melody_1_^3_v1_^5_v3_v2_^3_.mp3"
"","null","audio-keyboard-response","207","1057619","0.0-19.0-0.5","13509","","new_stimuli/mp3/melody_^1_v7_v6_v5_v4_v3_v2_buffer.mp3","","null","",""
"","1478.5249999985099","html-button-response","208","1059100","0.0-19.0-1.5","13509","","<p>Which tone was played first after the cadence?</p><p>Please respond as quickly and as accurately as possible!</p>","12","","1","new_stimuli/mp3/melody_^1_v7_v6_v5_v4_v3_v2_buffer.mp3"
"","827.5149999973364","html-button-response","209","1059930","0.0-19.0-2.5","13509","","<p>Which tone was played second after the cadence?</p><p>Please respond as quickly and as accurately as possible!</p>","11","","2","new_stimuli/mp3/melody_^1_v7_v6_v5_v4_v3_v2_buffer.mp3"
"","1032.3849999986123","html-button-response","210","1060963","0.0-19.0-3.5","13509","","<p>Which tone was played third after the cadence?</p><p>Please respond as quickly and as accurately as possible!</p>","9","","3","new_stimuli/mp3/melody_^1_v7_v6_v5_v4_v3_v2_buffer.mp3"
"","932.0799999986775","html-button-response","211","1061897","0.0-19.0-4.5","13509","","<p>Which tone was played fourth after the cadence?</p><p>Please respond as quickly and as accurately as possible!</p>","7","","4","new_stimuli/mp3/melody_^1_v7_v6_v5_v4_v3_v2_buffer.mp3"
"","1048.3599999935832","html-button-response","212","1062947","0.0-19.0-5.5","13509","","<p>Which tone was played fifth after the cadence?</p><p>Please respond as quickly and as accurately as possible!</p>","5","","5","new_stimuli/mp3/melody_^1_v7_v6_v5_v4_v3_v2_buffer.mp3"
"","1040.7400000039488","html-button-response","213","1063989","0.0-19.0-6.5","13509","","<p>Which tone was played sixth after the cadence?</p><p>Please respond as quickly and as accurately as possible!</p>","4","","6","new_stimuli/mp3/melody_^1_v7_v6_v5_v4_v3_v2_buffer.mp3"
"","1106.9199999982957","html-button-response","214","1065097","0.0-19.0-7.5","13509","","<p>Which tone was played seventh after the cadence?</p><p>Please respond as quickly and as accurately as possible!</p>","2","","7","new_stimuli/mp3/melody_^1_v7_v6_v5_v4_v3_v2_buffer.mp3"
"","null","audio-keyboard-response","215","1076799","0.0-19.0-0.6","13509","","new_stimuli/mp3/melody_v1_^2_v1_v7_^1_^3_v2_.mp3","","null","",""
"","1092.8950000014156","html-button-response","216","1077894","0.0-19.0-1.6","13509","","<p>Which tone was played first after the cadence?</p><p>Please respond as quickly and as accurately as possible!</p>","0","","1","new_stimuli/mp3/melody_v1_^2_v1_v7_^1_^3_v2_.mp3"
"","754.9350000044797","html-button-response","217","1078651","0.0-19.0-2.6","13509","","<p>Which tone was played second after the cadence?</p><p>Please respond as quickly and as accurately as possible!</p>","2","","2","new_stimuli/mp3/melody_v1_^2_v1_v7_^1_^3_v2_.mp3"
"","776.9600000027567","html-button-response","218","1079429","0.0-19.0-3.6","13509","","<p>Which tone was played third after the cadence?</p><p>Please respond as quickly and as accurately as possible!</p>","0","","3","new_stimuli/mp3/melody_v1_^2_v1_v7_^1_^3_v2_.mp3"
"","1561.8450000039302","html-button-response","219","1080992","0.0-19.0-4.6","13509","","<p>Which tone was played fourth after the cadence?</p><p>Please respond as quickly and as accurately as possible!</p>","11","","4","new_stimuli/mp3/melody_v1_^2_v1_v7_^1_^3_v2_.mp3"
"","731.5749999980908","html-button-response","220","1081725","0.0-19.0-5.6","13509","","<p>Which tone was played fifth after the cadence?</p><p>Please respond as quickly and as accurately as possible!</p>","12","","5","new_stimuli/mp3/melody_v1_^2_v1_v7_^1_^3_v2_.mp3"
"","1804.0299999993294","html-button-response","221","1083530","0.0-19.0-6.6","13509","","<p>Which tone was played sixth after the cadence?</p><p>Please respond as quickly and as accurately as possible!</p>","4","","6","new_stimuli/mp3/melody_v1_^2_v1_v7_^1_^3_v2_.mp3"
"","1585.999999995809","html-button-response","222","1085118","0.0-19.0-7.6","13509","","<p>Which tone was played seventh after the cadence?</p><p>Please respond as quickly and as accurately as possible!</p>","2","","7","new_stimuli/mp3/melody_v1_^2_v1_v7_^1_^3_v2_.mp3"
"[{""page_index"":0,""viewing_time"":2845.60999999661},{""page_index"":1,""viewing_time"":1410.5800000033341},{""page_index"":2,""viewing_time"":1002.9949999954551}]","5259.474999998929","instructions","223","1090378","0.0-20.0","13509","","","","","",""
"","null","audio-keyboard-response","224","1103335","0.0-21.0-0.0","13509","","new_stimuli/mp3/melody_^5_^6_v5_v4_v3_v2_v1_^2_^3_buffer.mp3","","null","",""
"","1871.1049999985844","html-button-response","225","1105208","0.0-21.0-1.0","13509","","<p>Which tone was played first after the cadence?</p><p>Please respond as quickly and as accurately as possible!</p>","7","","1","new_stimuli/mp3/melody_^5_^6_v5_v4_v3_v2_v1_^2_^3_buffer.mp3"
"","775.6200000003446","html-button-response","226","1105985","0.0-21.0-2.0","13509","","<p>Which tone was played second after the cadence?</p><p>Please respond as quickly and as accurately as possible!</p>","9","","2","new_stimuli/mp3/melody_^5_^6_v5_v4_v3_v2_v1_^2_^3_buffer.mp3"
"","960.8000000007451","html-button-response","227","1106947","0.0-21.0-3.0","13509","","<p>Which tone was played third after the cadence?</p><p>Please respond as quickly and as accurately as possible!</p>","7","","3","new_stimuli/mp3/melody_^5_^6_v5_v4_v3_v2_v1_^2_^3_buffer.mp3"
"","1180.8850000014063","html-button-response","228","1108130","0.0-21.0-4.0","13509","","<p>Which tone was played fourth after the cadence?</p><p>Please respond as quickly and as accurately as possible!</p>","5","","4","new_stimuli/mp3/melody_^5_^6_v5_v4_v3_v2_v1_^2_^3_buffer.mp3"
"","991.7649999987334","html-button-response","229","1109123","0.0-21.0-5.0","13509","","<p>Which tone was played fifth after the cadence?</p><p>Please respond as quickly and as accurately as possible!</p>","4","","5","new_stimuli/mp3/melody_^5_^6_v5_v4_v3_v2_v1_^2_^3_buffer.mp3"
"","1065.3349999992643","html-button-response","230","1110189","0.0-21.0-6.0","13509","","<p>Which tone was played sixth after the cadence?</p><p>Please respond as quickly and as accurately as possible!</p>","2","","6","new_stimuli/mp3/melody_^5_^6_v5_v4_v3_v2_v1_^2_^3_buffer.mp3"
"","1099.1900000008754","html-button-response","231","1111289","0.0-21.0-7.0","13509","","<p>Which tone was played seventh after the cadence?</p><p>Please respond as quickly and as accurately as possible!</p>","0","","7","new_stimuli/mp3/melody_^5_^6_v5_v4_v3_v2_v1_^2_^3_buffer.mp3"
"","1410.934999999823","html-button-response","232","1112702","0.0-21.0-8.0","13509","","<p>Which tone was played eight after the cadence?</p><p>Please respond as quickly and as accurately as possible!</p>","2","","8","new_stimuli/mp3/melody_^5_^6_v5_v4_v3_v2_v1_^2_^3_buffer.mp3"
"","1634.2499999955762","html-button-response","233","1114337","0.0-21.0-9.0","13509","","<p>Which tone was played nineth after the cadence?</p><p>Please respond as quickly and as accurately as possible!</p>","4","","9","new_stimuli/mp3/melody_^5_^6_v5_v4_v3_v2_v1_^2_^3_buffer.mp3"
"","null","audio-keyboard-response","234","1126904","0.0-21.0-0.1","13509","","new_stimuli/mp3/melody_^3_^4_^5 _^6_v5_v4_v3_v2_v1_.mp3","","null","",""
"","1181.6250000046566","html-button-response","235","1128087","0.0-21.0-1.1","13509","","<p>Which tone was played first after the cadence?</p><p>Please respond as quickly and as accurately as possible!</p>","4","","1","new_stimuli/mp3/melody_^3_^4_^5 _^6_v5_v4_v3_v2_v1_.mp3"
"","639.9900000034831","html-button-response","236","1128728","0.0-21.0-2.1","13509","","<p>Which tone was played second after the cadence?</p><p>Please respond as quickly and as accurately as possible!</p>","5","","2","new_stimuli/mp3/melody_^3_^4_^5 _^6_v5_v4_v3_v2_v1_.mp3"
"","764.5199999969918","html-button-response","237","1129494","0.0-21.0-3.1","13509","","<p>Which tone was played third after the cadence?</p><p>Please respond as quickly and as accurately as possible!</p>","7","","3","new_stimuli/mp3/melody_^3_^4_^5 _^6_v5_v4_v3_v2_v1_.mp3"
"","864.000000001397","html-button-response","238","1130359","0.0-21.0-4.1","13509","","<p>Which tone was played fourth after the cadence?</p><p>Please respond as quickly and as accurately as possible!</p>","9","","4","new_stimuli/mp3/melody_^3_^4_^5 _^6_v5_v4_v3_v2_v1_.mp3"
"","856.5049999959301","html-button-response","239","1131217","0.0-21.0-5.1","13509","","<p>Which tone was played fifth after the cadence?</p><p>Please respond as quickly and as accurately as possible!</p>","7","","5","new_stimuli/mp3/melody_^3_^4_^5 _^6_v5_v4_v3_v2_v1_.mp3"
"","960.859999999404","html-button-response","240","1132179","0.0-21.0-6.1","13509","","<p>Which tone was played sixth after the cadence?</p><p>Please respond as quickly and as accurately as possible!</p>","5","","6","new_stimuli/mp3/melody_^3_^4_^5 _^6_v5_v4_v3_v2_v1_.mp3"
"","916.4200000013225","html-button-response","241","1133097","0.0-21.0-7.1","13509","","<p>Which tone was played seventh after the cadence?</p><p>Please respond as quickly and as accurately as possible!</p>","4","","7","new_stimuli/mp3/melody_^3_^4_^5 _^6_v5_v4_v3_v2_v1_.mp3"
"","1135.3849999941885","html-button-response","242","1134233","0.0-21.0-8.1","13509","","<p>Which tone was played eight after the cadence?</p><p>Please respond as quickly and as accurately as possible!</p>","2","","8","new_stimuli/mp3/melody_^3_^4_^5 _^6_v5_v4_v3_v2_v1_.mp3"
"","1067.6450000028126","html-button-response","243","1135302","0.0-21.0-9.1","13509","","<p>Which tone was played nineth after the cadence?</p><p>Please respond as quickly and as accurately as possible!</p>","0","","9","new_stimuli/mp3/melody_^3_^4_^5 _^6_v5_v4_v3_v2_v1_.mp3"
"","null","audio-keyboard-response","244","1147994","0.0-21.0-0.2","13509","","new_stimuli/mp3/melody_^2_^3_^4_^5_^6_v5_v4_v3_v2_buffer.mp3","","null","",""
"","2275.184999998659","html-button-response","245","1150271","0.0-21.0-1.2","13509","","<p>Which tone was played first after the cadence?</p><p>Please respond as quickly and as accurately as possible!</p>","2","","1","new_stimuli/mp3/melody_^2_^3_^4_^5_^6_v5_v4_v3_v2_buffer.mp3"
"","1537.534999995958","html-button-response","246","1151810","0.0-21.0-2.2","13509","","<p>Which tone was played second after the cadence?</p><p>Please respond as quickly and as accurately as possible!</p>","4","","2","new_stimuli/mp3/melody_^2_^3_^4_^5_^6_v5_v4_v3_v2_buffer.mp3"
"","607.3649999962654","html-button-response","247","1152418","0.0-21.0-3.2","13509","","<p>Which tone was played third after the cadence?</p><p>Please respond as quickly and as accurately as possible!</p>","5","","3","new_stimuli/mp3/melody_^2_^3_^4_^5_^6_v5_v4_v3_v2_buffer.mp3"
"","767.9800000041723","html-button-response","248","1153188","0.0-21.0-4.2","13509","","<p>Which tone was played fourth after the cadence?</p><p>Please respond as quickly and as accurately as possible!</p>","7","","4","new_stimuli/mp3/melody_^2_^3_^4_^5_^6_v5_v4_v3_v2_buffer.mp3"
"","924.720000002766","html-button-response","249","1154114","0.0-21.0-5.2","13509","","<p>Which tone was played fifth after the cadence?</p><p>Please respond as quickly and as accurately as possible!</p>","9","","5","new_stimuli/mp3/melody_^2_^3_^4_^5_^6_v5_v4_v3_v2_buffer.mp3"
"","927.945000003092","html-button-response","250","1155043","0.0-21.0-6.2","13509","","<p>Which tone was played sixth after the cadence?</p><p>Please respond as quickly and as accurately as possible!</p>","7","","6","new_stimuli/mp3/melody_^2_^3_^4_^5_^6_v5_v4_v3_v2_buffer.mp3"
"","920.7700000044424","html-button-response","251","1155965","0.0-21.0-7.2","13509","","<p>Which tone was played seventh after the cadence?</p><p>Please respond as quickly and as accurately as possible!</p>","5","","7","new_stimuli/mp3/melody_^2_^3_^4_^5_^6_v5_v4_v3_v2_buffer.mp3"
"","811.0950000046287","html-button-response","252","1156778","0.0-21.0-8.2","13509","","<p>Which tone was played eight after the cadence?</p><p>Please respond as quickly and as accurately as possible!</p>","4","","8","new_stimuli/mp3/melody_^2_^3_^4_^5_^6_v5_v4_v3_v2_buffer.mp3"
"","1020.7050000026356","html-button-response","253","1157800","0.0-21.0-9.2","13509","","<p>Which tone was played nineth after the cadence?</p><p>Please respond as quickly and as accurately as possible!</p>","2","","9","new_stimuli/mp3/melody_^2_^3_^4_^5_^6_v5_v4_v3_v2_buffer.mp3"
"","null","audio-keyboard-response","254","1170733","0.0-21.0-0.3","13509","","new_stimuli/mp3/melody_^2_^4_v3_v2_v1_v3_v2+_^3_^5+_.mp3","","null","",""
"","1759.0849999978673","html-button-response","255","1172494","0.0-21.0-1.3","13509","","<p>Which tone was played first after the cadence?</p><p>Please respond as quickly and as accurately as possible!</p>","2","","1","new_stimuli/mp3/melody_^2_^4_v3_v2_v1_v3_v2+_^3_^5+_.mp3"
"","944.4100000038743","html-button-response","256","1173440","0.0-21.0-2.3","13509","","<p>Which tone was played second after the cadence?</p><p>Please respond as quickly and as accurately as possible!</p>","5","","2","new_stimuli/mp3/melody_^2_^4_v3_v2_v1_v3_v2+_^3_^5+_.mp3"
"","683.4949999975506","html-button-response","257","1174125","0.0-21.0-3.3","13509","","<p>Which tone was played third after the cadence?</p><p>Please respond as quickly and as accurately as possible!</p>","4","","3","new_stimuli/mp3/melody_^2_^4_v3_v2_v1_v3_v2+_^3_^5+_.mp3"
"","809.0099999969825","html-button-response","258","1174935","0.0-21.0-4.3","13509","","<p>Which tone was played fourth after the cadence?</p><p>Please respond as quickly and as accurately as possible!</p>","2","","4","new_stimuli/mp3/melody_^2_^4_v3_v2_v1_v3_v2+_^3_^5+_.mp3"
"","1112.554999999702","html-button-response","259","1176049","0.0-21.0-5.3","13509","","<p>Which tone was played fifth after the cadence?</p><p>Please respond as quickly and as accurately as possible!</p>","0","","5","new_stimuli/mp3/melody_^2_^4_v3_v2_v1_v3_v2+_^3_^5+_.mp3"
"","1288.655000003986","html-button-response","260","1177339","0.0-21.0-6.3","13509","","<p>Which tone was played sixth after the cadence?</p><p>Please respond as quickly and as accurately as possible!</p>","4","","6","new_stimuli/mp3/melody_^2_^4_v3_v2_v1_v3_v2+_^3_^5+_.mp3"
"","695.285000001546","html-button-response","261","1178036","0.0-21.0-7.3","13509","","<p>Which tone was played seventh after the cadence?</p><p>Please respond as quickly and as accurately as possible!</p>","3","","7","new_stimuli/mp3/melody_^2_^4_v3_v2_v1_v3_v2+_^3_^5+_.mp3"
"","744.7900000042282","html-button-response","262","1178782","0.0-21.0-8.3","13509","","<p>Which tone was played eight after the cadence?</p><p>Please respond as quickly and as accurately as possible!</p>","4","","8","new_stimuli/mp3/melody_^2_^4_v3_v2_v1_v3_v2+_^3_^5+_.mp3"
"","4186.349999996368","html-button-response","263","1182970","0.0-21.0-9.3","13509","","<p>Which tone was played nineth after the cadence?</p><p>Please respond as quickly and as accurately as possible!</p>","8","","9","new_stimuli/mp3/melody_^2_^4_v3_v2_v1_v3_v2+_^3_^5+_.mp3"
"","null","audio-keyboard-response","264","1195614","0.0-21.0-0.4","13509","","new_stimuli/mp3/melody_v7_v6_v5_^6_v5_v4_^5_^6_v5_.mp3","","null","",""
"","1365.5","html-button-response","265","1196981","0.0-21.0-1.4","13509","","<p>Which tone was played first after the cadence?</p><p>Please respond as quickly and as accurately as possible!</p>","11","","1","new_stimuli/mp3/melody_v7_v6_v5_^6_v5_v4_^5_^6_v5_.mp3"
"","1552.3699999975506","html-button-response","266","1198535","0.0-21.0-2.4","13509","","<p>Which tone was played second after the cadence?</p><p>Please respond as quickly and as accurately as possible!</p>","9","","2","new_stimuli/mp3/melody_v7_v6_v5_^6_v5_v4_^5_^6_v5_.mp3"
"","744.4749999996275","html-button-response","267","1199281","0.0-21.0-3.4","13509","","<p>Which tone was played third after the cadence?</p><p>Please respond as quickly and as accurately as possible!</p>","7","","3","new_stimuli/mp3/melody_v7_v6_v5_^6_v5_v4_^5_^6_v5_.mp3"
"","715.9150000007357","html-button-response","268","1199998","0.0-21.0-4.4","13509","","<p>Which tone was played fourth after the cadence?</p><p>Please respond as quickly and as accurately as possible!</p>","5","","4","new_stimuli/mp3/melody_v7_v6_v5_^6_v5_v4_^5_^6_v5_.mp3"
"","947.4899999985937","html-button-response","269","1200947","0.0-21.0-5.4","13509","","<p>Which tone was played fifth after the cadence?</p><p>Please respond as quickly and as accurately as possible!</p>","7","","5","new_stimuli/mp3/melody_v7_v6_v5_^6_v5_v4_^5_^6_v5_.mp3"
"","1462.6950000021607","html-button-response","270","1202411","0.0-21.0-6.4","13509","","<p>Which tone was played sixth after the cadence?</p><p>Please respond as quickly and as accurately as possible!</p>","9","","6","new_stimuli/mp3/melody_v7_v6_v5_^6_v5_v4_^5_^6_v5_.mp3"
"","1108.9100000024773","html-button-response","271","1203521","0.0-21.0-7.4","13509","","<p>Which tone was played seventh after the cadence?</p><p>Please respond as quickly and as accurately as possible!</p>","7","","7","new_stimuli/mp3/melody_v7_v6_v5_^6_v5_v4_^5_^6_v5_.mp3"
"","1160.4699999950826","html-button-response","272","1204683","0.0-21.0-8.4","13509","","<p>Which tone was played eight after the cadence?</p><p>Please respond as quickly and as accurately as possible!</p>","5","","8","new_stimuli/mp3/melody_v7_v6_v5_^6_v5_v4_^5_^6_v5_.mp3"
"","1714.214999999851","html-button-response","273","1206399","0.0-21.0-9.4","13509","","<p>Which tone was played nineth after the cadence?</p><p>Please respond as quickly and as accurately as possible!</p>","7","","9","new_stimuli/mp3/melody_v7_v6_v5_^6_v5_v4_^5_^6_v5_.mp3"
"","null","audio-keyboard-response","274","1219043","0.0-21.0-0.5","13509","","new_stimuli/mp3/melody_v5_v4_v6+_^7_^3+_v3_v2_v5_^4_.mp3","","null","",""
"","3633.9399999997113","html-button-response","275","1222679","0.0-21.0-1.5","13509","","<p>Which tone was played first after the cadence?</p><p>Please respond as quickly and as accurately as possible!</p>","7","","1","new_stimuli/mp3/melody_v5_v4_v6+_^7_^3+_v3_v2_v5_^4_.mp3"
"","995.2249999986961","html-button-response","276","1223676","0.0-21.0-2.5","13509","","<p>Which tone was played second after the cadence?</p><p>Please respond as quickly and as accurately as possible!</p>","5","","2","new_stimuli/mp3/melody_v5_v4_v6+_^7_^3+_v3_v2_v5_^4_.mp3"
"","1402.675000004936","html-button-response","277","1225080","0.0-21.0-3.5","13509","","<p>Which tone was played third after the cadence?</p><p>Please respond as quickly and as accurately as possible!</p>","9","","3","new_stimuli/mp3/melody_v5_v4_v6+_^7_^3+_v3_v2_v5_^4_.mp3"
"","920.339999997057","html-button-response","278","1226001","0.0-21.0-4.5","13509","","<p>Which tone was played fourth after the cadence?</p><p>Please respond as quickly and as accurately as possible!</p>","11","","4","new_stimuli/mp3/melody_v5_v4_v6+_^7_^3+_v3_v2_v5_^4_.mp3"
"","1098.6150000025518","html-button-response","279","1227101","0.0-21.0-5.5","13509","","<p>Which tone was played fifth after the cadence?</p><p>Please respond as quickly and as accurately as possible!</p>","4","","5","new_stimuli/mp3/melody_v5_v4_v6+_^7_^3+_v3_v2_v5_^4_.mp3"
"","750.6700000013225","html-button-response","280","1227853","0.0-21.0-6.5","13509","","<p>Which tone was played sixth after the cadence?</p><p>Please respond as quickly and as accurately as possible!</p>","3","","6","new_stimuli/mp3/melody_v5_v4_v6+_^7_^3+_v3_v2_v5_^4_.mp3"
"","841.4049999993294","html-button-response","281","1228696","0.0-21.0-7.5","13509","","<p>Which tone was played seventh after the cadence?</p><p>Please respond as quickly and as accurately as possible!</p>","2","","7","new_stimuli/mp3/melody_v5_v4_v6+_^7_^3+_v3_v2_v5_^4_.mp3"
"","4228.054999999469","html-button-response","282","1232925","0.0-21.0-8.5","13509","","<p>Which tone was played eight after the cadence?</p><p>Please respond as quickly and as accurately as possible!</p>","8","","8","new_stimuli/mp3/melody_v5_v4_v6+_^7_^3+_v3_v2_v5_^4_.mp3"
"","1220.7449999987148","html-button-response","283","1234147","0.0-21.0-9.5","13509","","<p>Which tone was played nineth after the cadence?</p><p>Please respond as quickly and as accurately as possible!</p>","2","","9","new_stimuli/mp3/melody_v5_v4_v6+_^7_^3+_v3_v2_v5_^4_.mp3"
"","null","audio-keyboard-response","284","1246792","0.0-21.0-0.6","13509","","new_stimuli/mp3/melody_^3_^4_v2_v7_^1_^2_^3_3_^4_.mp3","","null","",""
"","1466.2150000003166","html-button-response","285","1248260","0.0-21.0-1.6","13509","","<p>Which tone was played first after the cadence?</p><p>Please respond as quickly and as accurately as possible!</p>","4","","1","new_stimuli/mp3/melody_^3_^4_v2_v7_^1_^2_^3_3_^4_.mp3"
"","690.5299999997951","html-button-response","286","1248953","0.0-21.0-2.6","13509","","<p>Which tone was played second after the cadence?</p><p>Please respond as quickly and as accurately as possible!</p>","5","","2","new_stimuli/mp3/melody_^3_^4_v2_v7_^1_^2_^3_3_^4_.mp3"
"","992.5650000004098","html-button-response","287","1249947","0.0-21.0-3.6","13509","","<p>Which tone was played third after the cadence?</p><p>Please respond as quickly and as accurately as possible!</p>","2","","3","new_stimuli/mp3/melody_^3_^4_v2_v7_^1_^2_^3_3_^4_.mp3"
"","1156.5550000013318","html-button-response","288","1251104","0.0-21.0-4.6","13509","","<p>Which tone was played fourth after the cadence?</p><p>Please respond as quickly and as accurately as possible!</p>","11","","4","new_stimuli/mp3/melody_^3_^4_v2_v7_^1_^2_^3_3_^4_.mp3"
"","737.3299999963492","html-button-response","289","1251843","0.0-21.0-5.6","13509","","<p>Which tone was played fifth after the cadence?</p><p>Please respond as quickly and as accurately as possible!</p>","12","","5","new_stimuli/mp3/melody_^3_^4_v2_v7_^1_^2_^3_3_^4_.mp3"
"","1628.2850000062026","html-button-response","290","1253473","0.0-21.0-6.6","13509","","<p>Which tone was played sixth after the cadence?</p><p>Please respond as quickly and as accurately as possible!</p>","2","","6","new_stimuli/mp3/melody_^3_^4_v2_v7_^1_^2_^3_3_^4_.mp3"
"","844.6299999994226","html-button-response","291","1254319","0.0-21.0-7.6","13509","","<p>Which tone was played seventh after the cadence?</p><p>Please respond as quickly and as accurately as possible!</p>","4","","7","new_stimuli/mp3/melody_^3_^4_v2_v7_^1_^2_^3_3_^4_.mp3"
"","399.45499999891035","html-button-response","292","1254719","0.0-21.0-8.6","13509","","<p>Which tone was played eight after the cadence?</p><p>Please respond as quickly and as accurately as possible!</p>","4","","8","new_stimuli/mp3/melody_^3_^4_v2_v7_^1_^2_^3_3_^4_.mp3"
"","774.7699999962933","html-button-response","293","1255495","0.0-21.0-9.6","13509","","<p>Which tone was played nineth after the cadence?</p><p>Please respond as quickly and as accurately as possible!</p>","5","","9","new_stimuli/mp3/melody_^3_^4_v2_v7_^1_^2_^3_3_^4_.mp3"
"","12524.399999994785","survey-text","294","1268021","0.0-22.0","13509","{""Q0"":""humming/singing""}","","","","",""
"","7956.170000005048","survey-text","295","1275979","0.0-23.0","13509","{""Q0"":""""}","","","","",""
"","26076.83499999973","survey-text","296","1302060","0.0-24.0","13509","{""Q0"":""no, but if I had known I could I would have used pencil and paper to help remember the longer ones""}","","","","",""
"","3641.1599999992177","survey-text","297","1305703","0.0-25.0","13509","{""Q0"":""speakers""}","","","","",""
"","4699.690000001341","survey-text","298","1310404","0.0-26.0","13509","{""Q0"":""male""}","","","","",""
"","2245.534999994561","survey-text","299","1312652","0.0-27.0","13509","{""Q0"":""yes""}","","","","",""
"[{""page_index"":0,""viewing_time"":2658.7350000045262}]","2659.12499999837","instructions","300","1315312","0.0-28.0","13509","","","","","",""
