"view_history","rt","trial_type","trial_index","time_elapsed","internal_node_id","subject","responses","stimulus","button_pressed","key_press","response_sequence","melody"
"[{""page_index"":0,""viewing_time"":23079688.49500001},{""page_index"":1,""viewing_time"":15786.395000003278},{""page_index"":2,""viewing_time"":2271.9899999797344}]","23097747.444999985","instructions","0","23097806","0.0-0.0","14193","","","","","",""
"","3702.8299999646842","survey-text","1","23101512","0.0-1.0","14193","{""Q0"":""20""}","","","","",""
"","28994.489999957383","survey-text","2","23130507","0.0-2.0","14193","{""Q0"":""Undergrad student""}","","","","",""
"","14495.560000009835","survey-text","3","23145003","0.0-3.0","14193","{""Q0"":""Moveable do""}","","","","",""
"","3554.9949999563396","survey-text","4","23148559","0.0-4.0","14193","{""Q0"":""no""}","","","","",""
"","9267.110000014305","survey-text","5","23157827","0.0-5.0","14193","{""Q0"":""0""}","","","","",""
"","5473.2099999673665","survey-text","6","23163301","0.0-6.0","14193","{""Q0"":""0""}","","","","",""
"[{""page_index"":0,""viewing_time"":2797.024999976158},{""page_index"":1,""viewing_time"":15983.869999997318},{""page_index"":2,""viewing_time"":1589.4850000068545}]","20370.644999958575","instructions","7","23183672","0.0-7.0","14193","","","","","",""
"","7837.519999999553","audio-button-response","8","23191513","0.0-8.0","14193","","stimuli/long/c-do.mp3","0","","",""
"","11926.39999999851","audio-button-response","9","23203441","0.0-9.0","14193","","stimuli/long/a-le.mp3","6","","",""
"[{""page_index"":0,""viewing_time"":3507.2700000032783},{""page_index"":1,""viewing_time"":2639.6550000049174}]","6147.155000012368","instructions","10","23209589","0.0-10.0","14193","","","","","",""
"","10171.59500002116","audio-button-response","11","23219763","0.0-11.0-0.0","14193","","stimuli/long/a-mi.mp3","4","","",""
"","10688.429999981076","audio-button-response","12","23230453","0.0-11.0-0.1","14193","","stimuli/long/e-sol.mp3","7","","",""
"","12468.505000054836","audio-button-response","13","23242923","0.0-11.0-0.2","14193","","stimuli/long/e-le.mp3","8","","",""
"","7540.814999956638","audio-button-response","14","23250465","0.0-11.0-0.3","14193","","stimuli/long/e-do.mp3","0","","",""
"","9266.700000040233","audio-button-response","15","23259733","0.0-11.0-0.4","14193","","stimuli/long/a-ti.mp3","11","","",""
"","17144.079999998212","audio-button-response","16","23276878","0.0-11.0-0.5","14193","","stimuli/long/a-le.mp3","10","","",""
"","16439.059999946505","audio-button-response","17","23293319","0.0-11.0-0.6","14193","","stimuli/long/e-ra.mp3","1","","",""
"","11738.73500001803","audio-button-response","18","23305059","0.0-11.0-0.7","14193","","stimuli/long/c-sol.mp3","7","","",""
"","7878.560000043362","audio-button-response","19","23312939","0.0-11.0-0.8","14193","","stimuli/long/c-ti.mp3","11","","",""
"","7335.9599999934435","audio-button-response","20","23320278","0.0-11.0-0.9","14193","","stimuli/long/a-do.mp3","0","","",""
"","17851.26999998465","audio-button-response","21","23338131","0.0-11.0-0.10","14193","","stimuli/long/a-re.mp3","5","","",""
"","null","audio-button-response","22","23358132","0.0-11.0-0.11","14193","","stimuli/long/a-me.mp3","null","","",""
"","8939.324999988079","audio-button-response","23","23367073","0.0-11.0-0.12","14193","","stimuli/long/e-re.mp3","2","","",""
"","12740.920000009239","audio-button-response","24","23379815","0.0-11.0-0.13","14193","","stimuli/long/e-fa.mp3","9","","",""
"","15104.499999959022","audio-button-response","25","23394921","0.0-11.0-0.14","14193","","stimuli/long/c-me.mp3","3","","",""
"","8966.35000000149","audio-button-response","26","23403889","0.0-11.0-0.15","14193","","stimuli/long/e-te.mp3","10","","",""
"","9099.059999976307","audio-button-response","27","23412989","0.0-11.0-0.16","14193","","stimuli/long/a-fi.mp3","6","","",""
"","13463.134999968112","audio-button-response","28","23426454","0.0-11.0-0.17","14193","","stimuli/long/c-fi.mp3","6","","",""
"","11324.659999981523","audio-button-response","29","23437780","0.0-11.0-0.18","14193","","stimuli/long/e-la.mp3","9","","",""
"","7900.689999982715","audio-button-response","30","23445682","0.0-11.0-0.19","14193","","stimuli/long/c-do8.mp3","0","","",""
"","15646.230000011623","audio-button-response","31","23461329","0.0-11.0-0.20","14193","","stimuli/long/c-ra.mp3","3","","",""
"","14551.029999975115","audio-button-response","32","23475881","0.0-11.0-0.21","14193","","stimuli/long/a-la.mp3","9","","",""
"","7744.400000024587","audio-button-response","33","23483627","0.0-11.0-0.22","14193","","stimuli/long/c-do.mp3","0","","",""
"","9085.015000019222","audio-button-response","34","23492713","0.0-11.0-0.23","14193","","stimuli/long/a-sol.mp3","7","","",""
"","8666.625000011176","audio-button-response","35","23501381","0.0-11.0-0.24","14193","","stimuli/long/a-do8.mp3","0","","",""
"","7916.59499995783","audio-button-response","36","23509299","0.0-11.0-0.25","14193","","stimuli/long/e-do8.mp3","0","","",""
"","11337.265000037849","audio-button-response","37","23520638","0.0-11.0-0.26","14193","","stimuli/long/a-ra.mp3","1","","",""
"","11439.884999997914","audio-button-response","38","23532079","0.0-11.0-0.27","14193","","stimuli/long/a-te.mp3","8","","",""
"","11806.949999999255","audio-button-response","39","23543887","0.0-11.0-0.28","14193","","stimuli/long/c-le.mp3","6","","",""
"","13514.184999976307","audio-button-response","40","23557402","0.0-11.0-0.29","14193","","stimuli/long/c-la.mp3","5","","",""
"","9833.259999986738","audio-button-response","41","23567237","0.0-11.0-0.30","14193","","stimuli/long/c-mi.mp3","4","","",""
"","12698.634999979287","audio-button-response","42","23579937","0.0-11.0-0.31","14193","","stimuli/long/c-fa.mp3","5","","",""
"","8149.305000029504","audio-button-response","43","23588087","0.0-11.0-0.32","14193","","stimuli/long/e-mi.mp3","4","","",""
"","11617.934999987483","audio-button-response","44","23599707","0.0-11.0-0.33","14193","","stimuli/long/a-fa.mp3","2","","",""
"","15512.805000007153","audio-button-response","45","23615221","0.0-11.0-0.34","14193","","stimuli/long/e-fi.mp3","8","","",""
"","9058.055000029504","audio-button-response","46","23624280","0.0-11.0-0.35","14193","","stimuli/long/c-re.mp3","2","","",""
"","7969.984999973327","audio-button-response","47","23632252","0.0-11.0-0.36","14193","","stimuli/long/e-ti.mp3","11","","",""
"","15189.62999998033","audio-button-response","48","23647443","0.0-11.0-0.37","14193","","stimuli/long/e-me.mp3","4","","",""
"[{""page_index"":0,""viewing_time"":179357.2699999772},{""page_index"":1,""viewing_time"":1793.6750000230968}]","181151.1199999936","instructions","49","23828594","0.0-12.0","14193","","","","","",""
"","null","audio-keyboard-response","50","23837736","0.0-13.0-0.0","14193","","new_stimuli/mp3/melody_^2_v7-_.mp3","","null","",""
"","7184.7750000320375","html-button-response","51","23844922","0.0-13.0-1.0","14193","","<p>Which tone was played first after the cadence?</p><p>Please respond as quickly and as accurately as possible!</p>","3","","1","new_stimuli/mp3/melody_^2_v7-_.mp3"
"","3140.484999984503","html-button-response","52","23848064","0.0-13.0-2.0","14193","","<p>Which tone was played second after the cadence?</p><p>Please respond as quickly and as accurately as possible!</p>","0","","2","new_stimuli/mp3/melody_^2_v7-_.mp3"
"","null","audio-keyboard-response","53","23857256","0.0-13.0-0.1","14193","","new_stimuli/mp3/melody_v3_v2_buffer.mp3","","null","",""
"","1020.9799999706447","html-button-response","54","23858279","0.0-13.0-1.1","14193","","<p>Which tone was played first after the cadence?</p><p>Please respond as quickly and as accurately as possible!</p>","7","","1","new_stimuli/mp3/melody_v3_v2_buffer.mp3"
"","829.2599999718368","html-button-response","55","23859109","0.0-13.0-2.1","14193","","<p>Which tone was played second after the cadence?</p><p>Please respond as quickly and as accurately as possible!</p>","5","","2","new_stimuli/mp3/melody_v3_v2_buffer.mp3"
"","null","audio-keyboard-response","56","23868175","0.0-13.0-0.2","14193","","new_stimuli/mp3/melody_v2_v1_.mp3","","null","",""
"","999.7300000414252","html-button-response","57","23869177","0.0-13.0-1.2","14193","","<p>Which tone was played first after the cadence?</p><p>Please respond as quickly and as accurately as possible!</p>","2","","1","new_stimuli/mp3/melody_v2_v1_.mp3"
"","673.1100000329316","html-button-response","58","23869851","0.0-13.0-2.2","14193","","<p>Which tone was played second after the cadence?</p><p>Please respond as quickly and as accurately as possible!</p>","0","","2","new_stimuli/mp3/melody_v2_v1_.mp3"
"","null","audio-keyboard-response","59","23879275","0.0-13.0-0.3","14193","","new_stimuli/mp3/melody_v4_v3_buffer.mp3","","null","",""
"","10779.500000003725","html-button-response","60","23890056","0.0-13.0-1.3","14193","","<p>Which tone was played first after the cadence?</p><p>Please respond as quickly and as accurately as possible!</p>","11","","1","new_stimuli/mp3/melody_v4_v3_buffer.mp3"
"","672.9250000193715","html-button-response","61","23890731","0.0-13.0-2.3","14193","","<p>Which tone was played second after the cadence?</p><p>Please respond as quickly and as accurately as possible!</p>","9","","2","new_stimuli/mp3/melody_v4_v3_buffer.mp3"
"","null","audio-keyboard-response","62","23900185","0.0-13.0-0.4","14193","","new_stimuli/mp3/melody_^3_v4+_buffer.mp3","","null","",""
"","9618.320000007749","html-button-response","63","23909805","0.0-13.0-1.4","14193","","<p>Which tone was played first after the cadence?</p><p>Please respond as quickly and as accurately as possible!</p>","6","","1","new_stimuli/mp3/melody_^3_v4+_buffer.mp3"
"","713.2449999898672","html-button-response","64","23910519","0.0-13.0-2.4","14193","","<p>Which tone was played second after the cadence?</p><p>Please respond as quickly and as accurately as possible!</p>","7","","2","new_stimuli/mp3/melody_^3_v4+_buffer.mp3"
"","null","audio-keyboard-response","65","23919816","0.0-13.0-0.5","14193","","new_stimuli/mp3/melody_3_^6_buffer.mp3","","null","",""
"","4775.4149999804795","html-button-response","66","23924595","0.0-13.0-1.5","14193","","<p>Which tone was played first after the cadence?</p><p>Please respond as quickly and as accurately as possible!</p>","3","","1","new_stimuli/mp3/melody_3_^6_buffer.mp3"
"","754.2499999962747","html-button-response","67","23925350","0.0-13.0-2.5","14193","","<p>Which tone was played second after the cadence?</p><p>Please respond as quickly and as accurately as possible!</p>","7","","2","new_stimuli/mp3/melody_3_^6_buffer.mp3"
"","null","audio-keyboard-response","68","23934365","0.0-13.0-0.6","14193","","new_stimuli/mp3/melody_^1_^2+_.mp3","","null","",""
"","2727.949999973178","html-button-response","69","23937094","0.0-13.0-1.6","14193","","<p>Which tone was played first after the cadence?</p><p>Please respond as quickly and as accurately as possible!</p>","0","","1","new_stimuli/mp3/melody_^1_^2+_.mp3"
"","3436.6600000075996","html-button-response","70","23940532","0.0-13.0-2.6","14193","","<p>Which tone was played second after the cadence?</p><p>Please respond as quickly and as accurately as possible!</p>","3","","2","new_stimuli/mp3/melody_^1_^2+_.mp3"
"","null","audio-keyboard-response","71","23949696","0.0-13.0-0.7","14193","","new_stimuli/mp3/melody_v5_v1+_.mp3","","null","",""
"","5712.990000028163","html-button-response","72","23955410","0.0-13.0-1.7","14193","","<p>Which tone was played first after the cadence?</p><p>Please respond as quickly and as accurately as possible!</p>","6","","1","new_stimuli/mp3/melody_v5_v1+_.mp3"
"","4931.57499999553","html-button-response","73","23960343","0.0-13.0-2.7","14193","","<p>Which tone was played second after the cadence?</p><p>Please respond as quickly and as accurately as possible!</p>","1","","2","new_stimuli/mp3/melody_v5_v1+_.mp3"
"","null","audio-keyboard-response","74","23969806","0.0-13.0-0.8","14193","","new_stimuli/mp3/melody_v7_v3_buffer.mp3","","null","",""
"","1158.8800000026822","html-button-response","75","23970966","0.0-13.0-1.8","14193","","<p>Which tone was played first after the cadence?</p><p>Please respond as quickly and as accurately as possible!</p>","11","","1","new_stimuli/mp3/melody_v7_v3_buffer.mp3"
"","4006.715000025928","html-button-response","76","23974975","0.0-13.0-2.8","14193","","<p>Which tone was played second after the cadence?</p><p>Please respond as quickly and as accurately as possible!</p>","3","","2","new_stimuli/mp3/melody_v7_v3_buffer.mp3"
"","null","audio-keyboard-response","77","23984146","0.0-13.0-0.9","14193","","new_stimuli/mp3/melody_^5_^1+_.mp3","","null","",""
"","5561.500000011176","html-button-response","78","23989709","0.0-13.0-1.9","14193","","<p>Which tone was played first after the cadence?</p><p>Please respond as quickly and as accurately as possible!</p>","7","","1","new_stimuli/mp3/melody_^5_^1+_.mp3"
"","4155.840000018477","html-button-response","79","23993867","0.0-13.0-2.9","14193","","<p>Which tone was played second after the cadence?</p><p>Please respond as quickly and as accurately as possible!</p>","1","","2","new_stimuli/mp3/melody_^5_^1+_.mp3"
"[{""page_index"":0,""viewing_time"":3993.0750000067055},{""page_index"":1,""viewing_time"":3391.4400000348687},{""page_index"":2,""viewing_time"":126934.1649999842}]","134319.03000001237","instructions","80","24128186","0.0-14.0","14193","","","","","",""
"","null","audio-keyboard-response","81","24137846","0.0-15.0-0.0","14193","","new_stimuli/mp3/melody_v4_v3_v2_buffer.mp3","","null","",""
"","2651.1999999657273","html-button-response","82","24140499","0.0-15.0-1.0","14193","","<p>Which tone was played first after the cadence?</p><p>Please respond as quickly and as accurately as possible!</p>","5","","1","new_stimuli/mp3/melody_v4_v3_v2_buffer.mp3"
"","427.62999999150634","html-button-response","83","24140927","0.0-15.0-2.0","14193","","<p>Which tone was played second after the cadence?</p><p>Please respond as quickly and as accurately as possible!</p>","4","","2","new_stimuli/mp3/melody_v4_v3_v2_buffer.mp3"
"","585.505000025034","html-button-response","84","24141514","0.0-15.0-3.0","14193","","<p>Which tone was played third after the cadence?</p><p>Please respond as quickly and as accurately as possible!</p>","2","","3","new_stimuli/mp3/melody_v4_v3_v2_buffer.mp3"
"","null","audio-keyboard-response","85","24151145","0.0-15.0-0.1","14193","","new_stimuli/mp3/melody_6_^1_v5_.mp3","","null","",""
"","11423.059999998659","html-button-response","86","24162570","0.0-15.0-1.1","14193","","<p>Which tone was played first after the cadence?</p><p>Please respond as quickly and as accurately as possible!</p>","9","","1","new_stimuli/mp3/melody_6_^1_v5_.mp3"
"","914.8450000211596","html-button-response","87","24163486","0.0-15.0-2.1","14193","","<p>Which tone was played second after the cadence?</p><p>Please respond as quickly and as accurately as possible!</p>","5","","2","new_stimuli/mp3/melody_6_^1_v5_.mp3"
"","1313.474999975413","html-button-response","88","24164800","0.0-15.0-3.1","14193","","<p>Which tone was played third after the cadence?</p><p>Please respond as quickly and as accurately as possible!</p>","4","","3","new_stimuli/mp3/melody_6_^1_v5_.mp3"
"","null","audio-keyboard-response","89","24174775","0.0-15.0-0.2","14193","","new_stimuli/mp3/melody_v2_v5_^3_buffer.mp3","","null","",""
"","1459.4599999822676","html-button-response","90","24176236","0.0-15.0-1.2","14193","","<p>Which tone was played first after the cadence?</p><p>Please respond as quickly and as accurately as possible!</p>","2","","1","new_stimuli/mp3/melody_v2_v5_^3_buffer.mp3"
"","3598.314999949187","html-button-response","91","24179836","0.0-15.0-2.2","14193","","<p>Which tone was played second after the cadence?</p><p>Please respond as quickly and as accurately as possible!</p>","5","","2","new_stimuli/mp3/melody_v2_v5_^3_buffer.mp3"
"","760.2950000427663","html-button-response","92","24180597","0.0-15.0-3.2","14193","","<p>Which tone was played third after the cadence?</p><p>Please respond as quickly and as accurately as possible!</p>","4","","3","new_stimuli/mp3/melody_v2_v5_^3_buffer.mp3"
"","null","audio-keyboard-response","93","24190555","0.0-15.0-0.3","14193","","new_stimuli/mp3/melody_v5_v4_v3_buffer.mp3","","null","",""
"","10109.620000004768","html-button-response","94","24200666","0.0-15.0-1.3","14193","","<p>Which tone was played first after the cadence?</p><p>Please respond as quickly and as accurately as possible!</p>","7","","1","new_stimuli/mp3/melody_v5_v4_v3_buffer.mp3"
"","476.350000012666","html-button-response","95","24201144","0.0-15.0-2.3","14193","","<p>Which tone was played second after the cadence?</p><p>Please respond as quickly and as accurately as possible!</p>","5","","2","new_stimuli/mp3/melody_v5_v4_v3_buffer.mp3"
"","326.9600000344217","html-button-response","96","24201472","0.0-15.0-3.3","14193","","<p>Which tone was played third after the cadence?</p><p>Please respond as quickly and as accurately as possible!</p>","4","","3","new_stimuli/mp3/melody_v5_v4_v3_buffer.mp3"
"","null","audio-keyboard-response","97","24210975","0.0-15.0-0.4","14193","","new_stimuli/mp3/melody_1_v1+_^2_.mp3","","null","",""
"","1173.6399999931455","html-button-response","98","24212150","0.0-15.0-1.4","14193","","<p>Which tone was played first after the cadence?</p><p>Please respond as quickly and as accurately as possible!</p>","0","","1","new_stimuli/mp3/melody_1_v1+_^2_.mp3"
"","351.24499996751547","html-button-response","99","24212502","0.0-15.0-2.4","14193","","<p>Which tone was played second after the cadence?</p><p>Please respond as quickly and as accurately as possible!</p>","1","","2","new_stimuli/mp3/melody_1_v1+_^2_.mp3"
"","382.72000005096197","html-button-response","100","24212886","0.0-15.0-3.4","14193","","<p>Which tone was played third after the cadence?</p><p>Please respond as quickly and as accurately as possible!</p>","2","","3","new_stimuli/mp3/melody_1_v1+_^2_.mp3"
"","null","audio-keyboard-response","101","24222445","0.0-15.0-0.5","14193","","new_stimuli/mp3/melody_v1_v7-_^7_.mp3","","null","",""
"","16409.165000017732","html-button-response","102","24238856","0.0-15.0-1.5","14193","","<p>Which tone was played first after the cadence?</p><p>Please respond as quickly and as accurately as possible!</p>","10","","1","new_stimuli/mp3/melody_v1_v7-_^7_.mp3"
"","476.49500001221895","html-button-response","103","24239334","0.0-15.0-2.5","14193","","<p>Which tone was played second after the cadence?</p><p>Please respond as quickly and as accurately as possible!</p>","9","","2","new_stimuli/mp3/melody_v1_v7-_^7_.mp3"
"","515.4949999973178","html-button-response","104","24239850","0.0-15.0-3.5","14193","","<p>Which tone was played third after the cadence?</p><p>Please respond as quickly and as accurately as possible!</p>","11","","3","new_stimuli/mp3/melody_v1_v7-_^7_.mp3"
"","null","audio-keyboard-response","105","24249405","0.0-15.0-0.6","14193","","new_stimuli/mp3/melody_v3_v2_v1_.mp3","","null","",""
"","1469.2649999633431","html-button-response","106","24250876","0.0-15.0-1.6","14193","","<p>Which tone was played first after the cadence?</p><p>Please respond as quickly and as accurately as possible!</p>","4","","1","new_stimuli/mp3/melody_v3_v2_v1_.mp3"
"","654.7450000084937","html-button-response","107","24251532","0.0-15.0-2.6","14193","","<p>Which tone was played second after the cadence?</p><p>Please respond as quickly and as accurately as possible!</p>","2","","2","new_stimuli/mp3/melody_v3_v2_v1_.mp3"
"","579.4250000044703","html-button-response","108","24252112","0.0-15.0-3.6","14193","","<p>Which tone was played third after the cadence?</p><p>Please respond as quickly and as accurately as possible!</p>","0","","3","new_stimuli/mp3/melody_v3_v2_v1_.mp3"
"","null","audio-keyboard-response","109","24262005","0.0-15.0-0.7","14193","","new_stimuli/mp3/melody_^1_v6_v5+_.mp3","","null","",""
"","22765.18000004813","html-button-response","110","24284772","0.0-15.0-1.7","14193","","<p>Which tone was played first after the cadence?</p><p>Please respond as quickly and as accurately as possible!</p>","12","","1","new_stimuli/mp3/melody_^1_v6_v5+_.mp3"
"","2150.6400000080466","html-button-response","111","24286924","0.0-15.0-2.7","14193","","<p>Which tone was played second after the cadence?</p><p>Please respond as quickly and as accurately as possible!</p>","9","","2","new_stimuli/mp3/melody_^1_v6_v5+_.mp3"
"","3657.579999998212","html-button-response","112","24290582","0.0-15.0-3.7","14193","","<p>Which tone was played third after the cadence?</p><p>Please respond as quickly and as accurately as possible!</p>","5","","3","new_stimuli/mp3/melody_^1_v6_v5+_.mp3"
"","null","audio-keyboard-response","113","24300165","0.0-15.0-0.8","14193","","new_stimuli/mp3/melody_v1_v7-_7-_buffer.mp3","","null","",""
"","1651.0050000473857","html-button-response","114","24301818","0.0-15.0-1.8","14193","","<p>Which tone was played first after the cadence?</p><p>Please respond as quickly and as accurately as possible!</p>","12","","1","new_stimuli/mp3/melody_v1_v7-_7-_buffer.mp3"
"","719.4099999591708","html-button-response","115","24302538","0.0-15.0-2.8","14193","","<p>Which tone was played second after the cadence?</p><p>Please respond as quickly and as accurately as possible!</p>","10","","2","new_stimuli/mp3/melody_v1_v7-_7-_buffer.mp3"
"","358.07499999552965","html-button-response","116","24302897","0.0-15.0-3.8","14193","","<p>Which tone was played third after the cadence?</p><p>Please respond as quickly and as accurately as possible!</p>","10","","3","new_stimuli/mp3/melody_v1_v7-_7-_buffer.mp3"
"[{""page_index"":0,""viewing_time"":86083.89499998838},{""page_index"":1,""viewing_time"":2739.7800000049174},{""page_index"":2,""viewing_time"":985.5950000323355}]","89809.89000003412","instructions","117","24392708","0.0-16.0","14193","","","","","",""
"","null","audio-keyboard-response","118","24403421","0.0-17.0-0.0","14193","","new_stimuli/mp3/melody_v5_v4_v3_v2_v1_.mp3","","null","",""
"","1124.3549999780953","html-button-response","119","24404547","0.0-17.0-1.0","14193","","<p>Which tone was played first after the cadence?</p><p>Please respond as quickly and as accurately as possible!</p>","7","","1","new_stimuli/mp3/melody_v5_v4_v3_v2_v1_.mp3"
"","892.5149999558926","html-button-response","120","24405440","0.0-17.0-2.0","14193","","<p>Which tone was played second after the cadence?</p><p>Please respond as quickly and as accurately as possible!</p>","5","","2","new_stimuli/mp3/melody_v5_v4_v3_v2_v1_.mp3"
"","907.2550000287592","html-button-response","121","24406349","0.0-17.0-3.0","14193","","<p>Which tone was played third after the cadence?</p><p>Please respond as quickly and as accurately as possible!</p>","4","","3","new_stimuli/mp3/melody_v5_v4_v3_v2_v1_.mp3"
"","703.4149999991059","html-button-response","122","24407053","0.0-17.0-4.0","14193","","<p>Which tone was played fourth after the cadence?</p><p>Please respond as quickly and as accurately as possible!</p>","2","","4","new_stimuli/mp3/melody_v5_v4_v3_v2_v1_.mp3"
"","701.8900000266731","html-button-response","123","24407756","0.0-17.0-5.0","14193","","<p>Which tone was played fifth after the cadence?</p><p>Please respond as quickly and as accurately as possible!</p>","0","","5","new_stimuli/mp3/melody_v5_v4_v3_v2_v1_.mp3"
"","null","audio-keyboard-response","124","24418391","0.0-17.0-0.1","14193","","new_stimuli/mp3/melody_v5_^6+_^7_^1_5_.mp3","","null","",""
"","3793.890000026673","html-button-response","125","24422186","0.0-17.0-1.1","14193","","<p>Which tone was played first after the cadence?</p><p>Please respond as quickly and as accurately as possible!</p>","7","","1","new_stimuli/mp3/melody_v5_^6+_^7_^1_5_.mp3"
"","633.6350000314415","html-button-response","126","24422821","0.0-17.0-2.1","14193","","<p>Which tone was played second after the cadence?</p><p>Please respond as quickly and as accurately as possible!</p>","9","","2","new_stimuli/mp3/melody_v5_^6+_^7_^1_5_.mp3"
"","737.1099999882281","html-button-response","127","24423559","0.0-17.0-3.1","14193","","<p>Which tone was played third after the cadence?</p><p>Please respond as quickly and as accurately as possible!</p>","11","","3","new_stimuli/mp3/melody_v5_^6+_^7_^1_5_.mp3"
"","372.2250000014901","html-button-response","128","24423932","0.0-17.0-4.1","14193","","<p>Which tone was played fourth after the cadence?</p><p>Please respond as quickly and as accurately as possible!</p>","12","","4","new_stimuli/mp3/melody_v5_^6+_^7_^1_5_.mp3"
"","797.3849999830127","html-button-response","129","24424730","0.0-17.0-5.1","14193","","<p>Which tone was played fifth after the cadence?</p><p>Please respond as quickly and as accurately as possible!</p>","7","","5","new_stimuli/mp3/melody_v5_^6+_^7_^1_5_.mp3"
"","null","audio-keyboard-response","130","24435671","0.0-17.0-0.2","14193","","new_stimuli/mp3/melody_v5-_v3_3_^4+_v3_.mp3","","null","",""
"","1862.019999999553","html-button-response","131","24437534","0.0-17.0-1.2","14193","","<p>Which tone was played first after the cadence?</p><p>Please respond as quickly and as accurately as possible!</p>","6","","1","new_stimuli/mp3/melody_v5-_v3_3_^4+_v3_.mp3"
"","2246.545000001788","html-button-response","132","24439782","0.0-17.0-2.2","14193","","<p>Which tone was played second after the cadence?</p><p>Please respond as quickly and as accurately as possible!</p>","5","","2","new_stimuli/mp3/melody_v5-_v3_3_^4+_v3_.mp3"
"","445.1600000038743","html-button-response","133","24440228","0.0-17.0-3.2","14193","","<p>Which tone was played third after the cadence?</p><p>Please respond as quickly and as accurately as possible!</p>","5","","3","new_stimuli/mp3/melody_v5-_v3_3_^4+_v3_.mp3"
"","498.8250000178814","html-button-response","134","24440728","0.0-17.0-4.2","14193","","<p>Which tone was played fourth after the cadence?</p><p>Please respond as quickly and as accurately as possible!</p>","6","","4","new_stimuli/mp3/melody_v5-_v3_3_^4+_v3_.mp3"
"","562.7850000150502","html-button-response","135","24441292","0.0-17.0-5.2","14193","","<p>Which tone was played fifth after the cadence?</p><p>Please respond as quickly and as accurately as possible!</p>","5","","5","new_stimuli/mp3/melody_v5-_v3_3_^4+_v3_.mp3"
"","null","audio-keyboard-response","136","24451931","0.0-17.0-0.3","14193","","new_stimuli/mp3/melody_^6_v4_v3_^4_^5_.mp3","","null","",""
"","47014.04500001669","html-button-response","137","24498946","0.0-17.0-1.3","14193","","<p>Which tone was played first after the cadence?</p><p>Please respond as quickly and as accurately as possible!</p>","7","","1","new_stimuli/mp3/melody_^6_v4_v3_^4_^5_.mp3"
"","508.8349999859929","html-button-response","138","24499456","0.0-17.0-2.3","14193","","<p>Which tone was played second after the cadence?</p><p>Please respond as quickly and as accurately as possible!</p>","5","","2","new_stimuli/mp3/melody_^6_v4_v3_^4_^5_.mp3"
"","412.6300000362098","html-button-response","139","24499869","0.0-17.0-3.3","14193","","<p>Which tone was played third after the cadence?</p><p>Please respond as quickly and as accurately as possible!</p>","4","","3","new_stimuli/mp3/melody_^6_v4_v3_^4_^5_.mp3"
"","367.38499999046326","html-button-response","140","24500238","0.0-17.0-4.3","14193","","<p>Which tone was played fourth after the cadence?</p><p>Please respond as quickly and as accurately as possible!</p>","5","","4","new_stimuli/mp3/melody_^6_v4_v3_^4_^5_.mp3"
"","477.3500000014901","html-button-response","141","24500716","0.0-17.0-5.3","14193","","<p>Which tone was played fifth after the cadence?</p><p>Please respond as quickly and as accurately as possible!</p>","7","","5","new_stimuli/mp3/melody_^6_v4_v3_^4_^5_.mp3"
"","null","audio-keyboard-response","142","24511404","0.0-17.0-0.4","14193","","new_stimuli/mp3/melody_^6_v5_v4_v3_v2_buffer.mp3","","null","",""
"","5171.3350000195205","html-button-response","143","24516576","0.0-17.0-1.4","14193","","<p>Which tone was played first after the cadence?</p><p>Please respond as quickly and as accurately as possible!</p>","9","","1","new_stimuli/mp3/melody_^6_v5_v4_v3_v2_buffer.mp3"
"","516.4300000183284","html-button-response","144","24517094","0.0-17.0-2.4","14193","","<p>Which tone was played second after the cadence?</p><p>Please respond as quickly and as accurately as possible!</p>","7","","2","new_stimuli/mp3/melody_^6_v5_v4_v3_v2_buffer.mp3"
"","898.6900000013411","html-button-response","145","24517993","0.0-17.0-3.4","14193","","<p>Which tone was played third after the cadence?</p><p>Please respond as quickly and as accurately as possible!</p>","5","","3","new_stimuli/mp3/melody_^6_v5_v4_v3_v2_buffer.mp3"
"","1079.2800000049174","html-button-response","146","24519073","0.0-17.0-4.4","14193","","<p>Which tone was played fourth after the cadence?</p><p>Please respond as quickly and as accurately as possible!</p>","4","","4","new_stimuli/mp3/melody_^6_v5_v4_v3_v2_buffer.mp3"
"","530.8049999885261","html-button-response","147","24519605","0.0-17.0-5.4","14193","","<p>Which tone was played fifth after the cadence?</p><p>Please respond as quickly and as accurately as possible!</p>","2","","5","new_stimuli/mp3/melody_^6_v5_v4_v3_v2_buffer.mp3"
"","null","audio-keyboard-response","148","24530554","0.0-17.0-0.5","14193","","new_stimuli/mp3/melody_^5_^6_v5_v4_v3_buffer.mp3","","null","",""
"","1262.7499999925494","html-button-response","149","24531818","0.0-17.0-1.5","14193","","<p>Which tone was played first after the cadence?</p><p>Please respond as quickly and as accurately as possible!</p>","7","","1","new_stimuli/mp3/melody_^5_^6_v5_v4_v3_buffer.mp3"
"","500.19500002637506","html-button-response","150","24532319","0.0-17.0-2.5","14193","","<p>Which tone was played second after the cadence?</p><p>Please respond as quickly and as accurately as possible!</p>","9","","2","new_stimuli/mp3/melody_^5_^6_v5_v4_v3_buffer.mp3"
"","461.0150000080466","html-button-response","151","24532781","0.0-17.0-3.5","14193","","<p>Which tone was played third after the cadence?</p><p>Please respond as quickly and as accurately as possible!</p>","7","","3","new_stimuli/mp3/melody_^5_^6_v5_v4_v3_buffer.mp3"
"","703.7350000441074","html-button-response","152","24533486","0.0-17.0-4.5","14193","","<p>Which tone was played fourth after the cadence?</p><p>Please respond as quickly and as accurately as possible!</p>","5","","4","new_stimuli/mp3/melody_^5_^6_v5_v4_v3_buffer.mp3"
"","610.4699999578297","html-button-response","153","24534097","0.0-17.0-5.5","14193","","<p>Which tone was played fifth after the cadence?</p><p>Please respond as quickly and as accurately as possible!</p>","4","","5","new_stimuli/mp3/melody_^5_^6_v5_v4_v3_buffer.mp3"
"","null","audio-keyboard-response","154","24544673","0.0-17.0-0.6","14193","","new_stimuli/mp3/melody_v2_2_^3_^4_v2_.mp3","","null","",""
"","13585.170000035316","html-button-response","155","24558260","0.0-17.0-1.6","14193","","<p>Which tone was played first after the cadence?</p><p>Please respond as quickly and as accurately as possible!</p>","2","","1","new_stimuli/mp3/melody_v2_2_^3_^4_v2_.mp3"
"","610.3249999582767","html-button-response","156","24558871","0.0-17.0-2.6","14193","","<p>Which tone was played second after the cadence?</p><p>Please respond as quickly and as accurately as possible!</p>","2","","2","new_stimuli/mp3/melody_v2_2_^3_^4_v2_.mp3"
"","633.4250000044703","html-button-response","157","24559506","0.0-17.0-3.6","14193","","<p>Which tone was played third after the cadence?</p><p>Please respond as quickly and as accurately as possible!</p>","4","","3","new_stimuli/mp3/melody_v2_2_^3_^4_v2_.mp3"
"","404.6349999830127","html-button-response","158","24559911","0.0-17.0-4.6","14193","","<p>Which tone was played fourth after the cadence?</p><p>Please respond as quickly and as accurately as possible!</p>","5","","4","new_stimuli/mp3/melody_v2_2_^3_^4_v2_.mp3"
"","563.1899999603629","html-button-response","159","24560475","0.0-17.0-5.6","14193","","<p>Which tone was played fifth after the cadence?</p><p>Please respond as quickly and as accurately as possible!</p>","2","","5","new_stimuli/mp3/melody_v2_2_^3_^4_v2_.mp3"
"","null","audio-keyboard-response","160","24571054","0.0-17.0-0.7","14193","","new_stimuli/mp3/melody_v5_v4_v3_v2_v1 _buffer.mp3","","null","",""
"","924.5499999970198","html-button-response","161","24571979","0.0-17.0-1.7","14193","","<p>Which tone was played first after the cadence?</p><p>Please respond as quickly and as accurately as possible!</p>","7","","1","new_stimuli/mp3/melody_v5_v4_v3_v2_v1 _buffer.mp3"
"","641.160000000149","html-button-response","162","24572621","0.0-17.0-2.7","14193","","<p>Which tone was played second after the cadence?</p><p>Please respond as quickly and as accurately as possible!</p>","5","","2","new_stimuli/mp3/melody_v5_v4_v3_v2_v1 _buffer.mp3"
"","406.81000001356006","html-button-response","163","24573029","0.0-17.0-3.7","14193","","<p>Which tone was played third after the cadence?</p><p>Please respond as quickly and as accurately as possible!</p>","4","","3","new_stimuli/mp3/melody_v5_v4_v3_v2_v1 _buffer.mp3"
"","485.6549999676645","html-button-response","164","24573516","0.0-17.0-4.7","14193","","<p>Which tone was played fourth after the cadence?</p><p>Please respond as quickly and as accurately as possible!</p>","2","","4","new_stimuli/mp3/melody_v5_v4_v3_v2_v1 _buffer.mp3"
"","506.9349999539554","html-button-response","165","24574024","0.0-17.0-5.7","14193","","<p>Which tone was played fifth after the cadence?</p><p>Please respond as quickly and as accurately as possible!</p>","0","","5","new_stimuli/mp3/melody_v5_v4_v3_v2_v1 _buffer.mp3"
"[{""page_index"":0,""viewing_time"":164990.82000000775},{""page_index"":1,""viewing_time"":1119.6099999919534},{""page_index"":2,""viewing_time"":97134.42000001669}]","263245.1250000149","instructions","166","24837269","0.0-18.0","14193","","","","","",""
"","null","audio-keyboard-response","167","24849389","0.0-19.0-0.0","14193","","new_stimuli/mp3/melody_^6_v5+_v4_^5+_v3_v1_v7-_.mp3","","null","",""
"","12294.75","html-button-response","168","24861685","0.0-19.0-1.0","14193","","<p>Which tone was played first after the cadence?</p><p>Please respond as quickly and as accurately as possible!</p>","8","","1","new_stimuli/mp3/melody_^6_v5+_v4_^5+_v3_v1_v7-_.mp3"
"","6230.909999985248","html-button-response","169","24867918","0.0-19.0-2.0","14193","","<p>Which tone was played second after the cadence?</p><p>Please respond as quickly and as accurately as possible!</p>","7","","2","new_stimuli/mp3/melody_^6_v5+_v4_^5+_v3_v1_v7-_.mp3"
"","3435.944999974221","html-button-response","170","24871355","0.0-19.0-3.0","14193","","<p>Which tone was played third after the cadence?</p><p>Please respond as quickly and as accurately as possible!</p>","4","","3","new_stimuli/mp3/melody_^6_v5+_v4_^5+_v3_v1_v7-_.mp3"
"","867.510000012815","html-button-response","171","24872223","0.0-19.0-4.0","14193","","<p>Which tone was played fourth after the cadence?</p><p>Please respond as quickly and as accurately as possible!</p>","7","","4","new_stimuli/mp3/melody_^6_v5+_v4_^5+_v3_v1_v7-_.mp3"
"","1518.7699999660254","html-button-response","172","24873743","0.0-19.0-5.0","14193","","<p>Which tone was played fifth after the cadence?</p><p>Please respond as quickly and as accurately as possible!</p>","8","","5","new_stimuli/mp3/melody_^6_v5+_v4_^5+_v3_v1_v7-_.mp3"
"","2002.7699999660254","html-button-response","173","24875747","0.0-19.0-6.0","14193","","<p>Which tone was played sixth after the cadence?</p><p>Please respond as quickly and as accurately as possible!</p>","9","","6","new_stimuli/mp3/melody_^6_v5+_v4_^5+_v3_v1_v7-_.mp3"
"","335.0949999913573","html-button-response","174","24876083","0.0-19.0-7.0","14193","","<p>Which tone was played seventh after the cadence?</p><p>Please respond as quickly and as accurately as possible!</p>","8","","7","new_stimuli/mp3/melody_^6_v5+_v4_^5+_v3_v1_v7-_.mp3"
"","null","audio-keyboard-response","175","24887789","0.0-19.0-0.1","14193","","new_stimuli/mp3/melody_v1_^2_v1_v7_^1_^3_v2_.mp3","","null","",""
"","1300.5149999521673","html-button-response","176","24889091","0.0-19.0-1.1","14193","","<p>Which tone was played first after the cadence?</p><p>Please respond as quickly and as accurately as possible!</p>","0","","1","new_stimuli/mp3/melody_v1_^2_v1_v7_^1_^3_v2_.mp3"
"","641.1249999664724","html-button-response","177","24889733","0.0-19.0-2.1","14193","","<p>Which tone was played second after the cadence?</p><p>Please respond as quickly and as accurately as possible!</p>","2","","2","new_stimuli/mp3/melody_v1_^2_v1_v7_^1_^3_v2_.mp3"
"","601.035000000149","html-button-response","178","24890335","0.0-19.0-3.1","14193","","<p>Which tone was played third after the cadence?</p><p>Please respond as quickly and as accurately as possible!</p>","0","","3","new_stimuli/mp3/melody_v1_^2_v1_v7_^1_^3_v2_.mp3"
"","774.9400000311434","html-button-response","179","24891111","0.0-19.0-4.1","14193","","<p>Which tone was played fourth after the cadence?</p><p>Please respond as quickly and as accurately as possible!</p>","11","","4","new_stimuli/mp3/melody_v1_^2_v1_v7_^1_^3_v2_.mp3"
"","781.0049999989569","html-button-response","180","24891893","0.0-19.0-5.1","14193","","<p>Which tone was played fifth after the cadence?</p><p>Please respond as quickly and as accurately as possible!</p>","12","","5","new_stimuli/mp3/melody_v1_^2_v1_v7_^1_^3_v2_.mp3"
"","1643.31000001356","html-button-response","181","24893538","0.0-19.0-6.1","14193","","<p>Which tone was played sixth after the cadence?</p><p>Please respond as quickly and as accurately as possible!</p>","3","","6","new_stimuli/mp3/melody_v1_^2_v1_v7_^1_^3_v2_.mp3"
"","742.619999974966","html-button-response","182","24894281","0.0-19.0-7.1","14193","","<p>Which tone was played seventh after the cadence?</p><p>Please respond as quickly and as accurately as possible!</p>","2","","7","new_stimuli/mp3/melody_v1_^2_v1_v7_^1_^3_v2_.mp3"
"","null","audio-keyboard-response","183","24905990","0.0-19.0-0.2","14193","","new_stimuli/mp3/melody_^4_^5_^6_v5_v4_v3_v2_.mp3","","null","",""
"","6315.17999997735","html-button-response","184","24912306","0.0-19.0-1.2","14193","","<p>Which tone was played first after the cadence?</p><p>Please respond as quickly and as accurately as possible!</p>","5","","1","new_stimuli/mp3/melody_^4_^5_^6_v5_v4_v3_v2_.mp3"
"","779.8799999840558","html-button-response","185","24913087","0.0-19.0-2.2","14193","","<p>Which tone was played second after the cadence?</p><p>Please respond as quickly and as accurately as possible!</p>","7","","2","new_stimuli/mp3/melody_^4_^5_^6_v5_v4_v3_v2_.mp3"
"","1041.365000013262","html-button-response","186","24914130","0.0-19.0-3.2","14193","","<p>Which tone was played third after the cadence?</p><p>Please respond as quickly and as accurately as possible!</p>","9","","3","new_stimuli/mp3/melody_^4_^5_^6_v5_v4_v3_v2_.mp3"
"","530.8300000056624","html-button-response","187","24914662","0.0-19.0-4.2","14193","","<p>Which tone was played fourth after the cadence?</p><p>Please respond as quickly and as accurately as possible!</p>","7","","4","new_stimuli/mp3/melody_^4_^5_^6_v5_v4_v3_v2_.mp3"
"","608.7299999780953","html-button-response","188","24915272","0.0-19.0-5.2","14193","","<p>Which tone was played fifth after the cadence?</p><p>Please respond as quickly and as accurately as possible!</p>","5","","5","new_stimuli/mp3/melody_^4_^5_^6_v5_v4_v3_v2_.mp3"
"","2043.0950000286102","html-button-response","189","24917316","0.0-19.0-6.2","14193","","<p>Which tone was played sixth after the cadence?</p><p>Please respond as quickly and as accurately as possible!</p>","4","","6","new_stimuli/mp3/melody_^4_^5_^6_v5_v4_v3_v2_.mp3"
"","1156.9100000187755","html-button-response","190","24918473","0.0-19.0-7.2","14193","","<p>Which tone was played seventh after the cadence?</p><p>Please respond as quickly and as accurately as possible!</p>","5","","7","new_stimuli/mp3/melody_^4_^5_^6_v5_v4_v3_v2_.mp3"
"","null","audio-keyboard-response","191","24930179","0.0-19.0-0.3","14193","","new_stimuli/mp3/melody_^1_v7_v6_v5_v4_v3_v2_buffer.mp3","","null","",""
"","962.5600000172853","html-button-response","192","24931143","0.0-19.0-1.3","14193","","<p>Which tone was played first after the cadence?</p><p>Please respond as quickly and as accurately as possible!</p>","11","","1","new_stimuli/mp3/melody_^1_v7_v6_v5_v4_v3_v2_buffer.mp3"
"","555.3899999931455","html-button-response","193","24931700","0.0-19.0-2.3","14193","","<p>Which tone was played second after the cadence?</p><p>Please respond as quickly and as accurately as possible!</p>","9","","2","new_stimuli/mp3/melody_^1_v7_v6_v5_v4_v3_v2_buffer.mp3"
"","687.0099999941885","html-button-response","194","24932388","0.0-19.0-3.3","14193","","<p>Which tone was played third after the cadence?</p><p>Please respond as quickly and as accurately as possible!</p>","7","","3","new_stimuli/mp3/melody_^1_v7_v6_v5_v4_v3_v2_buffer.mp3"
"","624.9499999657273","html-button-response","195","24933014","0.0-19.0-4.3","14193","","<p>Which tone was played fourth after the cadence?</p><p>Please respond as quickly and as accurately as possible!</p>","5","","4","new_stimuli/mp3/melody_^1_v7_v6_v5_v4_v3_v2_buffer.mp3"
"","697.6450000070035","html-button-response","196","24933712","0.0-19.0-5.3","14193","","<p>Which tone was played fifth after the cadence?</p><p>Please respond as quickly and as accurately as possible!</p>","4","","5","new_stimuli/mp3/melody_^1_v7_v6_v5_v4_v3_v2_buffer.mp3"
"","678.040000025183","html-button-response","197","24934391","0.0-19.0-6.3","14193","","<p>Which tone was played sixth after the cadence?</p><p>Please respond as quickly and as accurately as possible!</p>","2","","6","new_stimuli/mp3/melody_^1_v7_v6_v5_v4_v3_v2_buffer.mp3"
"","7955.510000001639","html-button-response","198","24942348","0.0-19.0-7.3","14193","","<p>Which tone was played seventh after the cadence?</p><p>Please respond as quickly and as accurately as possible!</p>","2","","7","new_stimuli/mp3/melody_^1_v7_v6_v5_v4_v3_v2_buffer.mp3"
"","null","audio-keyboard-response","199","24954020","0.0-19.0-0.4","14193","","new_stimuli/mp3/melody_^4_v6-_v5-_^6-_^4_v2-_2-_.mp3","","null","",""
"","11855.709999974817","html-button-response","200","24965877","0.0-19.0-1.4","14193","","<p>Which tone was played first after the cadence?</p><p>Please respond as quickly and as accurately as possible!</p>","7","","1","new_stimuli/mp3/melody_^4_v6-_v5-_^6-_^4_v2-_2-_.mp3"
"","1241.6399999633431","html-button-response","201","24967119","0.0-19.0-2.4","14193","","<p>Which tone was played second after the cadence?</p><p>Please respond as quickly and as accurately as possible!</p>","4","","2","new_stimuli/mp3/melody_^4_v6-_v5-_^6-_^4_v2-_2-_.mp3"
"","1040.8150000162423","html-button-response","202","24968161","0.0-19.0-3.4","14193","","<p>Which tone was played third after the cadence?</p><p>Please respond as quickly and as accurately as possible!</p>","2","","3","new_stimuli/mp3/melody_^4_v6-_v5-_^6-_^4_v2-_2-_.mp3"
"","1047.004999998957","html-button-response","203","24969209","0.0-19.0-4.4","14193","","<p>Which tone was played fourth after the cadence?</p><p>Please respond as quickly and as accurately as possible!</p>","4","","4","new_stimuli/mp3/melody_^4_v6-_v5-_^6-_^4_v2-_2-_.mp3"
"","3342.2800000421703","html-button-response","204","24972553","0.0-19.0-5.4","14193","","<p>Which tone was played fifth after the cadence?</p><p>Please respond as quickly and as accurately as possible!</p>","7","","5","new_stimuli/mp3/melody_^4_v6-_v5-_^6-_^4_v2-_2-_.mp3"
"","648.5649999827147","html-button-response","205","24973203","0.0-19.0-6.4","14193","","<p>Which tone was played sixth after the cadence?</p><p>Please respond as quickly and as accurately as possible!</p>","4","","6","new_stimuli/mp3/melody_^4_v6-_v5-_^6-_^4_v2-_2-_.mp3"
"","203.36499996483326","html-button-response","206","24973407","0.0-19.0-7.4","14193","","<p>Which tone was played seventh after the cadence?</p><p>Please respond as quickly and as accurately as possible!</p>","4","","7","new_stimuli/mp3/melody_^4_v6-_v5-_^6-_^4_v2-_2-_.mp3"
"","null","audio-keyboard-response","207","24984979","0.0-19.0-0.5","14193","","new_stimuli/mp3/melody_^5_^6_v5_v4_v3_v2_v1_buffer.mp3","","null","",""
"","11777.765000004321","html-button-response","208","24996758","0.0-19.0-1.5","14193","","<p>Which tone was played first after the cadence?</p><p>Please respond as quickly and as accurately as possible!</p>","7","","1","new_stimuli/mp3/melody_^5_^6_v5_v4_v3_v2_v1_buffer.mp3"
"","452.56499998643994","html-button-response","209","24997212","0.0-19.0-2.5","14193","","<p>Which tone was played second after the cadence?</p><p>Please respond as quickly and as accurately as possible!</p>","9","","2","new_stimuli/mp3/melody_^5_^6_v5_v4_v3_v2_v1_buffer.mp3"
"","436.6900000013411","html-button-response","210","24997649","0.0-19.0-3.5","14193","","<p>Which tone was played third after the cadence?</p><p>Please respond as quickly and as accurately as possible!</p>","7","","3","new_stimuli/mp3/melody_^5_^6_v5_v4_v3_v2_v1_buffer.mp3"
"","602.8149999901652","html-button-response","211","24998253","0.0-19.0-4.5","14193","","<p>Which tone was played fourth after the cadence?</p><p>Please respond as quickly and as accurately as possible!</p>","5","","4","new_stimuli/mp3/melody_^5_^6_v5_v4_v3_v2_v1_buffer.mp3"
"","406.03499999269843","html-button-response","212","24998660","0.0-19.0-5.5","14193","","<p>Which tone was played fifth after the cadence?</p><p>Please respond as quickly and as accurately as possible!</p>","4","","5","new_stimuli/mp3/melody_^5_^6_v5_v4_v3_v2_v1_buffer.mp3"
"","796.3650000169873","html-button-response","213","24999457","0.0-19.0-6.5","14193","","<p>Which tone was played sixth after the cadence?</p><p>Please respond as quickly and as accurately as possible!</p>","2","","6","new_stimuli/mp3/melody_^5_^6_v5_v4_v3_v2_v1_buffer.mp3"
"","562.9250000342727","html-button-response","214","25000021","0.0-19.0-7.5","14193","","<p>Which tone was played seventh after the cadence?</p><p>Please respond as quickly and as accurately as possible!</p>","0","","7","new_stimuli/mp3/melody_^5_^6_v5_v4_v3_v2_v1_buffer.mp3"
"","null","audio-keyboard-response","215","25011989","0.0-19.0-0.6","14193","","new_stimuli/mp3/melody_1_^3_v1_^5_v3_v2_^3_.mp3","","null","",""
"","1513.1299999766052","html-button-response","216","25013503","0.0-19.0-1.6","14193","","<p>Which tone was played first after the cadence?</p><p>Please respond as quickly and as accurately as possible!</p>","0","","1","new_stimuli/mp3/melody_1_^3_v1_^5_v3_v2_^3_.mp3"
"","3082.6649999953806","html-button-response","217","25016587","0.0-19.0-2.6","14193","","<p>Which tone was played second after the cadence?</p><p>Please respond as quickly and as accurately as possible!</p>","4","","2","new_stimuli/mp3/melody_1_^3_v1_^5_v3_v2_^3_.mp3"
"","931.3400000110269","html-button-response","218","25017519","0.0-19.0-3.6","14193","","<p>Which tone was played third after the cadence?</p><p>Please respond as quickly and as accurately as possible!</p>","0","","3","new_stimuli/mp3/melody_1_^3_v1_^5_v3_v2_^3_.mp3"
"","2410.6799999698997","html-button-response","219","25019931","0.0-19.0-4.6","14193","","<p>Which tone was played fourth after the cadence?</p><p>Please respond as quickly and as accurately as possible!</p>","7","","4","new_stimuli/mp3/melody_1_^3_v1_^5_v3_v2_^3_.mp3"
"","2315.8549999929965","html-button-response","220","25022248","0.0-19.0-5.6","14193","","<p>Which tone was played fifth after the cadence?</p><p>Please respond as quickly and as accurately as possible!</p>","4","","5","new_stimuli/mp3/melody_1_^3_v1_^5_v3_v2_^3_.mp3"
"","508.620000038296","html-button-response","221","25022757","0.0-19.0-6.6","14193","","<p>Which tone was played sixth after the cadence?</p><p>Please respond as quickly and as accurately as possible!</p>","2","","6","new_stimuli/mp3/melody_1_^3_v1_^5_v3_v2_^3_.mp3"
"","476.92499996721745","html-button-response","222","25023235","0.0-19.0-7.6","14193","","<p>Which tone was played seventh after the cadence?</p><p>Please respond as quickly and as accurately as possible!</p>","4","","7","new_stimuli/mp3/melody_1_^3_v1_^5_v3_v2_^3_.mp3"
"[{""page_index"":0,""viewing_time"":10785254.039999973},{""page_index"":1,""viewing_time"":1095.9450000077486},{""page_index"":2,""viewing_time"":1189.4200000092387}]","10787539.99000002","instructions","223","35810776","0.0-20.0","14193","","","","","",""
"","null","audio-keyboard-response","224","35823427","0.0-21.0-0.0","14193","","new_stimuli/mp3/melody_v7_v6_v5_^6_v5_v4_^5_^6_v5_.mp3","","null","",""
"","10137.66500004381","html-button-response","225","35833566","0.0-21.0-1.0","14193","","<p>Which tone was played first after the cadence?</p><p>Please respond as quickly and as accurately as possible!</p>","5","","1","new_stimuli/mp3/melody_v7_v6_v5_^6_v5_v4_^5_^6_v5_.mp3"
"","696","html-button-response","226","35834263","0.0-21.0-2.0","14193","","<p>Which tone was played second after the cadence?</p><p>Please respond as quickly and as accurately as possible!</p>","4","","2","new_stimuli/mp3/melody_v7_v6_v5_^6_v5_v4_^5_^6_v5_.mp3"
"","609.399999961257","html-button-response","227","35834874","0.0-21.0-3.0","14193","","<p>Which tone was played third after the cadence?</p><p>Please respond as quickly and as accurately as possible!</p>","2","","3","new_stimuli/mp3/melody_v7_v6_v5_^6_v5_v4_^5_^6_v5_.mp3"
"","649.2349999547005","html-button-response","228","35835524","0.0-21.0-4.0","14193","","<p>Which tone was played fourth after the cadence?</p><p>Please respond as quickly and as accurately as possible!</p>","4","","4","new_stimuli/mp3/melody_v7_v6_v5_^6_v5_v4_^5_^6_v5_.mp3"
"","673.2400000318885","html-button-response","229","35836198","0.0-21.0-5.0","14193","","<p>Which tone was played fifth after the cadence?</p><p>Please respond as quickly and as accurately as possible!</p>","2","","5","new_stimuli/mp3/melody_v7_v6_v5_^6_v5_v4_^5_^6_v5_.mp3"
"","1157.0499999821186","html-button-response","230","35837356","0.0-21.0-6.0","14193","","<p>Which tone was played sixth after the cadence?</p><p>Please respond as quickly and as accurately as possible!</p>","4","","6","new_stimuli/mp3/melody_v7_v6_v5_^6_v5_v4_^5_^6_v5_.mp3"
"","562.2200000211596","html-button-response","231","35837920","0.0-21.0-7.0","14193","","<p>Which tone was played seventh after the cadence?</p><p>Please respond as quickly and as accurately as possible!</p>","5","","7","new_stimuli/mp3/melody_v7_v6_v5_^6_v5_v4_^5_^6_v5_.mp3"
"","804.9250000044703","html-button-response","232","35838726","0.0-21.0-8.0","14193","","<p>Which tone was played eight after the cadence?</p><p>Please respond as quickly and as accurately as possible!</p>","7","","8","new_stimuli/mp3/melody_v7_v6_v5_^6_v5_v4_^5_^6_v5_.mp3"
"","506.9600000306964","html-button-response","233","35839234","0.0-21.0-9.0","14193","","<p>Which tone was played nineth after the cadence?</p><p>Please respond as quickly and as accurately as possible!</p>","5","","9","new_stimuli/mp3/melody_v7_v6_v5_^6_v5_v4_^5_^6_v5_.mp3"
"","null","audio-keyboard-response","234","35851887","0.0-21.0-0.1","14193","","new_stimuli/mp3/melody_^3_^4_v2_v7_^1_^2_^3_3_^4_.mp3","","null","",""
"","4107.759999983013","html-button-response","235","35855996","0.0-21.0-1.1","14193","","<p>Which tone was played first after the cadence?</p><p>Please respond as quickly and as accurately as possible!</p>","2","","1","new_stimuli/mp3/melody_^3_^4_v2_v7_^1_^2_^3_3_^4_.mp3"
"","641.1449999958277","html-button-response","236","35856638","0.0-21.0-2.1","14193","","<p>Which tone was played second after the cadence?</p><p>Please respond as quickly and as accurately as possible!</p>","4","","2","new_stimuli/mp3/melody_^3_^4_v2_v7_^1_^2_^3_3_^4_.mp3"
"","6506.319999985397","html-button-response","237","35863145","0.0-21.0-3.1","14193","","<p>Which tone was played third after the cadence?</p><p>Please respond as quickly and as accurately as possible!</p>","2","","3","new_stimuli/mp3/melody_^3_^4_v2_v7_^1_^2_^3_3_^4_.mp3"
"","1501.695000037551","html-button-response","238","35864648","0.0-21.0-4.1","14193","","<p>Which tone was played fourth after the cadence?</p><p>Please respond as quickly and as accurately as possible!</p>","11","","4","new_stimuli/mp3/melody_^3_^4_v2_v7_^1_^2_^3_3_^4_.mp3"
"","656.1250000372529","html-button-response","239","35865306","0.0-21.0-5.1","14193","","<p>Which tone was played fifth after the cadence?</p><p>Please respond as quickly and as accurately as possible!</p>","12","","5","new_stimuli/mp3/melody_^3_^4_v2_v7_^1_^2_^3_3_^4_.mp3"
"","1409.2400000095367","html-button-response","240","35866716","0.0-21.0-6.1","14193","","<p>Which tone was played sixth after the cadence?</p><p>Please respond as quickly and as accurately as possible!</p>","4","","6","new_stimuli/mp3/melody_^3_^4_v2_v7_^1_^2_^3_3_^4_.mp3"
"","609.315000012517","html-button-response","241","35867326","0.0-21.0-7.1","14193","","<p>Which tone was played seventh after the cadence?</p><p>Please respond as quickly and as accurately as possible!</p>","2","","7","new_stimuli/mp3/melody_^3_^4_v2_v7_^1_^2_^3_3_^4_.mp3"
"","1697.1749999821186","html-button-response","242","35869024","0.0-21.0-8.1","14193","","<p>Which tone was played eight after the cadence?</p><p>Please respond as quickly and as accurately as possible!</p>","0","","8","new_stimuli/mp3/melody_^3_^4_v2_v7_^1_^2_^3_3_^4_.mp3"
"","610.8350000008941","html-button-response","243","35869636","0.0-21.0-9.1","14193","","<p>Which tone was played nineth after the cadence?</p><p>Please respond as quickly and as accurately as possible!</p>","2","","9","new_stimuli/mp3/melody_^3_^4_v2_v7_^1_^2_^3_3_^4_.mp3"
"","null","audio-keyboard-response","244","35882327","0.0-21.0-0.2","14193","","new_stimuli/mp3/melody_^2_^3_^4_^5_^6_v5_v4_v3_v2_buffer.mp3","","null","",""
"","3145.324999988079","html-button-response","245","35885474","0.0-21.0-1.2","14193","","<p>Which tone was played first after the cadence?</p><p>Please respond as quickly and as accurately as possible!</p>","2","","1","new_stimuli/mp3/melody_^2_^3_^4_^5_^6_v5_v4_v3_v2_buffer.mp3"
"","656.955000013113","html-button-response","246","35886132","0.0-21.0-2.2","14193","","<p>Which tone was played second after the cadence?</p><p>Please respond as quickly and as accurately as possible!</p>","4","","2","new_stimuli/mp3/melody_^2_^3_^4_^5_^6_v5_v4_v3_v2_buffer.mp3"
"","741.5350000411272","html-button-response","247","35886876","0.0-21.0-3.2","14193","","<p>Which tone was played third after the cadence?</p><p>Please respond as quickly and as accurately as possible!</p>","5","","3","new_stimuli/mp3/melody_^2_^3_^4_^5_^6_v5_v4_v3_v2_buffer.mp3"
"","530.9249999672174","html-button-response","248","35887408","0.0-21.0-4.2","14193","","<p>Which tone was played fourth after the cadence?</p><p>Please respond as quickly and as accurately as possible!</p>","7","","4","new_stimuli/mp3/melody_^2_^3_^4_^5_^6_v5_v4_v3_v2_buffer.mp3"
"","993.3450000286102","html-button-response","249","35888402","0.0-21.0-5.2","14193","","<p>Which tone was played fifth after the cadence?</p><p>Please respond as quickly and as accurately as possible!</p>","9","","5","new_stimuli/mp3/melody_^2_^3_^4_^5_^6_v5_v4_v3_v2_buffer.mp3"
"","530.8750000521541","html-button-response","250","35888934","0.0-21.0-6.2","14193","","<p>Which tone was played sixth after the cadence?</p><p>Please respond as quickly and as accurately as possible!</p>","7","","6","new_stimuli/mp3/melody_^2_^3_^4_^5_^6_v5_v4_v3_v2_buffer.mp3"
"","680.9750000238419","html-button-response","251","35889616","0.0-21.0-7.2","14193","","<p>Which tone was played seventh after the cadence?</p><p>Please respond as quickly and as accurately as possible!</p>","5","","7","new_stimuli/mp3/melody_^2_^3_^4_^5_^6_v5_v4_v3_v2_buffer.mp3"
"","1227.1450000107288","html-button-response","252","35890844","0.0-21.0-8.2","14193","","<p>Which tone was played eight after the cadence?</p><p>Please respond as quickly and as accurately as possible!</p>","4","","8","new_stimuli/mp3/melody_^2_^3_^4_^5_^6_v5_v4_v3_v2_buffer.mp3"
"","1893.0249999985099","html-button-response","253","35892738","0.0-21.0-9.2","14193","","<p>Which tone was played nineth after the cadence?</p><p>Please respond as quickly and as accurately as possible!</p>","2","","9","new_stimuli/mp3/melody_^2_^3_^4_^5_^6_v5_v4_v3_v2_buffer.mp3"
"","null","audio-keyboard-response","254","35905696","0.0-21.0-0.3","14193","","new_stimuli/mp3/melody_^5_^6_v5_v4_v3_v2_v1_^2_^3_buffer.mp3","","null","",""
"","2957.970000050962","html-button-response","255","35908656","0.0-21.0-1.3","14193","","<p>Which tone was played first after the cadence?</p><p>Please respond as quickly and as accurately as possible!</p>","7","","1","new_stimuli/mp3/melody_^5_^6_v5_v4_v3_v2_v1_^2_^3_buffer.mp3"
"","656.580000013113","html-button-response","256","35909313","0.0-21.0-2.3","14193","","<p>Which tone was played second after the cadence?</p><p>Please respond as quickly and as accurately as possible!</p>","9","","2","new_stimuli/mp3/melody_^5_^6_v5_v4_v3_v2_v1_^2_^3_buffer.mp3"
"","547.4200000166893","html-button-response","257","35909862","0.0-21.0-3.3","14193","","<p>Which tone was played third after the cadence?</p><p>Please respond as quickly and as accurately as possible!</p>","7","","3","new_stimuli/mp3/melody_^5_^6_v5_v4_v3_v2_v1_^2_^3_buffer.mp3"
"","648.7900000065565","html-button-response","258","35910511","0.0-21.0-4.3","14193","","<p>Which tone was played fourth after the cadence?</p><p>Please respond as quickly and as accurately as possible!</p>","5","","4","new_stimuli/mp3/melody_^5_^6_v5_v4_v3_v2_v1_^2_^3_buffer.mp3"
"","608.9250000119209","html-button-response","259","35911121","0.0-21.0-5.3","14193","","<p>Which tone was played fifth after the cadence?</p><p>Please respond as quickly and as accurately as possible!</p>","4","","5","new_stimuli/mp3/melody_^5_^6_v5_v4_v3_v2_v1_^2_^3_buffer.mp3"
"","640.7899999767542","html-button-response","260","35911763","0.0-21.0-6.3","14193","","<p>Which tone was played sixth after the cadence?</p><p>Please respond as quickly and as accurately as possible!</p>","2","","6","new_stimuli/mp3/melody_^5_^6_v5_v4_v3_v2_v1_^2_^3_buffer.mp3"
"","494.0400000214577","html-button-response","261","35912258","0.0-21.0-7.3","14193","","<p>Which tone was played seventh after the cadence?</p><p>Please respond as quickly and as accurately as possible!</p>","0","","7","new_stimuli/mp3/melody_^5_^6_v5_v4_v3_v2_v1_^2_^3_buffer.mp3"
"","820.4499999955297","html-button-response","262","35913079","0.0-21.0-8.3","14193","","<p>Which tone was played eight after the cadence?</p><p>Please respond as quickly and as accurately as possible!</p>","2","","8","new_stimuli/mp3/melody_^5_^6_v5_v4_v3_v2_v1_^2_^3_buffer.mp3"
"","625.5200000032783","html-button-response","263","35913706","0.0-21.0-9.3","14193","","<p>Which tone was played nineth after the cadence?</p><p>Please respond as quickly and as accurately as possible!</p>","4","","9","new_stimuli/mp3/melody_^5_^6_v5_v4_v3_v2_v1_^2_^3_buffer.mp3"
"","null","audio-keyboard-response","264","35926627","0.0-21.0-0.4","14193","","new_stimuli/mp3/melody_^2_^4_v3_v2_v1_v3_v2+_^3_^5+_.mp3","","null","",""
"","8140.019999995828","html-button-response","265","35934768","0.0-21.0-1.4","14193","","<p>Which tone was played first after the cadence?</p><p>Please respond as quickly and as accurately as possible!</p>","4","","1","new_stimuli/mp3/melody_^2_^4_v3_v2_v1_v3_v2+_^3_^5+_.mp3"
"","525.3800000026822","html-button-response","266","35935295","0.0-21.0-2.4","14193","","<p>Which tone was played second after the cadence?</p><p>Please respond as quickly and as accurately as possible!</p>","5","","2","new_stimuli/mp3/melody_^2_^4_v3_v2_v1_v3_v2+_^3_^5+_.mp3"
"","530.0050000101328","html-button-response","267","35935826","0.0-21.0-3.4","14193","","<p>Which tone was played third after the cadence?</p><p>Please respond as quickly and as accurately as possible!</p>","4","","3","new_stimuli/mp3/melody_^2_^4_v3_v2_v1_v3_v2+_^3_^5+_.mp3"
"","608.4699999764562","html-button-response","268","35936435","0.0-21.0-4.4","14193","","<p>Which tone was played fourth after the cadence?</p><p>Please respond as quickly and as accurately as possible!</p>","2","","4","new_stimuli/mp3/melody_^2_^4_v3_v2_v1_v3_v2+_^3_^5+_.mp3"
"","1813.910000026226","html-button-response","269","35938252","0.0-21.0-5.4","14193","","<p>Which tone was played fifth after the cadence?</p><p>Please respond as quickly and as accurately as possible!</p>","0","","5","new_stimuli/mp3/melody_^2_^4_v3_v2_v1_v3_v2+_^3_^5+_.mp3"
"","1307.0500000044703","html-button-response","270","35939560","0.0-21.0-6.4","14193","","<p>Which tone was played sixth after the cadence?</p><p>Please respond as quickly and as accurately as possible!</p>","10","","6","new_stimuli/mp3/melody_^2_^4_v3_v2_v1_v3_v2+_^3_^5+_.mp3"
"","985.0799999535084","html-button-response","271","35940546","0.0-21.0-7.4","14193","","<p>Which tone was played seventh after the cadence?</p><p>Please respond as quickly and as accurately as possible!</p>","11","","7","new_stimuli/mp3/melody_^2_^4_v3_v2_v1_v3_v2+_^3_^5+_.mp3"
"","743.0350000485778","html-button-response","272","35941290","0.0-21.0-8.4","14193","","<p>Which tone was played eight after the cadence?</p><p>Please respond as quickly and as accurately as possible!</p>","9","","8","new_stimuli/mp3/melody_^2_^4_v3_v2_v1_v3_v2+_^3_^5+_.mp3"
"","390.92000003159046","html-button-response","273","35941682","0.0-21.0-9.4","14193","","<p>Which tone was played nineth after the cadence?</p><p>Please respond as quickly and as accurately as possible!</p>","12","","9","new_stimuli/mp3/melody_^2_^4_v3_v2_v1_v3_v2+_^3_^5+_.mp3"
"","null","audio-keyboard-response","274","35954248","0.0-21.0-0.5","14193","","new_stimuli/mp3/melody_^3_^4_^5 _^6_v5_v4_v3_v2_v1_.mp3","","null","",""
"","2800.9650000035763","html-button-response","275","35957050","0.0-21.0-1.5","14193","","<p>Which tone was played first after the cadence?</p><p>Please respond as quickly and as accurately as possible!</p>","4","","1","new_stimuli/mp3/melody_^3_^4_^5 _^6_v5_v4_v3_v2_v1_.mp3"
"","633.1149999797344","html-button-response","276","35957684","0.0-21.0-2.5","14193","","<p>Which tone was played second after the cadence?</p><p>Please respond as quickly and as accurately as possible!</p>","5","","2","new_stimuli/mp3/melody_^3_^4_^5 _^6_v5_v4_v3_v2_v1_.mp3"
"","689.5349999591708","html-button-response","277","35958374","0.0-21.0-3.5","14193","","<p>Which tone was played third after the cadence?</p><p>Please respond as quickly and as accurately as possible!</p>","7","","3","new_stimuli/mp3/melody_^3_^4_^5 _^6_v5_v4_v3_v2_v1_.mp3"
"","1502.2449999824166","html-button-response","278","35959878","0.0-21.0-4.5","14193","","<p>Which tone was played fourth after the cadence?</p><p>Please respond as quickly and as accurately as possible!</p>","9","","4","new_stimuli/mp3/melody_^3_^4_^5 _^6_v5_v4_v3_v2_v1_.mp3"
"","553.2450000196695","html-button-response","279","35960432","0.0-21.0-5.5","14193","","<p>Which tone was played fifth after the cadence?</p><p>Please respond as quickly and as accurately as possible!</p>","7","","5","new_stimuli/mp3/melody_^3_^4_^5 _^6_v5_v4_v3_v2_v1_.mp3"
"","1047.5349999666214","html-button-response","280","35961480","0.0-21.0-6.5","14193","","<p>Which tone was played sixth after the cadence?</p><p>Please respond as quickly and as accurately as possible!</p>","5","","6","new_stimuli/mp3/melody_^3_^4_^5 _^6_v5_v4_v3_v2_v1_.mp3"
"","476.8449999988079","html-button-response","281","35961958","0.0-21.0-7.5","14193","","<p>Which tone was played seventh after the cadence?</p><p>Please respond as quickly and as accurately as possible!</p>","4","","7","new_stimuli/mp3/melody_^3_^4_^5 _^6_v5_v4_v3_v2_v1_.mp3"
"","719.9749999567866","html-button-response","282","35962679","0.0-21.0-8.5","14193","","<p>Which tone was played eight after the cadence?</p><p>Please respond as quickly and as accurately as possible!</p>","2","","8","new_stimuli/mp3/melody_^3_^4_^5 _^6_v5_v4_v3_v2_v1_.mp3"
"","602.1199999898672","html-button-response","283","35963282","0.0-21.0-9.5","14193","","<p>Which tone was played nineth after the cadence?</p><p>Please respond as quickly and as accurately as possible!</p>","0","","9","new_stimuli/mp3/melody_^3_^4_^5 _^6_v5_v4_v3_v2_v1_.mp3"
"","null","audio-keyboard-response","284","35975926","0.0-21.0-0.6","14193","","new_stimuli/mp3/melody_v5_v4_v6+_^7_^3+_v3_v2_v5_^4_.mp3","","null","",""
"","6322.610000029206","html-button-response","285","35982250","0.0-21.0-1.6","14193","","<p>Which tone was played first after the cadence?</p><p>Please respond as quickly and as accurately as possible!</p>","7","","1","new_stimuli/mp3/melody_v5_v4_v6+_^7_^3+_v3_v2_v5_^4_.mp3"
"","1274.4050000309944","html-button-response","286","35983526","0.0-21.0-2.6","14193","","<p>Which tone was played second after the cadence?</p><p>Please respond as quickly and as accurately as possible!</p>","9","","2","new_stimuli/mp3/melody_v5_v4_v6+_^7_^3+_v3_v2_v5_^4_.mp3"
"","570.8800000175834","html-button-response","287","35984098","0.0-21.0-3.6","14193","","<p>Which tone was played third after the cadence?</p><p>Please respond as quickly and as accurately as possible!</p>","7","","3","new_stimuli/mp3/melody_v5_v4_v6+_^7_^3+_v3_v2_v5_^4_.mp3"
"","860.760000012815","html-button-response","288","35984960","0.0-21.0-4.6","14193","","<p>Which tone was played fourth after the cadence?</p><p>Please respond as quickly and as accurately as possible!</p>","5","","4","new_stimuli/mp3/melody_v5_v4_v6+_^7_^3+_v3_v2_v5_^4_.mp3"
"","1353.5949999913573","html-button-response","289","35986314","0.0-21.0-5.6","14193","","<p>Which tone was played fifth after the cadence?</p><p>Please respond as quickly and as accurately as possible!</p>","3","","5","new_stimuli/mp3/melody_v5_v4_v6+_^7_^3+_v3_v2_v5_^4_.mp3"
"","1204.6500000283122","html-button-response","290","35987520","0.0-21.0-6.6","14193","","<p>Which tone was played sixth after the cadence?</p><p>Please respond as quickly and as accurately as possible!</p>","2","","6","new_stimuli/mp3/melody_v5_v4_v6+_^7_^3+_v3_v2_v5_^4_.mp3"
"","1831.3199999928474","html-button-response","291","35989352","0.0-21.0-7.6","14193","","<p>Which tone was played seventh after the cadence?</p><p>Please respond as quickly and as accurately as possible!</p>","9","","7","new_stimuli/mp3/melody_v5_v4_v6+_^7_^3+_v3_v2_v5_^4_.mp3"
"","2175.344999998808","html-button-response","292","35991528","0.0-21.0-8.6","14193","","<p>Which tone was played eight after the cadence?</p><p>Please respond as quickly and as accurately as possible!</p>","11","","8","new_stimuli/mp3/melody_v5_v4_v6+_^7_^3+_v3_v2_v5_^4_.mp3"
"","4860.684999965131","html-button-response","293","35996390","0.0-21.0-9.6","14193","","<p>Which tone was played nineth after the cadence?</p><p>Please respond as quickly and as accurately as possible!</p>","4","","9","new_stimuli/mp3/melody_v5_v4_v6+_^7_^3+_v3_v2_v5_^4_.mp3"
"","21699.14500002563","survey-text","294","36018093","0.0-22.0","14193","{""Q0"":""Singing, intervals, melodic contour""}","","","","",""
"","3021.1499999836087","survey-text","295","36021114","0.0-23.0","14193","{""Q0"":""""}","","","","",""
"","5940.935000017285","survey-text","296","36027056","0.0-24.0","14193","{""Q0"":""no""}","","","","",""
"","6741.365000024438","survey-text","297","36033798","0.0-25.0","14193","{""Q0"":""Headphones""}","","","","",""
"","3599.340000011027","survey-text","298","36037398","0.0-26.0","14193","{""Q0"":""male""}","","","","",""
"","3631.1149999946356","survey-text","299","36041030","0.0-27.0","14193","{""Q0"":""yes""}","","","","",""
"[{""page_index"":0,""viewing_time"":3820.735000014305}]","3821.010000012815","instructions","300","36044852","0.0-28.0","14193","","","","","",""
