"view_history","rt","trial_type","trial_index","time_elapsed","internal_node_id","subject","responses","stimulus","button_pressed","key_press","response_sequence","melody"
"[{""page_index"":0,""viewing_time"":2304.3450000695884},{""page_index"":1,""viewing_time"":1334.2000000411645},{""page_index"":2,""viewing_time"":1634.059999953024}]","5274.460000102408","instructions","0","5299","0.0-0.0","22189","","","","","",""
"","2775.7650000276044","survey-text","1","8081","0.0-1.0","22189","{""Q0"":""18""}","","","","",""
"","40579.9700000789","survey-text","2","48664","0.0-2.0","22189","{""Q0"":""Bachelor's Student""}","","","","",""
"","13312.389999977313","survey-text","3","61977","0.0-3.0","22189","{""Q0"":""Numbers""}","","","","",""
"","25253.245000028983","survey-text","4","87231","0.0-4.0","22189","{""Q0"":""No""}","","","","",""
"","48247.629999998026","survey-text","5","135481","0.0-5.0","22189","{""Q0"":""5 years as a child""}","","","","",""
"","10136.345000006258","survey-text","6","145619","0.0-6.0","22189","{""Q0"":""0""}","","","","",""
"[{""page_index"":0,""viewing_time"":7312.514999997802},{""page_index"":1,""viewing_time"":29385.66999998875},{""page_index"":2,""viewing_time"":2187.114999978803}]","38886.134999920614","instructions","7","184507","0.0-7.0","22189","","","","","",""
"","10380.319999996573","audio-button-response","8","194898","0.0-8.0","22189","","stimuli/long/c-do.mp3","0","","",""
"","11176.025000051595","audio-button-response","9","206080","0.0-9.0","22189","","stimuli/long/a-le.mp3","4","","",""
"[{""page_index"":0,""viewing_time"":13141.545000020415},{""page_index"":1,""viewing_time"":105225.91499995906}]","118368.32499993034","instructions","10","324449","0.0-10.0","22189","","","","","",""
"","10940.565000055358","audio-button-response","11","335396","0.0-11.0-0.0","22189","","stimuli/long/a-do.mp3","0","","",""
"","null","audio-button-response","12","355403","0.0-11.0-0.1","22189","","stimuli/long/c-la.mp3","null","","",""
"","17614.034999976866","audio-button-response","13","373022","0.0-11.0-0.2","22189","","stimuli/long/c-sol.mp3","7","","",""
"","13327.689999947324","audio-button-response","14","386357","0.0-11.0-0.3","22189","","stimuli/long/e-ti.mp3","11","","",""
"","14467.074999934994","audio-button-response","15","400829","0.0-11.0-0.4","22189","","stimuli/long/e-ra.mp3","1","","",""
"","12590.884999954142","audio-button-response","16","413425","0.0-11.0-0.5","22189","","stimuli/long/c-fi.mp3","6","","",""
"","18709.789999993518","audio-button-response","17","432140","0.0-11.0-0.6","22189","","stimuli/long/e-la.mp3","5","","",""
"","10239.285000017844","audio-button-response","18","442384","0.0-11.0-0.7","22189","","stimuli/long/a-do8.mp3","0","","",""
"","14324.284999980591","audio-button-response","19","456712","0.0-11.0-0.8","22189","","stimuli/long/a-ra.mp3","2","","",""
"","10679.955000057817","audio-button-response","20","467398","0.0-11.0-0.9","22189","","stimuli/long/a-mi.mp3","4","","",""
"","10722.129999892786","audio-button-response","21","478131","0.0-11.0-0.10","22189","","stimuli/long/c-do.mp3","0","","",""
"","13213.090000092052","audio-button-response","22","491349","0.0-11.0-0.11","22189","","stimuli/long/e-mi.mp3","4","","",""
"","12936.31500005722","audio-button-response","23","504291","0.0-11.0-0.12","22189","","stimuli/long/c-mi.mp3","4","","",""
"","10505.210000090301","audio-button-response","24","514802","0.0-11.0-0.13","22189","","stimuli/long/a-sol.mp3","7","","",""
"","11410.10500001721","audio-button-response","25","526223","0.0-11.0-0.14","22189","","stimuli/long/e-sol.mp3","0","","",""
"","15277.275000000373","audio-button-response","26","541505","0.0-11.0-0.15","22189","","stimuli/long/e-re.mp3","5","","",""
"","17667.020000051707","audio-button-response","27","559175","0.0-11.0-0.16","22189","","stimuli/long/a-fa.mp3","9","","",""
"","17970.74000001885","audio-button-response","28","577152","0.0-11.0-0.17","22189","","stimuli/long/e-te.mp3","10","","",""
"","8885.414999909699","audio-button-response","29","586042","0.0-11.0-0.18","22189","","stimuli/long/c-do8.mp3","0","","",""
"","14932.06999998074","audio-button-response","30","600980","0.0-11.0-0.19","22189","","stimuli/long/c-re.mp3","5","","",""
"","18271.08999993652","audio-button-response","31","619256","0.0-11.0-0.20","22189","","stimuli/long/a-me.mp3","3","","",""
"","8928.240000037476","audio-button-response","32","628190","0.0-11.0-0.21","22189","","stimuli/long/e-do.mp3","12","","",""
"","17666.899999952875","audio-button-response","33","645863","0.0-11.0-0.22","22189","","stimuli/long/c-ra.mp3","9","","",""
"","14362.990000052378","audio-button-response","34","660231","0.0-11.0-0.23","22189","","stimuli/long/a-fi.mp3","6","","",""
"","14242.244999972172","audio-button-response","35","674479","0.0-11.0-0.24","22189","","stimuli/long/a-ti.mp3","11","","",""
"","15030.305000022054","audio-button-response","36","689514","0.0-11.0-0.25","22189","","stimuli/long/c-le.mp3","8","","",""
"","19716.189999948256","audio-button-response","37","709234","0.0-11.0-0.26","22189","","stimuli/long/e-fi.mp3","8","","",""
"","16907.804999966174","audio-button-response","38","726148","0.0-11.0-0.27","22189","","stimuli/long/c-ti.mp3","2","","",""
"","11153.830000082962","audio-button-response","39","737307","0.0-11.0-0.28","22189","","stimuli/long/c-me.mp3","0","","",""
"","null","audio-button-response","40","757312","0.0-11.0-0.29","22189","","stimuli/long/e-fa.mp3","null","","",""
"","221.49499994702637","audio-button-response","41","757539","0.0-11.0-0.30","22189","","stimuli/long/a-te.mp3","2","","",""
"","16233.170000021346","audio-button-response","42","773775","0.0-11.0-0.31","22189","","stimuli/long/a-re.mp3","1","","",""
"","null","audio-button-response","43","793780","0.0-11.0-0.32","22189","","stimuli/long/e-me.mp3","null","","",""
"","8474.625000031665","audio-button-response","44","802259","0.0-11.0-0.33","22189","","stimuli/long/e-do8.mp3","0","","",""
"","11696.579999988899","audio-button-response","45","813960","0.0-11.0-0.34","22189","","stimuli/long/c-fa.mp3","0","","",""
"","14341.080000041984","audio-button-response","46","828306","0.0-11.0-0.35","22189","","stimuli/long/a-le.mp3","8","","",""
"","17184.015000006184","audio-button-response","47","845495","0.0-11.0-0.36","22189","","stimuli/long/e-le.mp3","10","","",""
"","18987.479999894276","audio-button-response","48","864487","0.0-11.0-0.37","22189","","stimuli/long/a-la.mp3","9","","",""
"[{""page_index"":0,""viewing_time"":26909.14000000339},{""page_index"":1,""viewing_time"":2420.849999994971}]","29330.579999950714","instructions","49","893819","0.0-12.0","22189","","","","","",""
"","null","audio-keyboard-response","50","903176","0.0-13.0-0.0","22189","","new_stimuli/mp3/melody_3_^6_buffer.mp3","","null","",""
"","8895.46499995049","html-button-response","51","912077","0.0-13.0-1.0","22189","","<p>Which tone was played first after the cadence?</p><p>Please respond as quickly and as accurately as possible!</p>","2","","1","new_stimuli/mp3/melody_3_^6_buffer.mp3"
"","5564.970000064932","html-button-response","52","917647","0.0-13.0-2.0","22189","","<p>Which tone was played second after the cadence?</p><p>Please respond as quickly and as accurately as possible!</p>","7","","2","new_stimuli/mp3/melody_3_^6_buffer.mp3"
"","null","audio-keyboard-response","53","926846","0.0-13.0-0.1","22189","","new_stimuli/mp3/melody_v3_v2_buffer.mp3","","null","",""
"","14950.979999965057","html-button-response","54","941802","0.0-13.0-1.1","22189","","<p>Which tone was played first after the cadence?</p><p>Please respond as quickly and as accurately as possible!</p>","4","","1","new_stimuli/mp3/melody_v3_v2_buffer.mp3"
"","903.2400000141934","html-button-response","55","942710","0.0-13.0-2.1","22189","","<p>Which tone was played second after the cadence?</p><p>Please respond as quickly and as accurately as possible!</p>","2","","2","new_stimuli/mp3/melody_v3_v2_buffer.mp3"
"","null","audio-keyboard-response","56","951876","0.0-13.0-0.2","22189","","new_stimuli/mp3/melody_^2_v7-_.mp3","","null","",""
"","3822.569999960251","html-button-response","57","955702","0.0-13.0-1.2","22189","","<p>Which tone was played first after the cadence?</p><p>Please respond as quickly and as accurately as possible!</p>","0","","1","new_stimuli/mp3/melody_^2_v7-_.mp3"
"","17797.610000008717","html-button-response","58","973504","0.0-13.0-2.2","22189","","<p>Which tone was played second after the cadence?</p><p>Please respond as quickly and as accurately as possible!</p>","7","","2","new_stimuli/mp3/melody_^2_v7-_.mp3"
"","null","audio-keyboard-response","59","982676","0.0-13.0-0.3","22189","","new_stimuli/mp3/melody_v5_v1+_.mp3","","null","",""
"","11954.954999964684","html-button-response","60","994636","0.0-13.0-1.3","22189","","<p>Which tone was played first after the cadence?</p><p>Please respond as quickly and as accurately as possible!</p>","9","","1","new_stimuli/mp3/melody_v5_v1+_.mp3"
"","19848.274999996647","html-button-response","61","1014489","0.0-13.0-2.3","22189","","<p>Which tone was played second after the cadence?</p><p>Please respond as quickly and as accurately as possible!</p>","2","","2","new_stimuli/mp3/melody_v5_v1+_.mp3"
"","null","audio-keyboard-response","62","1023656","0.0-13.0-0.4","22189","","new_stimuli/mp3/melody_^5_^1+_.mp3","","null","",""
"","11023.05499999784","html-button-response","63","1034683","0.0-13.0-1.4","22189","","<p>Which tone was played first after the cadence?</p><p>Please respond as quickly and as accurately as possible!</p>","2","","1","new_stimuli/mp3/melody_^5_^1+_.mp3"
"","3861.9150000158697","html-button-response","64","1038550","0.0-13.0-2.4","22189","","<p>Which tone was played second after the cadence?</p><p>Please respond as quickly and as accurately as possible!</p>","8","","2","new_stimuli/mp3/melody_^5_^1+_.mp3"
"","null","audio-keyboard-response","65","1048005","0.0-13.0-0.5","22189","","new_stimuli/mp3/melody_^3_v4+_buffer.mp3","","null","",""
"","34501.56999996398","html-button-response","66","1082512","0.0-13.0-1.5","22189","","<p>Which tone was played first after the cadence?</p><p>Please respond as quickly and as accurately as possible!</p>","8","","1","new_stimuli/mp3/melody_^3_v4+_buffer.mp3"
"","840.169999981299","html-button-response","67","1083356","0.0-13.0-2.5","22189","","<p>Which tone was played second after the cadence?</p><p>Please respond as quickly and as accurately as possible!</p>","9","","2","new_stimuli/mp3/melody_^3_v4+_buffer.mp3"
"","null","audio-keyboard-response","68","1092832","0.0-13.0-0.6","22189","","new_stimuli/mp3/melody_v4_v3_buffer.mp3","","null","",""
"","27795.805000001565","html-button-response","69","1120632","0.0-13.0-1.6","22189","","<p>Which tone was played first after the cadence?</p><p>Please respond as quickly and as accurately as possible!</p>","5","","1","new_stimuli/mp3/melody_v4_v3_buffer.mp3"
"","5164.214999997057","html-button-response","70","1125801","0.0-13.0-2.6","22189","","<p>Which tone was played second after the cadence?</p><p>Please respond as quickly and as accurately as possible!</p>","4","","2","new_stimuli/mp3/melody_v4_v3_buffer.mp3"
"","null","audio-keyboard-response","71","1135254","0.0-13.0-0.7","22189","","new_stimuli/mp3/melody_v7_v3_buffer.mp3","","null","",""
"","14180.534999934025","html-button-response","72","1149439","0.0-13.0-1.7","22189","","<p>Which tone was played first after the cadence?</p><p>Please respond as quickly and as accurately as possible!</p>","6","","1","new_stimuli/mp3/melody_v7_v3_buffer.mp3"
"","1671.3699999963865","html-button-response","73","1151114","0.0-13.0-2.7","22189","","<p>Which tone was played second after the cadence?</p><p>Please respond as quickly and as accurately as possible!</p>","1","","2","new_stimuli/mp3/melody_v7_v3_buffer.mp3"
"","null","audio-keyboard-response","74","1160124","0.0-13.0-0.8","22189","","new_stimuli/mp3/melody_^1_^2+_.mp3","","null","",""
"","1553.3149999100715","html-button-response","75","1161681","0.0-13.0-1.8","22189","","<p>Which tone was played first after the cadence?</p><p>Please respond as quickly and as accurately as possible!</p>","0","","1","new_stimuli/mp3/melody_^1_^2+_.mp3"
"","5882.400000002235","html-button-response","76","1167567","0.0-13.0-2.8","22189","","<p>Which tone was played second after the cadence?</p><p>Please respond as quickly and as accurately as possible!</p>","3","","2","new_stimuli/mp3/melody_^1_^2+_.mp3"
"","null","audio-keyboard-response","77","1176633","0.0-13.0-0.9","22189","","new_stimuli/mp3/melody_v2_v1_.mp3","","null","",""
"","3452.984999981709","html-button-response","78","1180091","0.0-13.0-1.9","22189","","<p>Which tone was played first after the cadence?</p><p>Please respond as quickly and as accurately as possible!</p>","1","","1","new_stimuli/mp3/melody_v2_v1_.mp3"
"","2218.2899999897927","html-button-response","79","1182318","0.0-13.0-2.9","22189","","<p>Which tone was played second after the cadence?</p><p>Please respond as quickly and as accurately as possible!</p>","11","","2","new_stimuli/mp3/melody_v2_v1_.mp3"
"[{""page_index"":0,""viewing_time"":13779.674999997951},{""page_index"":1,""viewing_time"":2733.5500000044703},{""page_index"":2,""viewing_time"":1861.739999963902}]","18375.560000073165","instructions","80","1200695","0.0-14.0","22189","","","","","",""
"","null","audio-keyboard-response","81","1210593","0.0-15.0-0.0","22189","","new_stimuli/mp3/melody_^1_v6_v5+_.mp3","","null","",""
"","11433.480000006966","html-button-response","82","1222031","0.0-15.0-1.0","22189","","<p>Which tone was played first after the cadence?</p><p>Please respond as quickly and as accurately as possible!</p>","0","","1","new_stimuli/mp3/melody_^1_v6_v5+_.mp3"
"","8025.449999957345","html-button-response","83","1230062","0.0-15.0-2.0","22189","","<p>Which tone was played second after the cadence?</p><p>Please respond as quickly and as accurately as possible!</p>","10","","2","new_stimuli/mp3/melody_^1_v6_v5+_.mp3"
"","1239.0950000844896","html-button-response","84","1231307","0.0-15.0-3.0","22189","","<p>Which tone was played third after the cadence?</p><p>Please respond as quickly and as accurately as possible!</p>","9","","3","new_stimuli/mp3/melody_^1_v6_v5+_.mp3"
"","null","audio-keyboard-response","85","1240864","0.0-15.0-0.1","22189","","new_stimuli/mp3/melody_v1_v7-_^7_.mp3","","null","",""
"","13680.865000002086","html-button-response","86","1254549","0.0-15.0-1.1","22189","","<p>Which tone was played first after the cadence?</p><p>Please respond as quickly and as accurately as possible!</p>","0","","1","new_stimuli/mp3/melody_v1_v7-_^7_.mp3"
"","2585.5999999912456","html-button-response","87","1257140","0.0-15.0-2.1","22189","","<p>Which tone was played second after the cadence?</p><p>Please respond as quickly and as accurately as possible!</p>","9","","2","new_stimuli/mp3/melody_v1_v7-_^7_.mp3"
"","605.0450000911951","html-button-response","88","1257748","0.0-15.0-3.1","22189","","<p>Which tone was played third after the cadence?</p><p>Please respond as quickly and as accurately as possible!</p>","10","","3","new_stimuli/mp3/melody_v1_v7-_^7_.mp3"
"","null","audio-keyboard-response","89","1267254","0.0-15.0-0.2","22189","","new_stimuli/mp3/melody_1_v1+_^2_.mp3","","null","",""
"","8118.009999976493","html-button-response","90","1275376","0.0-15.0-1.2","22189","","<p>Which tone was played first after the cadence?</p><p>Please respond as quickly and as accurately as possible!</p>","2","","1","new_stimuli/mp3/melody_1_v1+_^2_.mp3"
"","520.5499998992309","html-button-response","91","1275905","0.0-15.0-2.2","22189","","<p>Which tone was played second after the cadence?</p><p>Please respond as quickly and as accurately as possible!</p>","3","","2","new_stimuli/mp3/melody_1_v1+_^2_.mp3"
"","540.4400000115857","html-button-response","92","1276449","0.0-15.0-3.2","22189","","<p>Which tone was played third after the cadence?</p><p>Please respond as quickly and as accurately as possible!</p>","4","","3","new_stimuli/mp3/melody_1_v1+_^2_.mp3"
"","null","audio-keyboard-response","93","1286083","0.0-15.0-0.3","22189","","new_stimuli/mp3/melody_6_^1_v5_.mp3","","null","",""
"","22899.330000043847","html-button-response","94","1308986","0.0-15.0-1.3","22189","","<p>Which tone was played first after the cadence?</p><p>Please respond as quickly and as accurately as possible!</p>","0","","1","new_stimuli/mp3/melody_6_^1_v5_.mp3"
"","4531.3399999868125","html-button-response","95","1313522","0.0-15.0-2.3","22189","","<p>Which tone was played second after the cadence?</p><p>Please respond as quickly and as accurately as possible!</p>","4","","2","new_stimuli/mp3/melody_6_^1_v5_.mp3"
"","563.4199999039993","html-button-response","96","1314090","0.0-15.0-3.3","22189","","<p>Which tone was played third after the cadence?</p><p>Please respond as quickly and as accurately as possible!</p>","5","","3","new_stimuli/mp3/melody_6_^1_v5_.mp3"
"","null","audio-keyboard-response","97","1324064","0.0-15.0-0.4","22189","","new_stimuli/mp3/melody_v2_v5_^3_buffer.mp3","","null","",""
"","19301.710000028834","html-button-response","98","1343370","0.0-15.0-1.4","22189","","<p>Which tone was played first after the cadence?</p><p>Please respond as quickly and as accurately as possible!</p>","0","","1","new_stimuli/mp3/melody_v2_v5_^3_buffer.mp3"
"","1512.8650000551715","html-button-response","99","1344887","0.0-15.0-2.4","22189","","<p>Which tone was played second after the cadence?</p><p>Please respond as quickly and as accurately as possible!</p>","7","","2","new_stimuli/mp3/melody_v2_v5_^3_buffer.mp3"
"","1262.8999999724329","html-button-response","100","1346154","0.0-15.0-3.4","22189","","<p>Which tone was played third after the cadence?</p><p>Please respond as quickly and as accurately as possible!</p>","4","","3","new_stimuli/mp3/melody_v2_v5_^3_buffer.mp3"
"","null","audio-keyboard-response","101","1355854","0.0-15.0-0.5","22189","","new_stimuli/mp3/melody_v4_v3_v2_buffer.mp3","","null","",""
"","21087.54500001669","html-button-response","102","1376945","0.0-15.0-1.5","22189","","<p>Which tone was played first after the cadence?</p><p>Please respond as quickly and as accurately as possible!</p>","5","","1","new_stimuli/mp3/melody_v4_v3_v2_buffer.mp3"
"","738.0600000033155","html-button-response","103","1377690","0.0-15.0-2.5","22189","","<p>Which tone was played second after the cadence?</p><p>Please respond as quickly and as accurately as possible!</p>","4","","2","new_stimuli/mp3/melody_v4_v3_v2_buffer.mp3"
"","711.2450000131503","html-button-response","104","1378405","0.0-15.0-3.5","22189","","<p>Which tone was played third after the cadence?</p><p>Please respond as quickly and as accurately as possible!</p>","2","","3","new_stimuli/mp3/melody_v4_v3_v2_buffer.mp3"
"","null","audio-keyboard-response","105","1387964","0.0-15.0-0.6","22189","","new_stimuli/mp3/melody_v3_v2_v1_.mp3","","null","",""
"","2030.0399999832734","html-button-response","106","1389998","0.0-15.0-1.6","22189","","<p>Which tone was played first after the cadence?</p><p>Please respond as quickly and as accurately as possible!</p>","4","","1","new_stimuli/mp3/melody_v3_v2_v1_.mp3"
"","660.8850000193343","html-button-response","107","1390663","0.0-15.0-2.6","22189","","<p>Which tone was played second after the cadence?</p><p>Please respond as quickly and as accurately as possible!</p>","2","","2","new_stimuli/mp3/melody_v3_v2_v1_.mp3"
"","767.5299999536946","html-button-response","108","1391434","0.0-15.0-3.6","22189","","<p>Which tone was played third after the cadence?</p><p>Please respond as quickly and as accurately as possible!</p>","0","","3","new_stimuli/mp3/melody_v3_v2_v1_.mp3"
"","null","audio-keyboard-response","109","1401393","0.0-15.0-0.7","22189","","new_stimuli/mp3/melody_v5_v4_v3_buffer.mp3","","null","",""
"","11262.125000008382","html-button-response","110","1412660","0.0-15.0-1.7","22189","","<p>Which tone was played first after the cadence?</p><p>Please respond as quickly and as accurately as possible!</p>","7","","1","new_stimuli/mp3/melody_v5_v4_v3_buffer.mp3"
"","1684.4449999043718","html-button-response","111","1414349","0.0-15.0-2.7","22189","","<p>Which tone was played second after the cadence?</p><p>Please respond as quickly and as accurately as possible!</p>","5","","2","new_stimuli/mp3/melody_v5_v4_v3_buffer.mp3"
"","1593.2400000747293","html-button-response","112","1415945","0.0-15.0-3.7","22189","","<p>Which tone was played third after the cadence?</p><p>Please respond as quickly and as accurately as possible!</p>","4","","3","new_stimuli/mp3/melody_v5_v4_v3_buffer.mp3"
"","null","audio-keyboard-response","113","1425533","0.0-15.0-0.8","22189","","new_stimuli/mp3/melody_v1_v7-_7-_buffer.mp3","","null","",""
"","27495.074999984354","html-button-response","114","1453032","0.0-15.0-1.8","22189","","<p>Which tone was played first after the cadence?</p><p>Please respond as quickly and as accurately as possible!</p>","3","","1","new_stimuli/mp3/melody_v1_v7-_7-_buffer.mp3"
"","1305.9249999932945","html-button-response","115","1454342","0.0-15.0-2.8","22189","","<p>Which tone was played second after the cadence?</p><p>Please respond as quickly and as accurately as possible!</p>","0","","2","new_stimuli/mp3/melody_v1_v7-_7-_buffer.mp3"
"","611.890000058338","html-button-response","116","1454958","0.0-15.0-3.8","22189","","<p>Which tone was played third after the cadence?</p><p>Please respond as quickly and as accurately as possible!</p>","0","","3","new_stimuli/mp3/melody_v1_v7-_7-_buffer.mp3"
"[{""page_index"":0,""viewing_time"":19277.32500003185},{""page_index"":1,""viewing_time"":12333.34500005003},{""page_index"":2,""viewing_time"":8678.304999950342}]","40289.6100000944","instructions","117","1495249","0.0-16.0","22189","","","","","",""
"","null","audio-keyboard-response","118","1507264","0.0-17.0-0.0","22189","","new_stimuli/mp3/melody_v5-_v3_3_^4+_v3_.mp3","","null","",""
"","17878.73999995645","html-button-response","119","1525146","0.0-17.0-1.0","22189","","<p>Which tone was played first after the cadence?</p><p>Please respond as quickly and as accurately as possible!</p>","3","","1","new_stimuli/mp3/melody_v5-_v3_3_^4+_v3_.mp3"
"","1011.629999964498","html-button-response","120","1526163","0.0-17.0-2.0","22189","","<p>Which tone was played second after the cadence?</p><p>Please respond as quickly and as accurately as possible!</p>","2","","2","new_stimuli/mp3/melody_v5-_v3_3_^4+_v3_.mp3"
"","454.5249999500811","html-button-response","121","1526621","0.0-17.0-3.0","22189","","<p>Which tone was played third after the cadence?</p><p>Please respond as quickly and as accurately as possible!</p>","2","","3","new_stimuli/mp3/melody_v5-_v3_3_^4+_v3_.mp3"
"","561.7449999554083","html-button-response","122","1527186","0.0-17.0-4.0","22189","","<p>Which tone was played fourth after the cadence?</p><p>Please respond as quickly and as accurately as possible!</p>","3","","4","new_stimuli/mp3/melody_v5-_v3_3_^4+_v3_.mp3"
"","575.4549999255687","html-button-response","123","1527765","0.0-17.0-5.0","22189","","<p>Which tone was played fifth after the cadence?</p><p>Please respond as quickly and as accurately as possible!</p>","2","","5","new_stimuli/mp3/melody_v5-_v3_3_^4+_v3_.mp3"
"","null","audio-keyboard-response","124","1538343","0.0-17.0-0.1","22189","","new_stimuli/mp3/melody_v5_v4_v3_v2_v1 _buffer.mp3","","null","",""
"","2341.86500008218","html-button-response","125","1540690","0.0-17.0-1.1","22189","","<p>Which tone was played first after the cadence?</p><p>Please respond as quickly and as accurately as possible!</p>","7","","1","new_stimuli/mp3/melody_v5_v4_v3_v2_v1 _buffer.mp3"
"","941.6849999688566","html-button-response","126","1541635","0.0-17.0-2.1","22189","","<p>Which tone was played second after the cadence?</p><p>Please respond as quickly and as accurately as possible!</p>","5","","2","new_stimuli/mp3/melody_v5_v4_v3_v2_v1 _buffer.mp3"
"","940.7600000267848","html-button-response","127","1542579","0.0-17.0-3.1","22189","","<p>Which tone was played third after the cadence?</p><p>Please respond as quickly and as accurately as possible!</p>","4","","3","new_stimuli/mp3/melody_v5_v4_v3_v2_v1 _buffer.mp3"
"","833.0599999753758","html-button-response","128","1543416","0.0-17.0-4.1","22189","","<p>Which tone was played fourth after the cadence?</p><p>Please respond as quickly and as accurately as possible!</p>","2","","4","new_stimuli/mp3/melody_v5_v4_v3_v2_v1 _buffer.mp3"
"","928.5500000696629","html-button-response","129","1544347","0.0-17.0-5.1","22189","","<p>Which tone was played fifth after the cadence?</p><p>Please respond as quickly and as accurately as possible!</p>","0","","5","new_stimuli/mp3/melody_v5_v4_v3_v2_v1 _buffer.mp3"
"","null","audio-keyboard-response","130","1555293","0.0-17.0-0.2","22189","","new_stimuli/mp3/melody_^5_^6_v5_v4_v3_buffer.mp3","","null","",""
"","14346.870000008494","html-button-response","131","1569644","0.0-17.0-1.2","22189","","<p>Which tone was played first after the cadence?</p><p>Please respond as quickly and as accurately as possible!</p>","7","","1","new_stimuli/mp3/melody_^5_^6_v5_v4_v3_buffer.mp3"
"","1563.4400000562891","html-button-response","132","1571213","0.0-17.0-2.2","22189","","<p>Which tone was played second after the cadence?</p><p>Please respond as quickly and as accurately as possible!</p>","5","","2","new_stimuli/mp3/melody_^5_^6_v5_v4_v3_buffer.mp3"
"","3259.84499999322","html-button-response","133","1574476","0.0-17.0-3.2","22189","","<p>Which tone was played third after the cadence?</p><p>Please respond as quickly and as accurately as possible!</p>","7","","3","new_stimuli/mp3/melody_^5_^6_v5_v4_v3_buffer.mp3"
"","952.129999990575","html-button-response","134","1575435","0.0-17.0-4.2","22189","","<p>Which tone was played fourth after the cadence?</p><p>Please respond as quickly and as accurately as possible!</p>","5","","4","new_stimuli/mp3/melody_^5_^6_v5_v4_v3_buffer.mp3"
"","540.6700000166893","html-button-response","135","1575979","0.0-17.0-5.2","22189","","<p>Which tone was played fifth after the cadence?</p><p>Please respond as quickly and as accurately as possible!</p>","4","","5","new_stimuli/mp3/melody_^5_^6_v5_v4_v3_buffer.mp3"
"","null","audio-keyboard-response","136","1586553","0.0-17.0-0.3","22189","","new_stimuli/mp3/melody_v5_v4_v3_v2_v1_.mp3","","null","",""
"","2231.6800000844523","html-button-response","137","1588789","0.0-17.0-1.3","22189","","<p>Which tone was played first after the cadence?</p><p>Please respond as quickly and as accurately as possible!</p>","7","","1","new_stimuli/mp3/melody_v5_v4_v3_v2_v1_.mp3"
"","1026.9100000150502","html-button-response","138","1589819","0.0-17.0-2.3","22189","","<p>Which tone was played second after the cadence?</p><p>Please respond as quickly and as accurately as possible!</p>","5","","2","new_stimuli/mp3/melody_v5_v4_v3_v2_v1_.mp3"
"","561.8149999063462","html-button-response","139","1590384","0.0-17.0-3.3","22189","","<p>Which tone was played third after the cadence?</p><p>Please respond as quickly and as accurately as possible!</p>","4","","3","new_stimuli/mp3/melody_v5_v4_v3_v2_v1_.mp3"
"","661.784999887459","html-button-response","140","1591049","0.0-17.0-4.3","22189","","<p>Which tone was played fourth after the cadence?</p><p>Please respond as quickly and as accurately as possible!</p>","2","","4","new_stimuli/mp3/melody_v5_v4_v3_v2_v1_.mp3"
"","755.2849999628961","html-button-response","141","1591808","0.0-17.0-5.3","22189","","<p>Which tone was played fifth after the cadence?</p><p>Please respond as quickly and as accurately as possible!</p>","0","","5","new_stimuli/mp3/melody_v5_v4_v3_v2_v1_.mp3"
"","null","audio-keyboard-response","142","1602384","0.0-17.0-0.4","22189","","new_stimuli/mp3/melody_v2_2_^3_^4_v2_.mp3","","null","",""
"","6107.909999904223","html-button-response","143","1608495","0.0-17.0-1.4","22189","","<p>Which tone was played first after the cadence?</p><p>Please respond as quickly and as accurately as possible!</p>","1","","1","new_stimuli/mp3/melody_v2_2_^3_^4_v2_.mp3"
"","765.4850000981241","html-button-response","144","1609263","0.0-17.0-2.4","22189","","<p>Which tone was played second after the cadence?</p><p>Please respond as quickly and as accurately as possible!</p>","1","","2","new_stimuli/mp3/melody_v2_2_^3_^4_v2_.mp3"
"","5651.3750000158325","html-button-response","145","1614918","0.0-17.0-3.4","22189","","<p>Which tone was played third after the cadence?</p><p>Please respond as quickly and as accurately as possible!</p>","3","","3","new_stimuli/mp3/melody_v2_2_^3_^4_v2_.mp3"
"","6587.6599999610335","html-button-response","146","1621510","0.0-17.0-4.4","22189","","<p>Which tone was played fourth after the cadence?</p><p>Please respond as quickly and as accurately as possible!</p>","4","","4","new_stimuli/mp3/melody_v2_2_^3_^4_v2_.mp3"
"","5072.710000094958","html-button-response","147","1626588","0.0-17.0-5.4","22189","","<p>Which tone was played fifth after the cadence?</p><p>Please respond as quickly and as accurately as possible!</p>","1","","5","new_stimuli/mp3/melody_v2_2_^3_^4_v2_.mp3"
"","null","audio-keyboard-response","148","1637213","0.0-17.0-0.5","22189","","new_stimuli/mp3/melody_^6_v4_v3_^4_^5_.mp3","","null","",""
"","22689.19000006281","html-button-response","149","1659906","0.0-17.0-1.5","22189","","<p>Which tone was played first after the cadence?</p><p>Please respond as quickly and as accurately as possible!</p>","9","","1","new_stimuli/mp3/melody_^6_v4_v3_^4_^5_.mp3"
"","1649.5049999793991","html-button-response","150","1661561","0.0-17.0-2.5","22189","","<p>Which tone was played second after the cadence?</p><p>Please respond as quickly and as accurately as possible!</p>","7","","2","new_stimuli/mp3/melody_^6_v4_v3_^4_^5_.mp3"
"","1248.5449999803677","html-button-response","151","1662814","0.0-17.0-3.5","22189","","<p>Which tone was played third after the cadence?</p><p>Please respond as quickly and as accurately as possible!</p>","5","","3","new_stimuli/mp3/melody_^6_v4_v3_^4_^5_.mp3"
"","1097.840000060387","html-button-response","152","1663915","0.0-17.0-4.5","22189","","<p>Which tone was played fourth after the cadence?</p><p>Please respond as quickly and as accurately as possible!</p>","4","","4","new_stimuli/mp3/melody_^6_v4_v3_^4_^5_.mp3"
"","1564.4950000569224","html-button-response","153","1665483","0.0-17.0-5.5","22189","","<p>Which tone was played fifth after the cadence?</p><p>Please respond as quickly and as accurately as possible!</p>","3","","5","new_stimuli/mp3/melody_^6_v4_v3_^4_^5_.mp3"
"","null","audio-keyboard-response","154","1676194","0.0-17.0-0.6","22189","","new_stimuli/mp3/melody_^6_v5_v4_v3_v2_buffer.mp3","","null","",""
"","23778.599999961443","html-button-response","155","1699978","0.0-17.0-1.6","22189","","<p>Which tone was played first after the cadence?</p><p>Please respond as quickly and as accurately as possible!</p>","9","","1","new_stimuli/mp3/melody_^6_v5_v4_v3_v2_buffer.mp3"
"","832.5549999717623","html-button-response","156","1700815","0.0-17.0-2.6","22189","","<p>Which tone was played second after the cadence?</p><p>Please respond as quickly and as accurately as possible!</p>","7","","2","new_stimuli/mp3/melody_^6_v5_v4_v3_v2_buffer.mp3"
"","740.044999984093","html-button-response","157","1701559","0.0-17.0-3.6","22189","","<p>Which tone was played third after the cadence?</p><p>Please respond as quickly and as accurately as possible!</p>","5","","3","new_stimuli/mp3/melody_^6_v5_v4_v3_v2_buffer.mp3"
"","1665.0699999881908","html-button-response","158","1703227","0.0-17.0-4.6","22189","","<p>Which tone was played fourth after the cadence?</p><p>Please respond as quickly and as accurately as possible!</p>","4","","4","new_stimuli/mp3/melody_^6_v5_v4_v3_v2_buffer.mp3"
"","948.949999990873","html-button-response","159","1704179","0.0-17.0-5.6","22189","","<p>Which tone was played fifth after the cadence?</p><p>Please respond as quickly and as accurately as possible!</p>","2","","5","new_stimuli/mp3/melody_^6_v5_v4_v3_v2_buffer.mp3"
"","null","audio-keyboard-response","160","1714813","0.0-17.0-0.7","22189","","new_stimuli/mp3/melody_v5_^6+_^7_^1_5_.mp3","","null","",""
"","16619.204999995418","html-button-response","161","1731436","0.0-17.0-1.7","22189","","<p>Which tone was played first after the cadence?</p><p>Please respond as quickly and as accurately as possible!</p>","5","","1","new_stimuli/mp3/melody_v5_^6+_^7_^1_5_.mp3"
"","346.2099999887869","html-button-response","162","1731787","0.0-17.0-2.7","22189","","<p>Which tone was played second after the cadence?</p><p>Please respond as quickly and as accurately as possible!</p>","5","","2","new_stimuli/mp3/melody_v5_^6+_^7_^1_5_.mp3"
"","1399.9249999178573","html-button-response","163","1733190","0.0-17.0-3.7","22189","","<p>Which tone was played third after the cadence?</p><p>Please respond as quickly and as accurately as possible!</p>","7","","3","new_stimuli/mp3/melody_v5_^6+_^7_^1_5_.mp3"
"","5701.205000048503","html-button-response","164","1738895","0.0-17.0-4.7","22189","","<p>Which tone was played fourth after the cadence?</p><p>Please respond as quickly and as accurately as possible!</p>","8","","4","new_stimuli/mp3/melody_v5_^6+_^7_^1_5_.mp3"
"","810.7499999459833","html-button-response","165","1739711","0.0-17.0-5.7","22189","","<p>Which tone was played fifth after the cadence?</p><p>Please respond as quickly and as accurately as possible!</p>","5","","5","new_stimuli/mp3/melody_v5_^6+_^7_^1_5_.mp3"
"[{""page_index"":0,""viewing_time"":12475.879999925382},{""page_index"":1,""viewing_time"":2390.4200000688434},{""page_index"":2,""viewing_time"":17315.139999962412}]","32182.254999992438","instructions","166","1771895","0.0-18.0","22189","","","","","",""
"","null","audio-keyboard-response","167","1783966","0.0-19.0-0.0","22189","","new_stimuli/mp3/melody_^6_v5+_v4_^5+_v3_v1_v7-_.mp3","","null","",""
"","18177.78000002727","html-button-response","168","1802148","0.0-19.0-1.0","22189","","<p>Which tone was played first after the cadence?</p><p>Please respond as quickly and as accurately as possible!</p>","5","","1","new_stimuli/mp3/melody_^6_v5+_v4_^5+_v3_v1_v7-_.mp3"
"","1141.1300000036135","html-button-response","169","1803294","0.0-19.0-2.0","22189","","<p>Which tone was played second after the cadence?</p><p>Please respond as quickly and as accurately as possible!</p>","3","","2","new_stimuli/mp3/melody_^6_v5+_v4_^5+_v3_v1_v7-_.mp3"
"","2771.7699999921024","html-button-response","170","1806070","0.0-19.0-3.0","22189","","<p>Which tone was played third after the cadence?</p><p>Please respond as quickly and as accurately as possible!</p>","2","","3","new_stimuli/mp3/melody_^6_v5+_v4_^5+_v3_v1_v7-_.mp3"
"","927.2199999541044","html-button-response","171","1807000","0.0-19.0-4.0","22189","","<p>Which tone was played fourth after the cadence?</p><p>Please respond as quickly and as accurately as possible!</p>","0","","4","new_stimuli/mp3/melody_^6_v5+_v4_^5+_v3_v1_v7-_.mp3"
"","2352.045000065118","html-button-response","172","1809356","0.0-19.0-5.0","22189","","<p>Which tone was played fifth after the cadence?</p><p>Please respond as quickly and as accurately as possible!</p>","9","","5","new_stimuli/mp3/melody_^6_v5+_v4_^5+_v3_v1_v7-_.mp3"
"","694.8250000132248","html-button-response","173","1810058","0.0-19.0-6.0","22189","","<p>Which tone was played sixth after the cadence?</p><p>Please respond as quickly and as accurately as possible!</p>","11","","6","new_stimuli/mp3/melody_^6_v5+_v4_^5+_v3_v1_v7-_.mp3"
"","1105.0149999791756","html-button-response","174","1811166","0.0-19.0-7.0","22189","","<p>Which tone was played seventh after the cadence?</p><p>Please respond as quickly and as accurately as possible!</p>","9","","7","new_stimuli/mp3/melody_^6_v5+_v4_^5+_v3_v1_v7-_.mp3"
"","null","audio-keyboard-response","175","1822875","0.0-19.0-0.1","22189","","new_stimuli/mp3/melody_^4_^5_^6_v5_v4_v3_v2_.mp3","","null","",""
"","5405.690000043251","html-button-response","176","1828286","0.0-19.0-1.1","22189","","<p>Which tone was played first after the cadence?</p><p>Please respond as quickly and as accurately as possible!</p>","2","","1","new_stimuli/mp3/melody_^4_^5_^6_v5_v4_v3_v2_.mp3"
"","838.9099999330938","html-button-response","177","1829129","0.0-19.0-2.1","22189","","<p>Which tone was played second after the cadence?</p><p>Please respond as quickly and as accurately as possible!</p>","4","","2","new_stimuli/mp3/melody_^4_^5_^6_v5_v4_v3_v2_.mp3"
"","669.484999962151","html-button-response","178","1829803","0.0-19.0-3.1","22189","","<p>Which tone was played third after the cadence?</p><p>Please respond as quickly and as accurately as possible!</p>","2","","3","new_stimuli/mp3/melody_^4_^5_^6_v5_v4_v3_v2_.mp3"
"","654.5349999796599","html-button-response","179","1830460","0.0-19.0-4.1","22189","","<p>Which tone was played fourth after the cadence?</p><p>Please respond as quickly and as accurately as possible!</p>","0","","4","new_stimuli/mp3/melody_^4_^5_^6_v5_v4_v3_v2_.mp3"
"","1628.3400000538677","html-button-response","180","1832092","0.0-19.0-5.1","22189","","<p>Which tone was played fifth after the cadence?</p><p>Please respond as quickly and as accurately as possible!</p>","11","","5","new_stimuli/mp3/melody_^4_^5_^6_v5_v4_v3_v2_.mp3"
"","583.2200000295416","html-button-response","181","1832679","0.0-19.0-6.1","22189","","<p>Which tone was played sixth after the cadence?</p><p>Please respond as quickly and as accurately as possible!</p>","9","","6","new_stimuli/mp3/melody_^4_^5_^6_v5_v4_v3_v2_.mp3"
"","1391.9849999947473","html-button-response","182","1834075","0.0-19.0-7.1","22189","","<p>Which tone was played seventh after the cadence?</p><p>Please respond as quickly and as accurately as possible!</p>","7","","7","new_stimuli/mp3/melody_^4_^5_^6_v5_v4_v3_v2_.mp3"
"","null","audio-keyboard-response","183","1845786","0.0-19.0-0.2","22189","","new_stimuli/mp3/melody_^1_v7_v6_v5_v4_v3_v2_buffer.mp3","","null","",""
"","1264.9699999019504","html-button-response","184","1847056","0.0-19.0-1.2","22189","","<p>Which tone was played first after the cadence?</p><p>Please respond as quickly and as accurately as possible!</p>","12","","1","new_stimuli/mp3/melody_^1_v7_v6_v5_v4_v3_v2_buffer.mp3"
"","669.7550000390038","html-button-response","185","1847729","0.0-19.0-2.2","22189","","<p>Which tone was played second after the cadence?</p><p>Please respond as quickly and as accurately as possible!</p>","11","","2","new_stimuli/mp3/melody_^1_v7_v6_v5_v4_v3_v2_buffer.mp3"
"","633.085000095889","html-button-response","186","1848366","0.0-19.0-3.2","22189","","<p>Which tone was played third after the cadence?</p><p>Please respond as quickly and as accurately as possible!</p>","9","","3","new_stimuli/mp3/melody_^1_v7_v6_v5_v4_v3_v2_buffer.mp3"
"","632.7599999494851","html-button-response","187","1849002","0.0-19.0-4.2","22189","","<p>Which tone was played fourth after the cadence?</p><p>Please respond as quickly and as accurately as possible!</p>","7","","4","new_stimuli/mp3/melody_^1_v7_v6_v5_v4_v3_v2_buffer.mp3"
"","762.2049999190494","html-button-response","188","1849768","0.0-19.0-5.2","22189","","<p>Which tone was played fifth after the cadence?</p><p>Please respond as quickly and as accurately as possible!</p>","5","","5","new_stimuli/mp3/melody_^1_v7_v6_v5_v4_v3_v2_buffer.mp3"
"","690.8500000135973","html-button-response","189","1850462","0.0-19.0-6.2","22189","","<p>Which tone was played sixth after the cadence?</p><p>Please respond as quickly and as accurately as possible!</p>","4","","6","new_stimuli/mp3/melody_^1_v7_v6_v5_v4_v3_v2_buffer.mp3"
"","2366.8399999151006","html-button-response","190","1852832","0.0-19.0-7.2","22189","","<p>Which tone was played seventh after the cadence?</p><p>Please respond as quickly and as accurately as possible!</p>","2","","7","new_stimuli/mp3/melody_^1_v7_v6_v5_v4_v3_v2_buffer.mp3"
"","null","audio-keyboard-response","191","1864505","0.0-19.0-0.3","22189","","new_stimuli/mp3/melody_^4_v6-_v5-_^6-_^4_v2-_2-_.mp3","","null","",""
"","4479.255000012927","html-button-response","192","1868990","0.0-19.0-1.3","22189","","<p>Which tone was played first after the cadence?</p><p>Please respond as quickly and as accurately as possible!</p>","9","","1","new_stimuli/mp3/melody_^4_v6-_v5-_^6-_^4_v2-_2-_.mp3"
"","976.1650000000373","html-button-response","193","1869971","0.0-19.0-2.3","22189","","<p>Which tone was played second after the cadence?</p><p>Please respond as quickly and as accurately as possible!</p>","2","","2","new_stimuli/mp3/melody_^4_v6-_v5-_^6-_^4_v2-_2-_.mp3"
"","796.400000108406","html-button-response","194","1870774","0.0-19.0-3.3","22189","","<p>Which tone was played third after the cadence?</p><p>Please respond as quickly and as accurately as possible!</p>","4","","3","new_stimuli/mp3/melody_^4_v6-_v5-_^6-_^4_v2-_2-_.mp3"
"","1891.4450000738725","html-button-response","195","1872669","0.0-19.0-4.3","22189","","<p>Which tone was played fourth after the cadence?</p><p>Please respond as quickly and as accurately as possible!</p>","2","","4","new_stimuli/mp3/melody_^4_v6-_v5-_^6-_^4_v2-_2-_.mp3"
"","1048.5699999844655","html-button-response","196","1873721","0.0-19.0-5.3","22189","","<p>Which tone was played fifth after the cadence?</p><p>Please respond as quickly and as accurately as possible!</p>","9","","5","new_stimuli/mp3/melody_^4_v6-_v5-_^6-_^4_v2-_2-_.mp3"
"","1479.5049999374896","html-button-response","197","1875204","0.0-19.0-6.3","22189","","<p>Which tone was played sixth after the cadence?</p><p>Please respond as quickly and as accurately as possible!</p>","6","","6","new_stimuli/mp3/melody_^4_v6-_v5-_^6-_^4_v2-_2-_.mp3"
"","517.7350000012666","html-button-response","198","1875726","0.0-19.0-7.3","22189","","<p>Which tone was played seventh after the cadence?</p><p>Please respond as quickly and as accurately as possible!</p>","6","","7","new_stimuli/mp3/melody_^4_v6-_v5-_^6-_^4_v2-_2-_.mp3"
"","null","audio-keyboard-response","199","1887695","0.0-19.0-0.4","22189","","new_stimuli/mp3/melody_1_^3_v1_^5_v3_v2_^3_.mp3","","null","",""
"","1461.8100000079721","html-button-response","200","1889161","0.0-19.0-1.4","22189","","<p>Which tone was played first after the cadence?</p><p>Please respond as quickly and as accurately as possible!</p>","3","","1","new_stimuli/mp3/melody_1_^3_v1_^5_v3_v2_^3_.mp3"
"","1173.1350000482053","html-button-response","201","1890339","0.0-19.0-2.4","22189","","<p>Which tone was played second after the cadence?</p><p>Please respond as quickly and as accurately as possible!</p>","11","","2","new_stimuli/mp3/melody_1_^3_v1_^5_v3_v2_^3_.mp3"
"","765.6549999956042","html-button-response","202","1891109","0.0-19.0-3.4","22189","","<p>Which tone was played third after the cadence?</p><p>Please respond as quickly and as accurately as possible!</p>","8","","3","new_stimuli/mp3/melody_1_^3_v1_^5_v3_v2_^3_.mp3"
"","856.9049999350682","html-button-response","203","1891969","0.0-19.0-4.4","22189","","<p>Which tone was played fourth after the cadence?</p><p>Please respond as quickly and as accurately as possible!</p>","6","","4","new_stimuli/mp3/melody_1_^3_v1_^5_v3_v2_^3_.mp3"
"","667.7650000201538","html-button-response","204","1892640","0.0-19.0-5.4","22189","","<p>Which tone was played fifth after the cadence?</p><p>Please respond as quickly and as accurately as possible!</p>","8","","5","new_stimuli/mp3/melody_1_^3_v1_^5_v3_v2_^3_.mp3"
"","2423.5399999888614","html-button-response","205","1895067","0.0-19.0-6.4","22189","","<p>Which tone was played sixth after the cadence?</p><p>Please respond as quickly and as accurately as possible!</p>","6","","6","new_stimuli/mp3/melody_1_^3_v1_^5_v3_v2_^3_.mp3"
"","1701.2099999701604","html-button-response","206","1896772","0.0-19.0-7.4","22189","","<p>Which tone was played seventh after the cadence?</p><p>Please respond as quickly and as accurately as possible!</p>","10","","7","new_stimuli/mp3/melody_1_^3_v1_^5_v3_v2_^3_.mp3"
"","null","audio-keyboard-response","207","1908346","0.0-19.0-0.5","22189","","new_stimuli/mp3/melody_^5_^6_v5_v4_v3_v2_v1_buffer.mp3","","null","",""
"","10592.170000076294","html-button-response","208","1918945","0.0-19.0-1.5","22189","","<p>Which tone was played first after the cadence?</p><p>Please respond as quickly and as accurately as possible!</p>","7","","1","new_stimuli/mp3/melody_^5_^6_v5_v4_v3_v2_v1_buffer.mp3"
"","901.1699999682605","html-button-response","209","1919851","0.0-19.0-2.5","22189","","<p>Which tone was played second after the cadence?</p><p>Please respond as quickly and as accurately as possible!</p>","9","","2","new_stimuli/mp3/melody_^5_^6_v5_v4_v3_v2_v1_buffer.mp3"
"","675.8799999952316","html-button-response","210","1920530","0.0-19.0-3.5","22189","","<p>Which tone was played third after the cadence?</p><p>Please respond as quickly and as accurately as possible!</p>","7","","3","new_stimuli/mp3/melody_^5_^6_v5_v4_v3_v2_v1_buffer.mp3"
"","713.0349999060854","html-button-response","211","1921246","0.0-19.0-4.5","22189","","<p>Which tone was played fourth after the cadence?</p><p>Please respond as quickly and as accurately as possible!</p>","5","","4","new_stimuli/mp3/melody_^5_^6_v5_v4_v3_v2_v1_buffer.mp3"
"","1033.7000000290573","html-button-response","212","1922284","0.0-19.0-5.5","22189","","<p>Which tone was played fifth after the cadence?</p><p>Please respond as quickly and as accurately as possible!</p>","2","","5","new_stimuli/mp3/melody_^5_^6_v5_v4_v3_v2_v1_buffer.mp3"
"","791.4899999741465","html-button-response","213","1923079","0.0-19.0-6.5","22189","","<p>Which tone was played sixth after the cadence?</p><p>Please respond as quickly and as accurately as possible!</p>","0","","6","new_stimuli/mp3/melody_^5_^6_v5_v4_v3_v2_v1_buffer.mp3"
"","626.784999971278","html-button-response","214","1923709","0.0-19.0-7.5","22189","","<p>Which tone was played seventh after the cadence?</p><p>Please respond as quickly and as accurately as possible!</p>","0","","7","new_stimuli/mp3/melody_^5_^6_v5_v4_v3_v2_v1_buffer.mp3"
"","null","audio-keyboard-response","215","1935415","0.0-19.0-0.6","22189","","new_stimuli/mp3/melody_v1_^2_v1_v7_^1_^3_v2_.mp3","","null","",""
"","5036.630000104196","html-button-response","216","1940456","0.0-19.0-1.6","22189","","<p>Which tone was played first after the cadence?</p><p>Please respond as quickly and as accurately as possible!</p>","10","","1","new_stimuli/mp3/melody_v1_^2_v1_v7_^1_^3_v2_.mp3"
"","1236.7400000803173","html-button-response","217","1941698","0.0-19.0-2.6","22189","","<p>Which tone was played second after the cadence?</p><p>Please respond as quickly and as accurately as possible!</p>","12","","2","new_stimuli/mp3/melody_v1_^2_v1_v7_^1_^3_v2_.mp3"
"","559.7050000214949","html-button-response","218","1942261","0.0-19.0-3.6","22189","","<p>Which tone was played third after the cadence?</p><p>Please respond as quickly and as accurately as possible!</p>","10","","3","new_stimuli/mp3/melody_v1_^2_v1_v7_^1_^3_v2_.mp3"
"","641.7350000701845","html-button-response","219","1942907","0.0-19.0-4.6","22189","","<p>Which tone was played fourth after the cadence?</p><p>Please respond as quickly and as accurately as possible!</p>","8","","4","new_stimuli/mp3/melody_v1_^2_v1_v7_^1_^3_v2_.mp3"
"","933.1849999725819","html-button-response","220","1943843","0.0-19.0-5.6","22189","","<p>Which tone was played fifth after the cadence?</p><p>Please respond as quickly and as accurately as possible!</p>","5","","5","new_stimuli/mp3/melody_v1_^2_v1_v7_^1_^3_v2_.mp3"
"","740.5199999921024","html-button-response","221","1944588","0.0-19.0-6.6","22189","","<p>Which tone was played sixth after the cadence?</p><p>Please respond as quickly and as accurately as possible!</p>","8","","6","new_stimuli/mp3/melody_v1_^2_v1_v7_^1_^3_v2_.mp3"
"","1491.509999963455","html-button-response","222","1946083","0.0-19.0-7.6","22189","","<p>Which tone was played seventh after the cadence?</p><p>Please respond as quickly and as accurately as possible!</p>","7","","7","new_stimuli/mp3/melody_v1_^2_v1_v7_^1_^3_v2_.mp3"
"[{""page_index"":0,""viewing_time"":6575.800000107847},{""page_index"":1,""viewing_time"":1583.08999997098},{""page_index"":2,""viewing_time"":1316.980000003241}]","9476.439999998547","instructions","223","1955561","0.0-20.0","22189","","","","","",""
"","null","audio-keyboard-response","224","1968206","0.0-21.0-0.0","22189","","new_stimuli/mp3/melody_v7_v6_v5_^6_v5_v4_^5_^6_v5_.mp3","","null","",""
"","4003.359999973327","html-button-response","225","1972214","0.0-21.0-1.0","22189","","<p>Which tone was played first after the cadence?</p><p>Please respond as quickly and as accurately as possible!</p>","12","","1","new_stimuli/mp3/melody_v7_v6_v5_^6_v5_v4_^5_^6_v5_.mp3"
"","2315.165000036359","html-button-response","226","1974533","0.0-21.0-2.0","22189","","<p>Which tone was played second after the cadence?</p><p>Please respond as quickly and as accurately as possible!</p>","10","","2","new_stimuli/mp3/melody_v7_v6_v5_^6_v5_v4_^5_^6_v5_.mp3"
"","1522.620000061579","html-button-response","227","1976059","0.0-21.0-3.0","22189","","<p>Which tone was played third after the cadence?</p><p>Please respond as quickly and as accurately as possible!</p>","12","","3","new_stimuli/mp3/melody_v7_v6_v5_^6_v5_v4_^5_^6_v5_.mp3"
"","696.4099999750033","html-button-response","228","1976759","0.0-21.0-4.0","22189","","<p>Which tone was played fourth after the cadence?</p><p>Please respond as quickly and as accurately as possible!</p>","10","","4","new_stimuli/mp3/melody_v7_v6_v5_^6_v5_v4_^5_^6_v5_.mp3"
"","912.6000000396743","html-button-response","229","1977675","0.0-21.0-5.0","22189","","<p>Which tone was played fifth after the cadence?</p><p>Please respond as quickly and as accurately as possible!</p>","8","","5","new_stimuli/mp3/melody_v7_v6_v5_^6_v5_v4_^5_^6_v5_.mp3"
"","1699.3149999761954","html-button-response","230","1979378","0.0-21.0-6.0","22189","","<p>Which tone was played sixth after the cadence?</p><p>Please respond as quickly and as accurately as possible!</p>","6","","6","new_stimuli/mp3/melody_v7_v6_v5_^6_v5_v4_^5_^6_v5_.mp3"
"","861.8300000671297","html-button-response","231","1980243","0.0-21.0-7.0","22189","","<p>Which tone was played seventh after the cadence?</p><p>Please respond as quickly and as accurately as possible!</p>","8","","7","new_stimuli/mp3/melody_v7_v6_v5_^6_v5_v4_^5_^6_v5_.mp3"
"","1078.2850000541657","html-button-response","232","1981325","0.0-21.0-8.0","22189","","<p>Which tone was played eight after the cadence?</p><p>Please respond as quickly and as accurately as possible!</p>","6","","8","new_stimuli/mp3/melody_v7_v6_v5_^6_v5_v4_^5_^6_v5_.mp3"
"","769.8549999622628","html-button-response","233","1982098","0.0-21.0-9.0","22189","","<p>Which tone was played nineth after the cadence?</p><p>Please respond as quickly and as accurately as possible!</p>","5","","9","new_stimuli/mp3/melody_v7_v6_v5_^6_v5_v4_^5_^6_v5_.mp3"
"","null","audio-keyboard-response","234","1994746","0.0-21.0-0.1","22189","","new_stimuli/mp3/melody_^3_^4_v2_v7_^1_^2_^3_3_^4_.mp3","","null","",""
"","2716.0450000083074","html-button-response","235","1997466","0.0-21.0-1.1","22189","","<p>Which tone was played first after the cadence?</p><p>Please respond as quickly and as accurately as possible!</p>","5","","1","new_stimuli/mp3/melody_^3_^4_v2_v7_^1_^2_^3_3_^4_.mp3"
"","772.0350000308827","html-button-response","236","1998241","0.0-21.0-2.1","22189","","<p>Which tone was played second after the cadence?</p><p>Please respond as quickly and as accurately as possible!</p>","7","","2","new_stimuli/mp3/melody_^3_^4_v2_v7_^1_^2_^3_3_^4_.mp3"
"","574.6199999703094","html-button-response","237","1998820","0.0-21.0-3.1","22189","","<p>Which tone was played third after the cadence?</p><p>Please respond as quickly and as accurately as possible!</p>","5","","3","new_stimuli/mp3/melody_^3_^4_v2_v7_^1_^2_^3_3_^4_.mp3"
"","2051.4649999095127","html-button-response","238","2000874","0.0-21.0-4.1","22189","","<p>Which tone was played fourth after the cadence?</p><p>Please respond as quickly and as accurately as possible!</p>","2","","4","new_stimuli/mp3/melody_^3_^4_v2_v7_^1_^2_^3_3_^4_.mp3"
"","1907.0449999999255","html-button-response","239","2002785","0.0-21.0-5.1","22189","","<p>Which tone was played fifth after the cadence?</p><p>Please respond as quickly and as accurately as possible!</p>","4","","5","new_stimuli/mp3/melody_^3_^4_v2_v7_^1_^2_^3_3_^4_.mp3"
"","577.5800000410527","html-button-response","240","2003366","0.0-21.0-6.1","22189","","<p>Which tone was played sixth after the cadence?</p><p>Please respond as quickly and as accurately as possible!</p>","2","","6","new_stimuli/mp3/melody_^3_^4_v2_v7_^1_^2_^3_3_^4_.mp3"
"","661.7300000507385","html-button-response","241","2004033","0.0-21.0-7.1","22189","","<p>Which tone was played seventh after the cadence?</p><p>Please respond as quickly and as accurately as possible!</p>","0","","7","new_stimuli/mp3/melody_^3_^4_v2_v7_^1_^2_^3_3_^4_.mp3"
"","551.7450000625104","html-button-response","242","2004589","0.0-21.0-8.1","22189","","<p>Which tone was played eight after the cadence?</p><p>Please respond as quickly and as accurately as possible!</p>","2","","8","new_stimuli/mp3/melody_^3_^4_v2_v7_^1_^2_^3_3_^4_.mp3"
"","790.2999999932945","html-button-response","243","2005383","0.0-21.0-9.1","22189","","<p>Which tone was played nineth after the cadence?</p><p>Please respond as quickly and as accurately as possible!</p>","4","","9","new_stimuli/mp3/melody_^3_^4_v2_v7_^1_^2_^3_3_^4_.mp3"
"","null","audio-keyboard-response","244","2018025","0.0-21.0-0.2","22189","","new_stimuli/mp3/melody_v5_v4_v6+_^7_^3+_v3_v2_v5_^4_.mp3","","null","",""
"","1363.4350000647828","html-button-response","245","2019393","0.0-21.0-1.2","22189","","<p>Which tone was played first after the cadence?</p><p>Please respond as quickly and as accurately as possible!</p>","12","","1","new_stimuli/mp3/melody_v5_v4_v6+_^7_^3+_v3_v2_v5_^4_.mp3"
"","531.929999939166","html-button-response","246","2019927","0.0-21.0-2.2","22189","","<p>Which tone was played second after the cadence?</p><p>Please respond as quickly and as accurately as possible!</p>","11","","2","new_stimuli/mp3/melody_v5_v4_v6+_^7_^3+_v3_v2_v5_^4_.mp3"
"","809.1499999864027","html-button-response","247","2020739","0.0-21.0-3.2","22189","","<p>Which tone was played third after the cadence?</p><p>Please respond as quickly and as accurately as possible!</p>","6","","3","new_stimuli/mp3/melody_v5_v4_v6+_^7_^3+_v3_v2_v5_^4_.mp3"
"","1327.4700000183657","html-button-response","248","2022070","0.0-21.0-4.2","22189","","<p>Which tone was played fourth after the cadence?</p><p>Please respond as quickly and as accurately as possible!</p>","10","","4","new_stimuli/mp3/melody_v5_v4_v6+_^7_^3+_v3_v2_v5_^4_.mp3"
"","746.805000002496","html-button-response","249","2022820","0.0-21.0-5.2","22189","","<p>Which tone was played fifth after the cadence?</p><p>Please respond as quickly and as accurately as possible!</p>","8","","5","new_stimuli/mp3/melody_v5_v4_v6+_^7_^3+_v3_v2_v5_^4_.mp3"
"","1071.0149999940768","html-button-response","250","2023895","0.0-21.0-6.2","22189","","<p>Which tone was played sixth after the cadence?</p><p>Please respond as quickly and as accurately as possible!</p>","3","","6","new_stimuli/mp3/melody_v5_v4_v6+_^7_^3+_v3_v2_v5_^4_.mp3"
"","1306.3749999273568","html-button-response","251","2025205","0.0-21.0-7.2","22189","","<p>Which tone was played seventh after the cadence?</p><p>Please respond as quickly and as accurately as possible!</p>","7","","7","new_stimuli/mp3/melody_v5_v4_v6+_^7_^3+_v3_v2_v5_^4_.mp3"
"","554.8100000014529","html-button-response","252","2025763","0.0-21.0-8.2","22189","","<p>Which tone was played eight after the cadence?</p><p>Please respond as quickly and as accurately as possible!</p>","6","","8","new_stimuli/mp3/melody_v5_v4_v6+_^7_^3+_v3_v2_v5_^4_.mp3"
"","1213.2399999536574","html-button-response","253","2026980","0.0-21.0-9.2","22189","","<p>Which tone was played nineth after the cadence?</p><p>Please respond as quickly and as accurately as possible!</p>","2","","9","new_stimuli/mp3/melody_v5_v4_v6+_^7_^3+_v3_v2_v5_^4_.mp3"
"","null","audio-keyboard-response","254","2039906","0.0-21.0-0.3","22189","","new_stimuli/mp3/melody_^2_^4_v3_v2_v1_v3_v2+_^3_^5+_.mp3","","null","",""
"","1651.259999955073","html-button-response","255","2041561","0.0-21.0-1.3","22189","","<p>Which tone was played first after the cadence?</p><p>Please respond as quickly and as accurately as possible!</p>","2","","1","new_stimuli/mp3/melody_^2_^4_v3_v2_v1_v3_v2+_^3_^5+_.mp3"
"","814.1100000357255","html-button-response","256","2042379","0.0-21.0-2.3","22189","","<p>Which tone was played second after the cadence?</p><p>Please respond as quickly and as accurately as possible!</p>","10","","2","new_stimuli/mp3/melody_^2_^4_v3_v2_v1_v3_v2+_^3_^5+_.mp3"
"","1083.2350000273436","html-button-response","257","2043466","0.0-21.0-3.3","22189","","<p>Which tone was played third after the cadence?</p><p>Please respond as quickly and as accurately as possible!</p>","9","","3","new_stimuli/mp3/melody_^2_^4_v3_v2_v1_v3_v2+_^3_^5+_.mp3"
"","1700.524999992922","html-button-response","258","2045170","0.0-21.0-4.3","22189","","<p>Which tone was played fourth after the cadence?</p><p>Please respond as quickly and as accurately as possible!</p>","7","","4","new_stimuli/mp3/melody_^2_^4_v3_v2_v1_v3_v2+_^3_^5+_.mp3"
"","925.9799999417737","html-button-response","259","2046099","0.0-21.0-5.3","22189","","<p>Which tone was played fifth after the cadence?</p><p>Please respond as quickly and as accurately as possible!</p>","5","","5","new_stimuli/mp3/melody_^2_^4_v3_v2_v1_v3_v2+_^3_^5+_.mp3"
"","675.2850000048056","html-button-response","260","2046780","0.0-21.0-6.3","22189","","<p>Which tone was played sixth after the cadence?</p><p>Please respond as quickly and as accurately as possible!</p>","8","","6","new_stimuli/mp3/melody_^2_^4_v3_v2_v1_v3_v2+_^3_^5+_.mp3"
"","625.0249999575317","html-button-response","261","2047408","0.0-21.0-7.3","22189","","<p>Which tone was played seventh after the cadence?</p><p>Please respond as quickly and as accurately as possible!</p>","7","","7","new_stimuli/mp3/melody_^2_^4_v3_v2_v1_v3_v2+_^3_^5+_.mp3"
"","648.0100000044331","html-button-response","262","2048059","0.0-21.0-8.3","22189","","<p>Which tone was played eight after the cadence?</p><p>Please respond as quickly and as accurately as possible!</p>","4","","8","new_stimuli/mp3/melody_^2_^4_v3_v2_v1_v3_v2+_^3_^5+_.mp3"
"","857.3900000192225","html-button-response","263","2048920","0.0-21.0-9.3","22189","","<p>Which tone was played nineth after the cadence?</p><p>Please respond as quickly and as accurately as possible!</p>","2","","9","new_stimuli/mp3/melody_^2_^4_v3_v2_v1_v3_v2+_^3_^5+_.mp3"
"","null","audio-keyboard-response","264","2061876","0.0-21.0-0.4","22189","","new_stimuli/mp3/melody_^5_^6_v5_v4_v3_v2_v1_^2_^3_buffer.mp3","","null","",""
"","2410.9699999680743","html-button-response","265","2064291","0.0-21.0-1.4","22189","","<p>Which tone was played first after the cadence?</p><p>Please respond as quickly and as accurately as possible!</p>","7","","1","new_stimuli/mp3/melody_^5_^6_v5_v4_v3_v2_v1_^2_^3_buffer.mp3"
"","590.059999958612","html-button-response","266","2064885","0.0-21.0-2.4","22189","","<p>Which tone was played second after the cadence?</p><p>Please respond as quickly and as accurately as possible!</p>","9","","2","new_stimuli/mp3/melody_^5_^6_v5_v4_v3_v2_v1_^2_^3_buffer.mp3"
"","1040.764999925159","html-button-response","267","2065929","0.0-21.0-3.4","22189","","<p>Which tone was played third after the cadence?</p><p>Please respond as quickly and as accurately as possible!</p>","7","","3","new_stimuli/mp3/melody_^5_^6_v5_v4_v3_v2_v1_^2_^3_buffer.mp3"
"","740.4349999269471","html-button-response","268","2066673","0.0-21.0-4.4","22189","","<p>Which tone was played fourth after the cadence?</p><p>Please respond as quickly and as accurately as possible!</p>","5","","4","new_stimuli/mp3/melody_^5_^6_v5_v4_v3_v2_v1_^2_^3_buffer.mp3"
"","741.0499999532476","html-button-response","269","2067418","0.0-21.0-5.4","22189","","<p>Which tone was played fifth after the cadence?</p><p>Please respond as quickly and as accurately as possible!</p>","4","","5","new_stimuli/mp3/melody_^5_^6_v5_v4_v3_v2_v1_^2_^3_buffer.mp3"
"","848.3550000237301","html-button-response","270","2068270","0.0-21.0-6.4","22189","","<p>Which tone was played sixth after the cadence?</p><p>Please respond as quickly and as accurately as possible!</p>","2","","6","new_stimuli/mp3/melody_^5_^6_v5_v4_v3_v2_v1_^2_^3_buffer.mp3"
"","1592.7949999459088","html-button-response","271","2069866","0.0-21.0-7.4","22189","","<p>Which tone was played seventh after the cadence?</p><p>Please respond as quickly and as accurately as possible!</p>","0","","7","new_stimuli/mp3/melody_^5_^6_v5_v4_v3_v2_v1_^2_^3_buffer.mp3"
"","725.609999964945","html-button-response","272","2070595","0.0-21.0-8.4","22189","","<p>Which tone was played eight after the cadence?</p><p>Please respond as quickly and as accurately as possible!</p>","2","","8","new_stimuli/mp3/melody_^5_^6_v5_v4_v3_v2_v1_^2_^3_buffer.mp3"
"","683.7700000032783","html-button-response","273","2071283","0.0-21.0-9.4","22189","","<p>Which tone was played nineth after the cadence?</p><p>Please respond as quickly and as accurately as possible!</p>","4","","9","new_stimuli/mp3/melody_^5_^6_v5_v4_v3_v2_v1_^2_^3_buffer.mp3"
"","null","audio-keyboard-response","274","2083976","0.0-21.0-0.5","22189","","new_stimuli/mp3/melody_^2_^3_^4_^5_^6_v5_v4_v3_v2_buffer.mp3","","null","",""
"","16950.130000011995","html-button-response","275","2100930","0.0-21.0-1.5","22189","","<p>Which tone was played first after the cadence?</p><p>Please respond as quickly and as accurately as possible!</p>","0","","1","new_stimuli/mp3/melody_^2_^3_^4_^5_^6_v5_v4_v3_v2_buffer.mp3"
"","655.6600000476465","html-button-response","276","2101590","0.0-21.0-2.5","22189","","<p>Which tone was played second after the cadence?</p><p>Please respond as quickly and as accurately as possible!</p>","2","","2","new_stimuli/mp3/melody_^2_^3_^4_^5_^6_v5_v4_v3_v2_buffer.mp3"
"","510.5400000466034","html-button-response","277","2102104","0.0-21.0-3.5","22189","","<p>Which tone was played third after the cadence?</p><p>Please respond as quickly and as accurately as possible!</p>","3","","3","new_stimuli/mp3/melody_^2_^3_^4_^5_^6_v5_v4_v3_v2_buffer.mp3"
"","719.1449999809265","html-button-response","278","2102827","0.0-21.0-4.5","22189","","<p>Which tone was played fourth after the cadence?</p><p>Please respond as quickly and as accurately as possible!</p>","5","","4","new_stimuli/mp3/melody_^2_^3_^4_^5_^6_v5_v4_v3_v2_buffer.mp3"
"","770.2950000530109","html-button-response","279","2103600","0.0-21.0-5.5","22189","","<p>Which tone was played fifth after the cadence?</p><p>Please respond as quickly and as accurately as possible!</p>","7","","5","new_stimuli/mp3/melody_^2_^3_^4_^5_^6_v5_v4_v3_v2_buffer.mp3"
"","740.6999999657273","html-button-response","280","2104345","0.0-21.0-6.5","22189","","<p>Which tone was played sixth after the cadence?</p><p>Please respond as quickly and as accurately as possible!</p>","5","","6","new_stimuli/mp3/melody_^2_^3_^4_^5_^6_v5_v4_v3_v2_buffer.mp3"
"","733.2249999744818","html-button-response","281","2105081","0.0-21.0-7.5","22189","","<p>Which tone was played seventh after the cadence?</p><p>Please respond as quickly and as accurately as possible!</p>","3","","7","new_stimuli/mp3/melody_^2_^3_^4_^5_^6_v5_v4_v3_v2_buffer.mp3"
"","612.9599999403581","html-button-response","282","2105698","0.0-21.0-8.5","22189","","<p>Which tone was played eight after the cadence?</p><p>Please respond as quickly and as accurately as possible!</p>","2","","8","new_stimuli/mp3/melody_^2_^3_^4_^5_^6_v5_v4_v3_v2_buffer.mp3"
"","1262.8800000529736","html-button-response","283","2106964","0.0-21.0-9.5","22189","","<p>Which tone was played nineth after the cadence?</p><p>Please respond as quickly and as accurately as possible!</p>","0","","9","new_stimuli/mp3/melody_^2_^3_^4_^5_^6_v5_v4_v3_v2_buffer.mp3"
"","null","audio-keyboard-response","284","2119536","0.0-21.0-0.6","22189","","new_stimuli/mp3/melody_^3_^4_^5 _^6_v5_v4_v3_v2_v1_.mp3","","null","",""
"","2581.1449999455363","html-button-response","285","2122121","0.0-21.0-1.6","22189","","<p>Which tone was played first after the cadence?</p><p>Please respond as quickly and as accurately as possible!</p>","5","","1","new_stimuli/mp3/melody_^3_^4_^5 _^6_v5_v4_v3_v2_v1_.mp3"
"","3253.819999983534","html-button-response","286","2125378","0.0-21.0-2.6","22189","","<p>Which tone was played second after the cadence?</p><p>Please respond as quickly and as accurately as possible!</p>","7","","2","new_stimuli/mp3/melody_^3_^4_^5 _^6_v5_v4_v3_v2_v1_.mp3"
"","1005.3499999921769","html-button-response","287","2126387","0.0-21.0-3.6","22189","","<p>Which tone was played third after the cadence?</p><p>Please respond as quickly and as accurately as possible!</p>","5","","3","new_stimuli/mp3/melody_^3_^4_^5 _^6_v5_v4_v3_v2_v1_.mp3"
"","1320.4600000753999","html-button-response","288","2127710","0.0-21.0-4.6","22189","","<p>Which tone was played fourth after the cadence?</p><p>Please respond as quickly and as accurately as possible!</p>","4","","4","new_stimuli/mp3/melody_^3_^4_^5 _^6_v5_v4_v3_v2_v1_.mp3"
"","915.8600000664592","html-button-response","289","2128632","0.0-21.0-5.6","22189","","<p>Which tone was played fifth after the cadence?</p><p>Please respond as quickly and as accurately as possible!</p>","2","","5","new_stimuli/mp3/melody_^3_^4_^5 _^6_v5_v4_v3_v2_v1_.mp3"
"","2889.369999989867","html-button-response","290","2131524","0.0-21.0-6.6","22189","","<p>Which tone was played sixth after the cadence?</p><p>Please respond as quickly and as accurately as possible!</p>","12","","6","new_stimuli/mp3/melody_^3_^4_^5 _^6_v5_v4_v3_v2_v1_.mp3"
"","1055.6449999567121","html-button-response","291","2132584","0.0-21.0-7.6","22189","","<p>Which tone was played seventh after the cadence?</p><p>Please respond as quickly and as accurately as possible!</p>","9","","7","new_stimuli/mp3/melody_^3_^4_^5 _^6_v5_v4_v3_v2_v1_.mp3"
"","776.7999999923632","html-button-response","292","2133364","0.0-21.0-8.6","22189","","<p>Which tone was played eight after the cadence?</p><p>Please respond as quickly and as accurately as possible!</p>","7","","8","new_stimuli/mp3/melody_^3_^4_^5 _^6_v5_v4_v3_v2_v1_.mp3"
"","590.3049999615178","html-button-response","293","2133958","0.0-21.0-9.6","22189","","<p>Which tone was played nineth after the cadence?</p><p>Please respond as quickly and as accurately as possible!</p>","9","","9","new_stimuli/mp3/melody_^3_^4_^5 _^6_v5_v4_v3_v2_v1_.mp3"
"","2417432.8599999426","survey-text","294","4551394","0.0-22.0","22189","{""Q0"":""For the first task, I sang along with the final chord's root, and then shifted all my attention to the played pitch. I tried to recall the interval based on familiarity. Some intervals I have melodies to help me remember (the tritone in Rush's \""YYZ\"").  I began the second task in a similar way, by singing the 3 notes repeatedly while labeling intervals. But everytime I heard the first note, my do would shift to match it. To compensate, I included the original do when I sang, enabling me to hear the played pitches all as intervals to one another, starting with do.  I repeated the method for the third task, but the sequence length was becoming an issue. I was forgetting some intervals and my do was occasionally slipping.  By the fourth and fifth task, I couldn't keep up with the intervals. On nearly all of the tasks, I lost the orignal do. Since there were too many notes to memorize so rapidly, I focused on the sequence's behavior. I listened for whether the sequences was rising or falling, and by how much.""}","","","","",""
"","547524.3949999567","survey-text","295","5098920","0.0-23.0","22189","{""Q0"":""These tasks enlightened me of my own strengths and weaknesses. They also showed me how all music, melody and harmony is based off of intervals. While analyzing the data, it may be interesting to see how close the answeres are relative to the previous answer. I think got some of the sequences right, but starting on a wrong note.""}","","","","",""
"","32467.549999943003","survey-text","296","5131390","0.0-24.0","22189","{""Q0"":""Nothing except my voice""}","","","","",""
"","5654.865000047721","survey-text","297","5137047","0.0-25.0","22189","{""Q0"":""Headphones""}","","","","",""
"","44400.54499998223","survey-text","298","5181450","0.0-26.0","22189","{""Q0"":""Male""}","","","","",""
"","29986.78999999538","survey-text","299","5211440","0.0-27.0","22189","{""Q0"":""Yes""}","","","","",""
"[{""page_index"":0,""viewing_time"":35176.1449999176}]","35176.70999991242","instructions","300","5246618","0.0-28.0","22189","","","","","",""
