"view_history","rt","trial_type","trial_index","time_elapsed","internal_node_id","subject","responses","stimulus","button_pressed","key_press","response_sequence","melody"
"[{""page_index"":0,""viewing_time"":1898550},{""page_index"":1,""viewing_time"":19435},{""page_index"":2,""viewing_time"":1932}]","1919918","instructions","0","1919980","0.0-0.0","26283","","","","","",""
"","2695","survey-text","1","1922681","0.0-1.0","26283","{""Q0"":""29""}","","","","",""
"","4343","survey-text","2","1927025","0.0-2.0","26283","{""Q0"":""Finished PhD""}","","","","",""
"","8670","survey-text","3","1935698","0.0-3.0","26283","{""Q0"":""Moveable-Do""}","","","","",""
"","8604","survey-text","4","1944303","0.0-4.0","26283","{""Q0"":""No""}","","","","",""
"","11343","survey-text","5","1955647","0.0-5.0","26283","{""Q0"":""60""}","","","","",""
"","22451","survey-text","6","1978101","0.0-6.0","26283","{""Q0"":""0""}","","","","",""
"[{""page_index"":0,""viewing_time"":2376},{""page_index"":1,""viewing_time"":15783},{""page_index"":2,""viewing_time"":2604}]","20764","instructions","7","1998866","0.0-7.0","26283","","","","","",""
"","8644","audio-button-response","8","2007515","0.0-8.0","26283","","stimuli/long/c-do.mp3","0","","",""
"","9212","audio-button-response","9","2016728","0.0-9.0","26283","","stimuli/long/a-le.mp3","8","","",""
"[{""page_index"":0,""viewing_time"":7337},{""page_index"":1,""viewing_time"":20439}]","27776","instructions","10","2044506","0.0-10.0","26283","","","","","",""
"","9697","audio-button-response","11","2054205","0.0-11.0-0.0","26283","","stimuli/long/a-la.mp3","8","","",""
"","7882","audio-button-response","12","2062090","0.0-11.0-0.1","26283","","stimuli/long/c-ti.mp3","11","","",""
"","9339","audio-button-response","13","2071431","0.0-11.0-0.2","26283","","stimuli/long/c-ra.mp3","1","","",""
"","11613","audio-button-response","14","2083048","0.0-11.0-0.3","26283","","stimuli/long/c-me.mp3","8","","",""
"","7975","audio-button-response","15","2091025","0.0-11.0-0.4","26283","","stimuli/long/c-sol.mp3","7","","",""
"","8492","audio-button-response","16","2099520","0.0-11.0-0.5","26283","","stimuli/long/e-fa.mp3","5","","",""
"","10818","audio-button-response","17","2110341","0.0-11.0-0.6","26283","","stimuli/long/a-fi.mp3","8","","",""
"","9791","audio-button-response","18","2120132","0.0-11.0-0.7","26283","","stimuli/long/a-me.mp3","1","","",""
"","7827","audio-button-response","19","2127961","0.0-11.0-0.8","26283","","stimuli/long/c-do8.mp3","12","","",""
"","8074","audio-button-response","20","2136037","0.0-11.0-0.9","26283","","stimuli/long/c-fa.mp3","5","","",""
"","7905","audio-button-response","21","2143945","0.0-11.0-0.10","26283","","stimuli/long/e-me.mp3","7","","",""
"","7663","audio-button-response","22","2151610","0.0-11.0-0.11","26283","","stimuli/long/a-fa.mp3","5","","",""
"","9998","audio-button-response","23","2161609","0.0-11.0-0.12","26283","","stimuli/long/c-fi.mp3","3","","",""
"","7766","audio-button-response","24","2169377","0.0-11.0-0.13","26283","","stimuli/long/e-re.mp3","3","","",""
"","8994","audio-button-response","25","2178372","0.0-11.0-0.14","26283","","stimuli/long/c-le.mp3","8","","",""
"","7523","audio-button-response","26","2185896","0.0-11.0-0.15","26283","","stimuli/long/e-sol.mp3","7","","",""
"","11357","audio-button-response","27","2197255","0.0-11.0-0.16","26283","","stimuli/long/e-la.mp3","3","","",""
"","8210","audio-button-response","28","2205467","0.0-11.0-0.17","26283","","stimuli/long/a-te.mp3","7","","",""
"","8435","audio-button-response","29","2213904","0.0-11.0-0.18","26283","","stimuli/long/a-re.mp3","2","","",""
"","8844","audio-button-response","30","2222750","0.0-11.0-0.19","26283","","stimuli/long/a-le.mp3","8","","",""
"","8208","audio-button-response","31","2230961","0.0-11.0-0.20","26283","","stimuli/long/a-ra.mp3","3","","",""
"","8405","audio-button-response","32","2239367","0.0-11.0-0.21","26283","","stimuli/long/a-do.mp3","0","","",""
"","9403","audio-button-response","33","2248772","0.0-11.0-0.22","26283","","stimuli/long/c-la.mp3","8","","",""
"","8319","audio-button-response","34","2257093","0.0-11.0-0.23","26283","","stimuli/long/e-do8.mp3","12","","",""
"","8387","audio-button-response","35","2265481","0.0-11.0-0.24","26283","","stimuli/long/e-le.mp3","3","","",""
"","7343","audio-button-response","36","2272825","0.0-11.0-0.25","26283","","stimuli/long/e-do.mp3","0","","",""
"","7510","audio-button-response","37","2280336","0.0-11.0-0.26","26283","","stimuli/long/c-do.mp3","0","","",""
"","7863","audio-button-response","38","2288199","0.0-11.0-0.27","26283","","stimuli/long/a-sol.mp3","7","","",""
"","7764","audio-button-response","39","2295963","0.0-11.0-0.28","26283","","stimuli/long/e-fi.mp3","8","","",""
"","8384","audio-button-response","40","2304348","0.0-11.0-0.29","26283","","stimuli/long/c-re.mp3","2","","",""
"","8489","audio-button-response","41","2312838","0.0-11.0-0.30","26283","","stimuli/long/c-mi.mp3","5","","",""
"","8901","audio-button-response","42","2321740","0.0-11.0-0.31","26283","","stimuli/long/e-mi.mp3","4","","",""
"","8629","audio-button-response","43","2330371","0.0-11.0-0.32","26283","","stimuli/long/e-te.mp3","5","","",""
"","9100","audio-button-response","44","2339473","0.0-11.0-0.33","26283","","stimuli/long/a-mi.mp3","4","","",""
"","7826","audio-button-response","45","2347299","0.0-11.0-0.34","26283","","stimuli/long/a-do8.mp3","12","","",""
"","7793","audio-button-response","46","2355093","0.0-11.0-0.35","26283","","stimuli/long/e-ra.mp3","3","","",""
"","7523","audio-button-response","47","2362619","0.0-11.0-0.36","26283","","stimuli/long/e-ti.mp3","11","","",""
"","8275","audio-button-response","48","2370895","0.0-11.0-0.37","26283","","stimuli/long/a-ti.mp3","11","","",""
"[{""page_index"":0,""viewing_time"":23548},{""page_index"":1,""viewing_time"":2790}]","26338","instructions","49","2397235","0.0-12.0","26283","","","","","",""
"","null","audio-keyboard-response","50","2406302","0.0-13.0-0.0","26283","","new_stimuli/mp3/melody_^1_^2+_.mp3","","null","",""
"","916","html-button-response","51","2407218","0.0-13.0-1.0","26283","","<p>Which tone was played first after the cadence?</p>","0","","1","new_stimuli/mp3/melody_^1_^2+_.mp3"
"","1283","html-button-response","52","2408502","0.0-13.0-2.0","26283","","<p>Which tone was played second after the cadence?</p>","3","","2","new_stimuli/mp3/melody_^1_^2+_.mp3"
"","null","audio-keyboard-response","53","2417621","0.0-13.0-0.1","26283","","new_stimuli/mp3/melody_v2_v1_.mp3","","null","",""
"","1706","html-button-response","54","2419329","0.0-13.0-1.1","26283","","<p>Which tone was played first after the cadence?</p>","2","","1","new_stimuli/mp3/melody_v2_v1_.mp3"
"","620","html-button-response","55","2419950","0.0-13.0-2.1","26283","","<p>Which tone was played second after the cadence?</p>","0","","2","new_stimuli/mp3/melody_v2_v1_.mp3"
"","null","audio-keyboard-response","56","2429302","0.0-13.0-0.2","26283","","new_stimuli/mp3/melody_3_^6_buffer.mp3","","null","",""
"","935","html-button-response","57","2430238","0.0-13.0-1.2","26283","","<p>Which tone was played first after the cadence?</p>","7","","1","new_stimuli/mp3/melody_3_^6_buffer.mp3"
"","656","html-button-response","58","2430896","0.0-13.0-2.2","26283","","<p>Which tone was played second after the cadence?</p>","12","","2","new_stimuli/mp3/melody_3_^6_buffer.mp3"
"","null","audio-keyboard-response","59","2440131","0.0-13.0-0.3","26283","","new_stimuli/mp3/melody_^5_^1+_.mp3","","null","",""
"","1405","html-button-response","60","2441538","0.0-13.0-1.3","26283","","<p>Which tone was played first after the cadence?</p>","7","","1","new_stimuli/mp3/melody_^5_^1+_.mp3"
"","2955","html-button-response","61","2444494","0.0-13.0-2.3","26283","","<p>Which tone was played second after the cadence?</p>","1","","2","new_stimuli/mp3/melody_^5_^1+_.mp3"
"","null","audio-keyboard-response","62","2453729","0.0-13.0-0.4","26283","","new_stimuli/mp3/melody_v5_v1+_.mp3","","null","",""
"","1239","html-button-response","63","2454969","0.0-13.0-1.4","26283","","<p>Which tone was played first after the cadence?</p>","11","","1","new_stimuli/mp3/melody_v5_v1+_.mp3"
"","842","html-button-response","64","2455812","0.0-13.0-2.4","26283","","<p>Which tone was played second after the cadence?</p>","5","","2","new_stimuli/mp3/melody_v5_v1+_.mp3"
"","null","audio-keyboard-response","65","2465069","0.0-13.0-0.5","26283","","new_stimuli/mp3/melody_v3_v2_buffer.mp3","","null","",""
"","1326","html-button-response","66","2466396","0.0-13.0-1.5","26283","","<p>Which tone was played first after the cadence?</p>","4","","1","new_stimuli/mp3/melody_v3_v2_buffer.mp3"
"","596","html-button-response","67","2466994","0.0-13.0-2.5","26283","","<p>Which tone was played second after the cadence?</p>","2","","2","new_stimuli/mp3/melody_v3_v2_buffer.mp3"
"","null","audio-keyboard-response","68","2476515","0.0-13.0-0.6","26283","","new_stimuli/mp3/melody_^3_v4+_buffer.mp3","","null","",""
"","1188","html-button-response","69","2477704","0.0-13.0-1.6","26283","","<p>Which tone was played first after the cadence?</p>","10","","1","new_stimuli/mp3/melody_^3_v4+_buffer.mp3"
"","703","html-button-response","70","2478407","0.0-13.0-2.6","26283","","<p>Which tone was played second after the cadence?</p>","12","","2","new_stimuli/mp3/melody_^3_v4+_buffer.mp3"
"","null","audio-keyboard-response","71","2487629","0.0-13.0-0.7","26283","","new_stimuli/mp3/melody_^2_v7-_.mp3","","null","",""
"","1235","html-button-response","72","2488864","0.0-13.0-1.7","26283","","<p>Which tone was played first after the cadence?</p>","4","","1","new_stimuli/mp3/melody_^2_v7-_.mp3"
"","720","html-button-response","73","2489584","0.0-13.0-2.7","26283","","<p>Which tone was played second after the cadence?</p>","0","","2","new_stimuli/mp3/melody_^2_v7-_.mp3"
"","null","audio-keyboard-response","74","2499071","0.0-13.0-0.8","26283","","new_stimuli/mp3/melody_v4_v3_buffer.mp3","","null","",""
"","1649","html-button-response","75","2500720","0.0-13.0-1.8","26283","","<p>Which tone was played first after the cadence?</p>","5","","1","new_stimuli/mp3/melody_v4_v3_buffer.mp3"
"","472","html-button-response","76","2501193","0.0-13.0-2.8","26283","","<p>Which tone was played second after the cadence?</p>","4","","2","new_stimuli/mp3/melody_v4_v3_buffer.mp3"
"","null","audio-keyboard-response","77","2510714","0.0-13.0-0.9","26283","","new_stimuli/mp3/melody_v7_v3_buffer.mp3","","null","",""
"","1495","html-button-response","78","2512210","0.0-13.0-1.9","26283","","<p>Which tone was played first after the cadence?</p>","11","","1","new_stimuli/mp3/melody_v7_v3_buffer.mp3"
"","942","html-button-response","79","2513155","0.0-13.0-2.9","26283","","<p>Which tone was played second after the cadence?</p>","4","","2","new_stimuli/mp3/melody_v7_v3_buffer.mp3"
"[{""page_index"":0,""viewing_time"":4202},{""page_index"":1,""viewing_time"":2133},{""page_index"":2,""viewing_time"":1270}]","7605","instructions","80","2520760","0.0-14.0","26283","","","","","",""
"","null","audio-keyboard-response","81","2530382","0.0-15.0-0.0","26283","","new_stimuli/mp3/melody_v3_v2_v1_.mp3","","null","",""
"","980","html-button-response","82","2531364","0.0-15.0-1.0","26283","","<p>Which tone was played first after the cadence?</p>","4","","1","new_stimuli/mp3/melody_v3_v2_v1_.mp3"
"","470","html-button-response","83","2531835","0.0-15.0-2.0","26283","","<p>Which tone was played second after the cadence?</p>","2","","2","new_stimuli/mp3/melody_v3_v2_v1_.mp3"
"","520","html-button-response","84","2532355","0.0-15.0-3.0","26283","","<p>Which tone was played third after the cadence?</p>","0","","3","new_stimuli/mp3/melody_v3_v2_v1_.mp3"
"","null","audio-keyboard-response","85","2541923","0.0-15.0-0.1","26283","","new_stimuli/mp3/melody_1_v1+_^2_.mp3","","null","",""
"","985","html-button-response","86","2542909","0.0-15.0-1.1","26283","","<p>Which tone was played first after the cadence?</p>","0","","1","new_stimuli/mp3/melody_1_v1+_^2_.mp3"
"","458","html-button-response","87","2543368","0.0-15.0-2.1","26283","","<p>Which tone was played second after the cadence?</p>","1","","2","new_stimuli/mp3/melody_1_v1+_^2_.mp3"
"","475","html-button-response","88","2543846","0.0-15.0-3.1","26283","","<p>Which tone was played third after the cadence?</p>","2","","3","new_stimuli/mp3/melody_1_v1+_^2_.mp3"
"","null","audio-keyboard-response","89","2553807","0.0-15.0-0.2","26283","","new_stimuli/mp3/melody_^1_v6_v5+_.mp3","","null","",""
"","744","html-button-response","90","2554552","0.0-15.0-1.2","26283","","<p>Which tone was played first after the cadence?</p>","12","","1","new_stimuli/mp3/melody_^1_v6_v5+_.mp3"
"","2032","html-button-response","91","2556585","0.0-15.0-2.2","26283","","<p>Which tone was played second after the cadence?</p>","9","","2","new_stimuli/mp3/melody_^1_v6_v5+_.mp3"
"","545","html-button-response","92","2557132","0.0-15.0-3.2","26283","","<p>Which tone was played third after the cadence?</p>","8","","3","new_stimuli/mp3/melody_^1_v6_v5+_.mp3"
"","null","audio-keyboard-response","93","2567153","0.0-15.0-0.3","26283","","new_stimuli/mp3/melody_v5_v4_v3_buffer.mp3","","null","",""
"","1697","html-button-response","94","2568850","0.0-15.0-1.3","26283","","<p>Which tone was played first after the cadence?</p>","7","","1","new_stimuli/mp3/melody_v5_v4_v3_buffer.mp3"
"","750","html-button-response","95","2569601","0.0-15.0-2.3","26283","","<p>Which tone was played second after the cadence?</p>","5","","2","new_stimuli/mp3/melody_v5_v4_v3_buffer.mp3"
"","553","html-button-response","96","2570158","0.0-15.0-3.3","26283","","<p>Which tone was played third after the cadence?</p>","4","","3","new_stimuli/mp3/melody_v5_v4_v3_buffer.mp3"
"","null","audio-keyboard-response","97","2579811","0.0-15.0-0.4","26283","","new_stimuli/mp3/melody_v1_v7-_^7_.mp3","","null","",""
"","2188","html-button-response","98","2582001","0.0-15.0-1.4","26283","","<p>Which tone was played first after the cadence?</p>","12","","1","new_stimuli/mp3/melody_v1_v7-_^7_.mp3"
"","2480","html-button-response","99","2584485","0.0-15.0-2.4","26283","","<p>Which tone was played second after the cadence?</p>","7","","2","new_stimuli/mp3/melody_v1_v7-_^7_.mp3"
"","757","html-button-response","100","2585245","0.0-15.0-3.4","26283","","<p>Which tone was played third after the cadence?</p>","8","","3","new_stimuli/mp3/melody_v1_v7-_^7_.mp3"
"","null","audio-keyboard-response","101","2594937","0.0-15.0-0.5","26283","","new_stimuli/mp3/melody_6_^1_v5_.mp3","","null","",""
"","1499","html-button-response","102","2596437","0.0-15.0-1.5","26283","","<p>Which tone was played first after the cadence?</p>","7","","1","new_stimuli/mp3/melody_6_^1_v5_.mp3"
"","999","html-button-response","103","2597437","0.0-15.0-2.5","26283","","<p>Which tone was played second after the cadence?</p>","12","","2","new_stimuli/mp3/melody_6_^1_v5_.mp3"
"","688","html-button-response","104","2598125","0.0-15.0-3.5","26283","","<p>Which tone was played third after the cadence?</p>","9","","3","new_stimuli/mp3/melody_6_^1_v5_.mp3"
"","null","audio-keyboard-response","105","2607875","0.0-15.0-0.6","26283","","new_stimuli/mp3/melody_v4_v3_v2_buffer.mp3","","null","",""
"","1662","html-button-response","106","2609536","0.0-15.0-1.6","26283","","<p>Which tone was played first after the cadence?</p>","5","","1","new_stimuli/mp3/melody_v4_v3_v2_buffer.mp3"
"","484","html-button-response","107","2610021","0.0-15.0-2.6","26283","","<p>Which tone was played second after the cadence?</p>","4","","2","new_stimuli/mp3/melody_v4_v3_v2_buffer.mp3"
"","1005","html-button-response","108","2611028","0.0-15.0-3.6","26283","","<p>Which tone was played third after the cadence?</p>","2","","3","new_stimuli/mp3/melody_v4_v3_v2_buffer.mp3"
"","null","audio-keyboard-response","109","2621060","0.0-15.0-0.7","26283","","new_stimuli/mp3/melody_v2_v5_^3_buffer.mp3","","null","",""
"","1872","html-button-response","110","2622932","0.0-15.0-1.7","26283","","<p>Which tone was played first after the cadence?</p>","2","","1","new_stimuli/mp3/melody_v2_v5_^3_buffer.mp3"
"","1088","html-button-response","111","2624021","0.0-15.0-2.7","26283","","<p>Which tone was played second after the cadence?</p>","7","","2","new_stimuli/mp3/melody_v2_v5_^3_buffer.mp3"
"","1214","html-button-response","112","2625236","0.0-15.0-3.7","26283","","<p>Which tone was played third after the cadence?</p>","4","","3","new_stimuli/mp3/melody_v2_v5_^3_buffer.mp3"
"","null","audio-keyboard-response","113","2634886","0.0-15.0-0.8","26283","","new_stimuli/mp3/melody_v1_v7-_7-_buffer.mp3","","null","",""
"","1078","html-button-response","114","2635966","0.0-15.0-1.8","26283","","<p>Which tone was played first after the cadence?</p>","12","","1","new_stimuli/mp3/melody_v1_v7-_7-_buffer.mp3"
"","684","html-button-response","115","2636652","0.0-15.0-2.8","26283","","<p>Which tone was played second after the cadence?</p>","10","","2","new_stimuli/mp3/melody_v1_v7-_7-_buffer.mp3"
"","416","html-button-response","116","2637068","0.0-15.0-3.8","26283","","<p>Which tone was played third after the cadence?</p>","10","","3","new_stimuli/mp3/melody_v1_v7-_7-_buffer.mp3"
"[{""page_index"":0,""viewing_time"":2667},{""page_index"":1,""viewing_time"":1158},{""page_index"":2,""viewing_time"":2043}]","5868","instructions","117","2642937","0.0-16.0","26283","","","","","",""
"","null","audio-keyboard-response","118","2653711","0.0-17.0-0.0","26283","","new_stimuli/mp3/melody_^6_v5_v4_v3_v2_buffer.mp3","","null","",""
"","1519","html-button-response","119","2655235","0.0-17.0-1.0","26283","","<p>Which tone was played first after the cadence?</p>","9","","1","new_stimuli/mp3/melody_^6_v5_v4_v3_v2_buffer.mp3"
"","690","html-button-response","120","2655926","0.0-17.0-2.0","26283","","<p>Which tone was played second after the cadence?</p>","7","","2","new_stimuli/mp3/melody_^6_v5_v4_v3_v2_buffer.mp3"
"","944","html-button-response","121","2656871","0.0-17.0-3.0","26283","","<p>Which tone was played third after the cadence?</p>","5","","3","new_stimuli/mp3/melody_^6_v5_v4_v3_v2_buffer.mp3"
"","966","html-button-response","122","2657839","0.0-17.0-4.0","26283","","<p>Which tone was played fourth after the cadence?</p>","4","","4","new_stimuli/mp3/melody_^6_v5_v4_v3_v2_buffer.mp3"
"","799","html-button-response","123","2658639","0.0-17.0-5.0","26283","","<p>Which tone was played fifth after the cadence?</p>","2","","5","new_stimuli/mp3/melody_^6_v5_v4_v3_v2_buffer.mp3"
"","null","audio-keyboard-response","124","2669329","0.0-17.0-0.1","26283","","new_stimuli/mp3/melody_^6_v4_v3_^4_^5_.mp3","","null","",""
"","3928","html-button-response","125","2673259","0.0-17.0-1.1","26283","","<p>Which tone was played first after the cadence?</p>","12","","1","new_stimuli/mp3/melody_^6_v4_v3_^4_^5_.mp3"
"","843","html-button-response","126","2674103","0.0-17.0-2.1","26283","","<p>Which tone was played second after the cadence?</p>","7","","2","new_stimuli/mp3/melody_^6_v4_v3_^4_^5_.mp3"
"","735","html-button-response","127","2674840","0.0-17.0-3.1","26283","","<p>Which tone was played third after the cadence?</p>","5","","3","new_stimuli/mp3/melody_^6_v4_v3_^4_^5_.mp3"
"","815","html-button-response","128","2675655","0.0-17.0-4.1","26283","","<p>Which tone was played fourth after the cadence?</p>","4","","4","new_stimuli/mp3/melody_^6_v4_v3_^4_^5_.mp3"
"","615","html-button-response","129","2676271","0.0-17.0-5.1","26283","","<p>Which tone was played fifth after the cadence?</p>","7","","5","new_stimuli/mp3/melody_^6_v4_v3_^4_^5_.mp3"
"","null","audio-keyboard-response","130","2687280","0.0-17.0-0.2","26283","","new_stimuli/mp3/melody_v5-_v3_3_^4+_v3_.mp3","","null","",""
"","2264","html-button-response","131","2689544","0.0-17.0-1.2","26283","","<p>Which tone was played first after the cadence?</p>","9","","1","new_stimuli/mp3/melody_v5-_v3_3_^4+_v3_.mp3"
"","523","html-button-response","132","2690068","0.0-17.0-2.2","26283","","<p>Which tone was played second after the cadence?</p>","7","","2","new_stimuli/mp3/melody_v5-_v3_3_^4+_v3_.mp3"
"","390","html-button-response","133","2690460","0.0-17.0-3.2","26283","","<p>Which tone was played third after the cadence?</p>","7","","3","new_stimuli/mp3/melody_v5-_v3_3_^4+_v3_.mp3"
"","608","html-button-response","134","2691068","0.0-17.0-4.2","26283","","<p>Which tone was played fourth after the cadence?</p>","9","","4","new_stimuli/mp3/melody_v5-_v3_3_^4+_v3_.mp3"
"","1193","html-button-response","135","2692261","0.0-17.0-5.2","26283","","<p>Which tone was played fifth after the cadence?</p>","7","","5","new_stimuli/mp3/melody_v5-_v3_3_^4+_v3_.mp3"
"","null","audio-keyboard-response","136","2702901","0.0-17.0-0.3","26283","","new_stimuli/mp3/melody_v5_v4_v3_v2_v1 _buffer.mp3","","null","",""
"","917","html-button-response","137","2703822","0.0-17.0-1.3","26283","","<p>Which tone was played first after the cadence?</p>","7","","1","new_stimuli/mp3/melody_v5_v4_v3_v2_v1 _buffer.mp3"
"","430","html-button-response","138","2704254","0.0-17.0-2.3","26283","","<p>Which tone was played second after the cadence?</p>","5","","2","new_stimuli/mp3/melody_v5_v4_v3_v2_v1 _buffer.mp3"
"","591","html-button-response","139","2704846","0.0-17.0-3.3","26283","","<p>Which tone was played third after the cadence?</p>","4","","3","new_stimuli/mp3/melody_v5_v4_v3_v2_v1 _buffer.mp3"
"","710","html-button-response","140","2705558","0.0-17.0-4.3","26283","","<p>Which tone was played fourth after the cadence?</p>","2","","4","new_stimuli/mp3/melody_v5_v4_v3_v2_v1 _buffer.mp3"
"","663","html-button-response","141","2706223","0.0-17.0-5.3","26283","","<p>Which tone was played fifth after the cadence?</p>","0","","5","new_stimuli/mp3/melody_v5_v4_v3_v2_v1 _buffer.mp3"
"","null","audio-keyboard-response","142","2716860","0.0-17.0-0.4","26283","","new_stimuli/mp3/melody_v2_2_^3_^4_v2_.mp3","","null","",""
"","1512","html-button-response","143","2718374","0.0-17.0-1.4","26283","","<p>Which tone was played first after the cadence?</p>","2","","1","new_stimuli/mp3/melody_v2_2_^3_^4_v2_.mp3"
"","442","html-button-response","144","2718819","0.0-17.0-2.4","26283","","<p>Which tone was played second after the cadence?</p>","2","","2","new_stimuli/mp3/melody_v2_2_^3_^4_v2_.mp3"
"","666","html-button-response","145","2719488","0.0-17.0-3.4","26283","","<p>Which tone was played third after the cadence?</p>","4","","3","new_stimuli/mp3/melody_v2_2_^3_^4_v2_.mp3"
"","526","html-button-response","146","2720015","0.0-17.0-4.4","26283","","<p>Which tone was played fourth after the cadence?</p>","5","","4","new_stimuli/mp3/melody_v2_2_^3_^4_v2_.mp3"
"","663","html-button-response","147","2720678","0.0-17.0-5.4","26283","","<p>Which tone was played fifth after the cadence?</p>","2","","5","new_stimuli/mp3/melody_v2_2_^3_^4_v2_.mp3"
"","null","audio-keyboard-response","148","2731689","0.0-17.0-0.5","26283","","new_stimuli/mp3/melody_^5_^6_v5_v4_v3_buffer.mp3","","null","",""
"","1109","html-button-response","149","2732799","0.0-17.0-1.5","26283","","<p>Which tone was played first after the cadence?</p>","7","","1","new_stimuli/mp3/melody_^5_^6_v5_v4_v3_buffer.mp3"
"","823","html-button-response","150","2733624","0.0-17.0-2.5","26283","","<p>Which tone was played second after the cadence?</p>","9","","2","new_stimuli/mp3/melody_^5_^6_v5_v4_v3_buffer.mp3"
"","615","html-button-response","151","2734239","0.0-17.0-3.5","26283","","<p>Which tone was played third after the cadence?</p>","7","","3","new_stimuli/mp3/melody_^5_^6_v5_v4_v3_buffer.mp3"
"","1272","html-button-response","152","2735512","0.0-17.0-4.5","26283","","<p>Which tone was played fourth after the cadence?</p>","5","","4","new_stimuli/mp3/melody_^5_^6_v5_v4_v3_buffer.mp3"
"","698","html-button-response","153","2736211","0.0-17.0-5.5","26283","","<p>Which tone was played fifth after the cadence?</p>","4","","5","new_stimuli/mp3/melody_^5_^6_v5_v4_v3_buffer.mp3"
"","null","audio-keyboard-response","154","2746911","0.0-17.0-0.6","26283","","new_stimuli/mp3/melody_v5_^6+_^7_^1_5_.mp3","","null","",""
"","911","html-button-response","155","2747823","0.0-17.0-1.6","26283","","<p>Which tone was played first after the cadence?</p>","7","","1","new_stimuli/mp3/melody_v5_^6+_^7_^1_5_.mp3"
"","1443","html-button-response","156","2749266","0.0-17.0-2.6","26283","","<p>Which tone was played second after the cadence?</p>","9","","2","new_stimuli/mp3/melody_v5_^6+_^7_^1_5_.mp3"
"","874","html-button-response","157","2750141","0.0-17.0-3.6","26283","","<p>Which tone was played third after the cadence?</p>","11","","3","new_stimuli/mp3/melody_v5_^6+_^7_^1_5_.mp3"
"","554","html-button-response","158","2750696","0.0-17.0-4.6","26283","","<p>Which tone was played fourth after the cadence?</p>","12","","4","new_stimuli/mp3/melody_v5_^6+_^7_^1_5_.mp3"
"","625","html-button-response","159","2751321","0.0-17.0-5.6","26283","","<p>Which tone was played fifth after the cadence?</p>","7","","5","new_stimuli/mp3/melody_v5_^6+_^7_^1_5_.mp3"
"","null","audio-keyboard-response","160","2761951","0.0-17.0-0.7","26283","","new_stimuli/mp3/melody_v5_v4_v3_v2_v1_.mp3","","null","",""
"","1061","html-button-response","161","2763013","0.0-17.0-1.7","26283","","<p>Which tone was played first after the cadence?</p>","7","","1","new_stimuli/mp3/melody_v5_v4_v3_v2_v1_.mp3"
"","622","html-button-response","162","2763636","0.0-17.0-2.7","26283","","<p>Which tone was played second after the cadence?</p>","5","","2","new_stimuli/mp3/melody_v5_v4_v3_v2_v1_.mp3"
"","1382","html-button-response","163","2765019","0.0-17.0-3.7","26283","","<p>Which tone was played third after the cadence?</p>","4","","3","new_stimuli/mp3/melody_v5_v4_v3_v2_v1_.mp3"
"","715","html-button-response","164","2765736","0.0-17.0-4.7","26283","","<p>Which tone was played fourth after the cadence?</p>","2","","4","new_stimuli/mp3/melody_v5_v4_v3_v2_v1_.mp3"
"","598","html-button-response","165","2766336","0.0-17.0-5.7","26283","","<p>Which tone was played fifth after the cadence?</p>","0","","5","new_stimuli/mp3/melody_v5_v4_v3_v2_v1_.mp3"
"[{""page_index"":0,""viewing_time"":1813},{""page_index"":1,""viewing_time"":953},{""page_index"":2,""viewing_time"":980}]","3746","instructions","166","2770085","0.0-18.0","26283","","","","","",""
"","null","audio-keyboard-response","167","2782110","0.0-19.0-0.0","26283","","new_stimuli/mp3/melody_1_^3_v1_^5_v3_v2_^3_.mp3","","null","",""
"","2527","html-button-response","168","2784640","0.0-19.0-1.0","26283","","<p>Which tone was played first after the cadence?</p>","0","","1","new_stimuli/mp3/melody_1_^3_v1_^5_v3_v2_^3_.mp3"
"","4138","html-button-response","169","2788780","0.0-19.0-2.0","26283","","<p>Which tone was played second after the cadence?</p>","4","","2","new_stimuli/mp3/melody_1_^3_v1_^5_v3_v2_^3_.mp3"
"","912","html-button-response","170","2789694","0.0-19.0-3.0","26283","","<p>Which tone was played third after the cadence?</p>","0","","3","new_stimuli/mp3/melody_1_^3_v1_^5_v3_v2_^3_.mp3"
"","1069","html-button-response","171","2790765","0.0-19.0-4.0","26283","","<p>Which tone was played fourth after the cadence?</p>","7","","4","new_stimuli/mp3/melody_1_^3_v1_^5_v3_v2_^3_.mp3"
"","1103","html-button-response","172","2791869","0.0-19.0-5.0","26283","","<p>Which tone was played fifth after the cadence?</p>","5","","5","new_stimuli/mp3/melody_1_^3_v1_^5_v3_v2_^3_.mp3"
"","658","html-button-response","173","2792529","0.0-19.0-6.0","26283","","<p>Which tone was played sixth after the cadence?</p>","4","","6","new_stimuli/mp3/melody_1_^3_v1_^5_v3_v2_^3_.mp3"
"","1493","html-button-response","174","2794023","0.0-19.0-7.0","26283","","<p>Which tone was played seventh after the cadence?</p>","5","","7","new_stimuli/mp3/melody_1_^3_v1_^5_v3_v2_^3_.mp3"
"","null","audio-keyboard-response","175","2805792","0.0-19.0-0.1","26283","","new_stimuli/mp3/melody_^4_^5_^6_v5_v4_v3_v2_.mp3","","null","",""
"","5029","html-button-response","176","2810823","0.0-19.0-1.1","26283","","<p>Which tone was played first after the cadence?</p>","7","","1","new_stimuli/mp3/melody_^4_^5_^6_v5_v4_v3_v2_.mp3"
"","648","html-button-response","177","2811472","0.0-19.0-2.1","26283","","<p>Which tone was played second after the cadence?</p>","9","","2","new_stimuli/mp3/melody_^4_^5_^6_v5_v4_v3_v2_.mp3"
"","774","html-button-response","178","2812248","0.0-19.0-3.1","26283","","<p>Which tone was played third after the cadence?</p>","11","","3","new_stimuli/mp3/melody_^4_^5_^6_v5_v4_v3_v2_.mp3"
"","647","html-button-response","179","2812896","0.0-19.0-4.1","26283","","<p>Which tone was played fourth after the cadence?</p>","9","","4","new_stimuli/mp3/melody_^4_^5_^6_v5_v4_v3_v2_.mp3"
"","758","html-button-response","180","2813654","0.0-19.0-5.1","26283","","<p>Which tone was played fifth after the cadence?</p>","7","","5","new_stimuli/mp3/melody_^4_^5_^6_v5_v4_v3_v2_.mp3"
"","795","html-button-response","181","2814451","0.0-19.0-6.1","26283","","<p>Which tone was played sixth after the cadence?</p>","5","","6","new_stimuli/mp3/melody_^4_^5_^6_v5_v4_v3_v2_.mp3"
"","2288","html-button-response","182","2816741","0.0-19.0-7.1","26283","","<p>Which tone was played seventh after the cadence?</p>","4","","7","new_stimuli/mp3/melody_^4_^5_^6_v5_v4_v3_v2_.mp3"
"","null","audio-keyboard-response","183","2828471","0.0-19.0-0.2","26283","","new_stimuli/mp3/melody_^4_v6-_v5-_^6-_^4_v2-_2-_.mp3","","null","",""
"","3229","html-button-response","184","2831701","0.0-19.0-1.2","26283","","<p>Which tone was played first after the cadence?</p>","4","","1","new_stimuli/mp3/melody_^4_v6-_v5-_^6-_^4_v2-_2-_.mp3"
"","1132","html-button-response","185","2832836","0.0-19.0-2.2","26283","","<p>Which tone was played second after the cadence?</p>","0","","2","new_stimuli/mp3/melody_^4_v6-_v5-_^6-_^4_v2-_2-_.mp3"
"","2146","html-button-response","186","2834984","0.0-19.0-3.2","26283","","<p>Which tone was played third after the cadence?</p>","8","","3","new_stimuli/mp3/melody_^4_v6-_v5-_^6-_^4_v2-_2-_.mp3"
"","674","html-button-response","187","2835660","0.0-19.0-4.2","26283","","<p>Which tone was played fourth after the cadence?</p>","7","","4","new_stimuli/mp3/melody_^4_v6-_v5-_^6-_^4_v2-_2-_.mp3"
"","4093","html-button-response","188","2839756","0.0-19.0-5.2","26283","","<p>Which tone was played fifth after the cadence?</p>","0","","5","new_stimuli/mp3/melody_^4_v6-_v5-_^6-_^4_v2-_2-_.mp3"
"","1198","html-button-response","189","2840954","0.0-19.0-6.2","26283","","<p>Which tone was played sixth after the cadence?</p>","7","","6","new_stimuli/mp3/melody_^4_v6-_v5-_^6-_^4_v2-_2-_.mp3"
"","374","html-button-response","190","2841330","0.0-19.0-7.2","26283","","<p>Which tone was played seventh after the cadence?</p>","7","","7","new_stimuli/mp3/melody_^4_v6-_v5-_^6-_^4_v2-_2-_.mp3"
"","null","audio-keyboard-response","191","2853102","0.0-19.0-0.3","26283","","new_stimuli/mp3/melody_^1_v7_v6_v5_v4_v3_v2_buffer.mp3","","null","",""
"","1075","html-button-response","192","2854178","0.0-19.0-1.3","26283","","<p>Which tone was played first after the cadence?</p>","12","","1","new_stimuli/mp3/melody_^1_v7_v6_v5_v4_v3_v2_buffer.mp3"
"","613","html-button-response","193","2854792","0.0-19.0-2.3","26283","","<p>Which tone was played second after the cadence?</p>","11","","2","new_stimuli/mp3/melody_^1_v7_v6_v5_v4_v3_v2_buffer.mp3"
"","645","html-button-response","194","2855440","0.0-19.0-3.3","26283","","<p>Which tone was played third after the cadence?</p>","9","","3","new_stimuli/mp3/melody_^1_v7_v6_v5_v4_v3_v2_buffer.mp3"
"","657","html-button-response","195","2856100","0.0-19.0-4.3","26283","","<p>Which tone was played fourth after the cadence?</p>","7","","4","new_stimuli/mp3/melody_^1_v7_v6_v5_v4_v3_v2_buffer.mp3"
"","625","html-button-response","196","2856728","0.0-19.0-5.3","26283","","<p>Which tone was played fifth after the cadence?</p>","5","","5","new_stimuli/mp3/melody_^1_v7_v6_v5_v4_v3_v2_buffer.mp3"
"","1016","html-button-response","197","2857745","0.0-19.0-6.3","26283","","<p>Which tone was played sixth after the cadence?</p>","4","","6","new_stimuli/mp3/melody_^1_v7_v6_v5_v4_v3_v2_buffer.mp3"
"","587","html-button-response","198","2858335","0.0-19.0-7.3","26283","","<p>Which tone was played seventh after the cadence?</p>","2","","7","new_stimuli/mp3/melody_^1_v7_v6_v5_v4_v3_v2_buffer.mp3"
"","null","audio-keyboard-response","199","2869964","0.0-19.0-0.4","26283","","new_stimuli/mp3/melody_^5_^6_v5_v4_v3_v2_v1_buffer.mp3","","null","",""
"","874","html-button-response","200","2870839","0.0-19.0-1.4","26283","","<p>Which tone was played first after the cadence?</p>","7","","1","new_stimuli/mp3/melody_^5_^6_v5_v4_v3_v2_v1_buffer.mp3"
"","770","html-button-response","201","2871610","0.0-19.0-2.4","26283","","<p>Which tone was played second after the cadence?</p>","9","","2","new_stimuli/mp3/melody_^5_^6_v5_v4_v3_v2_v1_buffer.mp3"
"","640","html-button-response","202","2872252","0.0-19.0-3.4","26283","","<p>Which tone was played third after the cadence?</p>","7","","3","new_stimuli/mp3/melody_^5_^6_v5_v4_v3_v2_v1_buffer.mp3"
"","800","html-button-response","203","2873053","0.0-19.0-4.4","26283","","<p>Which tone was played fourth after the cadence?</p>","5","","4","new_stimuli/mp3/melody_^5_^6_v5_v4_v3_v2_v1_buffer.mp3"
"","550","html-button-response","204","2873603","0.0-19.0-5.4","26283","","<p>Which tone was played fifth after the cadence?</p>","4","","5","new_stimuli/mp3/melody_^5_^6_v5_v4_v3_v2_v1_buffer.mp3"
"","740","html-button-response","205","2874345","0.0-19.0-6.4","26283","","<p>Which tone was played sixth after the cadence?</p>","2","","6","new_stimuli/mp3/melody_^5_^6_v5_v4_v3_v2_v1_buffer.mp3"
"","590","html-button-response","206","2874938","0.0-19.0-7.4","26283","","<p>Which tone was played seventh after the cadence?</p>","0","","7","new_stimuli/mp3/melody_^5_^6_v5_v4_v3_v2_v1_buffer.mp3"
"","null","audio-keyboard-response","207","2886649","0.0-19.0-0.5","26283","","new_stimuli/mp3/melody_^6_v5+_v4_^5+_v3_v1_v7-_.mp3","","null","",""
"","2612","html-button-response","208","2889261","0.0-19.0-1.5","26283","","<p>Which tone was played first after the cadence?</p>","7","","1","new_stimuli/mp3/melody_^6_v5+_v4_^5+_v3_v1_v7-_.mp3"
"","615","html-button-response","209","2889878","0.0-19.0-2.5","26283","","<p>Which tone was played second after the cadence?</p>","6","","2","new_stimuli/mp3/melody_^6_v5+_v4_^5+_v3_v1_v7-_.mp3"
"","606","html-button-response","210","2890486","0.0-19.0-3.5","26283","","<p>Which tone was played third after the cadence?</p>","7","","3","new_stimuli/mp3/melody_^6_v5+_v4_^5+_v3_v1_v7-_.mp3"
"","1127","html-button-response","211","2891614","0.0-19.0-4.5","26283","","<p>Which tone was played fourth after the cadence?</p>","4","","4","new_stimuli/mp3/melody_^6_v5+_v4_^5+_v3_v1_v7-_.mp3"
"","980","html-button-response","212","2892596","0.0-19.0-5.5","26283","","<p>Which tone was played fifth after the cadence?</p>","2","","5","new_stimuli/mp3/melody_^6_v5+_v4_^5+_v3_v1_v7-_.mp3"
"","525","html-button-response","213","2893121","0.0-19.0-6.5","26283","","<p>Which tone was played sixth after the cadence?</p>","1","","6","new_stimuli/mp3/melody_^6_v5+_v4_^5+_v3_v1_v7-_.mp3"
"","507","html-button-response","214","2893631","0.0-19.0-7.5","26283","","<p>Which tone was played seventh after the cadence?</p>","0","","7","new_stimuli/mp3/melody_^6_v5+_v4_^5+_v3_v1_v7-_.mp3"
"","null","audio-keyboard-response","215","2905403","0.0-19.0-0.6","26283","","new_stimuli/mp3/melody_v1_^2_v1_v7_^1_^3_v2_.mp3","","null","",""
"","4305","html-button-response","216","2909714","0.0-19.0-1.6","26283","","<p>Which tone was played first after the cadence?</p>","0","","1","new_stimuli/mp3/melody_v1_^2_v1_v7_^1_^3_v2_.mp3"
"","838","html-button-response","217","2910554","0.0-19.0-2.6","26283","","<p>Which tone was played second after the cadence?</p>","2","","2","new_stimuli/mp3/melody_v1_^2_v1_v7_^1_^3_v2_.mp3"
"","776","html-button-response","218","2911333","0.0-19.0-3.6","26283","","<p>Which tone was played third after the cadence?</p>","0","","3","new_stimuli/mp3/melody_v1_^2_v1_v7_^1_^3_v2_.mp3"
"","1126","html-button-response","219","2912461","0.0-19.0-4.6","26283","","<p>Which tone was played fourth after the cadence?</p>","11","","4","new_stimuli/mp3/melody_v1_^2_v1_v7_^1_^3_v2_.mp3"
"","951","html-button-response","220","2913413","0.0-19.0-5.6","26283","","<p>Which tone was played fifth after the cadence?</p>","0","","5","new_stimuli/mp3/melody_v1_^2_v1_v7_^1_^3_v2_.mp3"
"","2534","html-button-response","221","2915948","0.0-19.0-6.6","26283","","<p>Which tone was played sixth after the cadence?</p>","5","","6","new_stimuli/mp3/melody_v1_^2_v1_v7_^1_^3_v2_.mp3"
"","663","html-button-response","222","2916612","0.0-19.0-7.6","26283","","<p>Which tone was played seventh after the cadence?</p>","4","","7","new_stimuli/mp3/melody_v1_^2_v1_v7_^1_^3_v2_.mp3"
"[{""page_index"":0,""viewing_time"":3030},{""page_index"":1,""viewing_time"":1485},{""page_index"":2,""viewing_time"":1117}]","5632","instructions","223","2922245","0.0-20.0","26283","","","","","",""
"","null","audio-keyboard-response","224","2934948","0.0-21.0-0.0","26283","","new_stimuli/mp3/melody_v7_v6_v5_^6_v5_v4_^5_^6_v5_.mp3","","null","",""
"","1975","html-button-response","225","2936925","0.0-21.0-1.0","26283","","<p>Which tone was played first after the cadence?</p>","11","","1","new_stimuli/mp3/melody_v7_v6_v5_^6_v5_v4_^5_^6_v5_.mp3"
"","698","html-button-response","226","2937624","0.0-21.0-2.0","26283","","<p>Which tone was played second after the cadence?</p>","9","","2","new_stimuli/mp3/melody_v7_v6_v5_^6_v5_v4_^5_^6_v5_.mp3"
"","1753","html-button-response","227","2939378","0.0-21.0-3.0","26283","","<p>Which tone was played third after the cadence?</p>","7","","3","new_stimuli/mp3/melody_v7_v6_v5_^6_v5_v4_^5_^6_v5_.mp3"
"","1544","html-button-response","228","2940923","0.0-21.0-4.0","26283","","<p>Which tone was played fourth after the cadence?</p>","5","","4","new_stimuli/mp3/melody_v7_v6_v5_^6_v5_v4_^5_^6_v5_.mp3"
"","513","html-button-response","229","2941437","0.0-21.0-5.0","26283","","<p>Which tone was played fifth after the cadence?</p>","7","","5","new_stimuli/mp3/melody_v7_v6_v5_^6_v5_v4_^5_^6_v5_.mp3"
"","702","html-button-response","230","2942139","0.0-21.0-6.0","26283","","<p>Which tone was played sixth after the cadence?</p>","9","","6","new_stimuli/mp3/melody_v7_v6_v5_^6_v5_v4_^5_^6_v5_.mp3"
"","648","html-button-response","231","2942789","0.0-21.0-7.0","26283","","<p>Which tone was played seventh after the cadence?</p>","7","","7","new_stimuli/mp3/melody_v7_v6_v5_^6_v5_v4_^5_^6_v5_.mp3"
"","750","html-button-response","232","2943540","0.0-21.0-8.0","26283","","<p>Which tone was played eight after the cadence?</p>","9","","8","new_stimuli/mp3/melody_v7_v6_v5_^6_v5_v4_^5_^6_v5_.mp3"
"","882","html-button-response","233","2944423","0.0-21.0-9.0","26283","","<p>Which tone was played nineth after the cadence?</p>","7","","9","new_stimuli/mp3/melody_v7_v6_v5_^6_v5_v4_^5_^6_v5_.mp3"
"","null","audio-keyboard-response","234","2957146","0.0-21.0-0.1","26283","","new_stimuli/mp3/melody_^3_^4_v2_v7_^1_^2_^3_3_^4_.mp3","","null","",""
"","1793","html-button-response","235","2958942","0.0-21.0-1.1","26283","","<p>Which tone was played first after the cadence?</p>","7","","1","new_stimuli/mp3/melody_^3_^4_v2_v7_^1_^2_^3_3_^4_.mp3"
"","1121","html-button-response","236","2960069","0.0-21.0-2.1","26283","","<p>Which tone was played second after the cadence?</p>","9","","2","new_stimuli/mp3/melody_^3_^4_v2_v7_^1_^2_^3_3_^4_.mp3"
"","540","html-button-response","237","2960613","0.0-21.0-3.1","26283","","<p>Which tone was played third after the cadence?</p>","7","","3","new_stimuli/mp3/melody_^3_^4_v2_v7_^1_^2_^3_3_^4_.mp3"
"","749","html-button-response","238","2961364","0.0-21.0-4.1","26283","","<p>Which tone was played fourth after the cadence?</p>","5","","4","new_stimuli/mp3/melody_^3_^4_v2_v7_^1_^2_^3_3_^4_.mp3"
"","545","html-button-response","239","2961912","0.0-21.0-5.1","26283","","<p>Which tone was played fifth after the cadence?</p>","4","","5","new_stimuli/mp3/melody_^3_^4_v2_v7_^1_^2_^3_3_^4_.mp3"
"","1029","html-button-response","240","2962944","0.0-21.0-6.1","26283","","<p>Which tone was played sixth after the cadence?</p>","2","","6","new_stimuli/mp3/melody_^3_^4_v2_v7_^1_^2_^3_3_^4_.mp3"
"","488","html-button-response","241","2963438","0.0-21.0-7.1","26283","","<p>Which tone was played seventh after the cadence?</p>","4","","7","new_stimuli/mp3/melody_^3_^4_v2_v7_^1_^2_^3_3_^4_.mp3"
"","629","html-button-response","242","2964070","0.0-21.0-8.1","26283","","<p>Which tone was played eight after the cadence?</p>","5","","8","new_stimuli/mp3/melody_^3_^4_v2_v7_^1_^2_^3_3_^4_.mp3"
"","655","html-button-response","243","2964726","0.0-21.0-9.1","26283","","<p>Which tone was played nineth after the cadence?</p>","7","","9","new_stimuli/mp3/melody_^3_^4_v2_v7_^1_^2_^3_3_^4_.mp3"
"","null","audio-keyboard-response","244","2977747","0.0-21.0-0.2","26283","","new_stimuli/mp3/melody_^5_^6_v5_v4_v3_v2_v1_^2_^3_buffer.mp3","","null","",""
"","1042","html-button-response","245","2978790","0.0-21.0-1.2","26283","","<p>Which tone was played first after the cadence?</p>","7","","1","new_stimuli/mp3/melody_^5_^6_v5_v4_v3_v2_v1_^2_^3_buffer.mp3"
"","698","html-button-response","246","2979488","0.0-21.0-2.2","26283","","<p>Which tone was played second after the cadence?</p>","9","","2","new_stimuli/mp3/melody_^5_^6_v5_v4_v3_v2_v1_^2_^3_buffer.mp3"
"","757","html-button-response","247","2980247","0.0-21.0-3.2","26283","","<p>Which tone was played third after the cadence?</p>","7","","3","new_stimuli/mp3/melody_^5_^6_v5_v4_v3_v2_v1_^2_^3_buffer.mp3"
"","718","html-button-response","248","2980967","0.0-21.0-4.2","26283","","<p>Which tone was played fourth after the cadence?</p>","5","","4","new_stimuli/mp3/melody_^5_^6_v5_v4_v3_v2_v1_^2_^3_buffer.mp3"
"","631","html-button-response","249","2981599","0.0-21.0-5.2","26283","","<p>Which tone was played fifth after the cadence?</p>","4","","5","new_stimuli/mp3/melody_^5_^6_v5_v4_v3_v2_v1_^2_^3_buffer.mp3"
"","778","html-button-response","250","2982378","0.0-21.0-6.2","26283","","<p>Which tone was played sixth after the cadence?</p>","2","","6","new_stimuli/mp3/melody_^5_^6_v5_v4_v3_v2_v1_^2_^3_buffer.mp3"
"","646","html-button-response","251","2983026","0.0-21.0-7.2","26283","","<p>Which tone was played seventh after the cadence?</p>","0","","7","new_stimuli/mp3/melody_^5_^6_v5_v4_v3_v2_v1_^2_^3_buffer.mp3"
"","1021","html-button-response","252","2984049","0.0-21.0-8.2","26283","","<p>Which tone was played eight after the cadence?</p>","2","","8","new_stimuli/mp3/melody_^5_^6_v5_v4_v3_v2_v1_^2_^3_buffer.mp3"
"","657","html-button-response","253","2984708","0.0-21.0-9.2","26283","","<p>Which tone was played nineth after the cadence?</p>","4","","9","new_stimuli/mp3/melody_^5_^6_v5_v4_v3_v2_v1_^2_^3_buffer.mp3"
"","null","audio-keyboard-response","254","2997700","0.0-21.0-0.3","26283","","new_stimuli/mp3/melody_^2_^4_v3_v2_v1_v3_v2+_^3_^5+_.mp3","","null","",""
"","1791","html-button-response","255","2999491","0.0-21.0-1.3","26283","","<p>Which tone was played first after the cadence?</p>","7","","1","new_stimuli/mp3/melody_^2_^4_v3_v2_v1_v3_v2+_^3_^5+_.mp3"
"","659","html-button-response","256","3000150","0.0-21.0-2.3","26283","","<p>Which tone was played second after the cadence?</p>","9","","2","new_stimuli/mp3/melody_^2_^4_v3_v2_v1_v3_v2+_^3_^5+_.mp3"
"","645","html-button-response","257","3000795","0.0-21.0-3.3","26283","","<p>Which tone was played third after the cadence?</p>","7","","3","new_stimuli/mp3/melody_^2_^4_v3_v2_v1_v3_v2+_^3_^5+_.mp3"
"","725","html-button-response","258","3001523","0.0-21.0-4.3","26283","","<p>Which tone was played fourth after the cadence?</p>","5","","4","new_stimuli/mp3/melody_^2_^4_v3_v2_v1_v3_v2+_^3_^5+_.mp3"
"","1444","html-button-response","259","3002968","0.0-21.0-5.3","26283","","<p>Which tone was played fifth after the cadence?</p>","4","","5","new_stimuli/mp3/melody_^2_^4_v3_v2_v1_v3_v2+_^3_^5+_.mp3"
"","552","html-button-response","260","3003521","0.0-21.0-6.3","26283","","<p>Which tone was played sixth after the cadence?</p>","3","","6","new_stimuli/mp3/melody_^2_^4_v3_v2_v1_v3_v2+_^3_^5+_.mp3"
"","550","html-button-response","261","3004073","0.0-21.0-7.3","26283","","<p>Which tone was played seventh after the cadence?</p>","4","","7","new_stimuli/mp3/melody_^2_^4_v3_v2_v1_v3_v2+_^3_^5+_.mp3"
"","431","html-button-response","262","3004505","0.0-21.0-8.3","26283","","<p>Which tone was played eight after the cadence?</p>","5","","8","new_stimuli/mp3/melody_^2_^4_v3_v2_v1_v3_v2+_^3_^5+_.mp3"
"","591","html-button-response","263","3005097","0.0-21.0-9.3","26283","","<p>Which tone was played nineth after the cadence?</p>","7","","9","new_stimuli/mp3/melody_^2_^4_v3_v2_v1_v3_v2+_^3_^5+_.mp3"
"","null","audio-keyboard-response","264","3017716","0.0-21.0-0.4","26283","","new_stimuli/mp3/melody_^3_^4_^5 _^6_v5_v4_v3_v2_v1_.mp3","","null","",""
"","1233","html-button-response","265","3018950","0.0-21.0-1.4","26283","","<p>Which tone was played first after the cadence?</p>","7","","1","new_stimuli/mp3/melody_^3_^4_^5 _^6_v5_v4_v3_v2_v1_.mp3"
"","826","html-button-response","266","3019777","0.0-21.0-2.4","26283","","<p>Which tone was played second after the cadence?</p>","9","","2","new_stimuli/mp3/melody_^3_^4_^5 _^6_v5_v4_v3_v2_v1_.mp3"
"","834","html-button-response","267","3020612","0.0-21.0-3.4","26283","","<p>Which tone was played third after the cadence?</p>","11","","3","new_stimuli/mp3/melody_^3_^4_^5 _^6_v5_v4_v3_v2_v1_.mp3"
"","671","html-button-response","268","3021286","0.0-21.0-4.4","26283","","<p>Which tone was played fourth after the cadence?</p>","9","","4","new_stimuli/mp3/melody_^3_^4_^5 _^6_v5_v4_v3_v2_v1_.mp3"
"","660","html-button-response","269","3021946","0.0-21.0-5.4","26283","","<p>Which tone was played fifth after the cadence?</p>","7","","5","new_stimuli/mp3/melody_^3_^4_^5 _^6_v5_v4_v3_v2_v1_.mp3"
"","734","html-button-response","270","3022681","0.0-21.0-6.4","26283","","<p>Which tone was played sixth after the cadence?</p>","5","","6","new_stimuli/mp3/melody_^3_^4_^5 _^6_v5_v4_v3_v2_v1_.mp3"
"","2008","html-button-response","271","3024691","0.0-21.0-7.4","26283","","<p>Which tone was played seventh after the cadence?</p>","4","","7","new_stimuli/mp3/melody_^3_^4_^5 _^6_v5_v4_v3_v2_v1_.mp3"
"","666","html-button-response","272","3025363","0.0-21.0-8.4","26283","","<p>Which tone was played eight after the cadence?</p>","2","","8","new_stimuli/mp3/melody_^3_^4_^5 _^6_v5_v4_v3_v2_v1_.mp3"
"","886","html-button-response","273","3026252","0.0-21.0-9.4","26283","","<p>Which tone was played nineth after the cadence?</p>","0","","9","new_stimuli/mp3/melody_^3_^4_^5 _^6_v5_v4_v3_v2_v1_.mp3"
"","null","audio-keyboard-response","274","3039018","0.0-21.0-0.5","26283","","new_stimuli/mp3/melody_^2_^3_^4_^5_^6_v5_v4_v3_v2_buffer.mp3","","null","",""
"","2084","html-button-response","275","3041108","0.0-21.0-1.5","26283","","<p>Which tone was played first after the cadence?</p>","2","","1","new_stimuli/mp3/melody_^2_^3_^4_^5_^6_v5_v4_v3_v2_buffer.mp3"
"","687","html-button-response","276","3041798","0.0-21.0-2.5","26283","","<p>Which tone was played second after the cadence?</p>","4","","2","new_stimuli/mp3/melody_^2_^3_^4_^5_^6_v5_v4_v3_v2_buffer.mp3"
"","774","html-button-response","277","3042572","0.0-21.0-3.5","26283","","<p>Which tone was played third after the cadence?</p>","5","","3","new_stimuli/mp3/melody_^2_^3_^4_^5_^6_v5_v4_v3_v2_buffer.mp3"
"","932","html-button-response","278","3043505","0.0-21.0-4.5","26283","","<p>Which tone was played fourth after the cadence?</p>","7","","4","new_stimuli/mp3/melody_^2_^3_^4_^5_^6_v5_v4_v3_v2_buffer.mp3"
"","701","html-button-response","279","3044209","0.0-21.0-5.5","26283","","<p>Which tone was played fifth after the cadence?</p>","9","","5","new_stimuli/mp3/melody_^2_^3_^4_^5_^6_v5_v4_v3_v2_buffer.mp3"
"","679","html-button-response","280","3044889","0.0-21.0-6.5","26283","","<p>Which tone was played sixth after the cadence?</p>","7","","6","new_stimuli/mp3/melody_^2_^3_^4_^5_^6_v5_v4_v3_v2_buffer.mp3"
"","833","html-button-response","281","3045723","0.0-21.0-7.5","26283","","<p>Which tone was played seventh after the cadence?</p>","5","","7","new_stimuli/mp3/melody_^2_^3_^4_^5_^6_v5_v4_v3_v2_buffer.mp3"
"","771","html-button-response","282","3046497","0.0-21.0-8.5","26283","","<p>Which tone was played eight after the cadence?</p>","4","","8","new_stimuli/mp3/melody_^2_^3_^4_^5_^6_v5_v4_v3_v2_buffer.mp3"
"","843","html-button-response","283","3047340","0.0-21.0-9.5","26283","","<p>Which tone was played nineth after the cadence?</p>","2","","9","new_stimuli/mp3/melody_^2_^3_^4_^5_^6_v5_v4_v3_v2_buffer.mp3"
"","null","audio-keyboard-response","284","3060051","0.0-21.0-0.6","26283","","new_stimuli/mp3/melody_v5_v4_v6+_^7_^3+_v3_v2_v5_^4_.mp3","","null","",""
"","2464","html-button-response","285","3062517","0.0-21.0-1.6","26283","","<p>Which tone was played first after the cadence?</p>","7","","1","new_stimuli/mp3/melody_v5_v4_v6+_^7_^3+_v3_v2_v5_^4_.mp3"
"","865","html-button-response","286","3063382","0.0-21.0-2.6","26283","","<p>Which tone was played second after the cadence?</p>","5","","2","new_stimuli/mp3/melody_v5_v4_v6+_^7_^3+_v3_v2_v5_^4_.mp3"
"","634","html-button-response","287","3064017","0.0-21.0-3.6","26283","","<p>Which tone was played third after the cadence?</p>","4","","3","new_stimuli/mp3/melody_v5_v4_v6+_^7_^3+_v3_v2_v5_^4_.mp3"
"","1944","html-button-response","288","3065962","0.0-21.0-4.6","26283","","<p>Which tone was played fourth after the cadence?</p>","2","","4","new_stimuli/mp3/melody_v5_v4_v6+_^7_^3+_v3_v2_v5_^4_.mp3"
"","589","html-button-response","289","3066553","0.0-21.0-5.6","26283","","<p>Which tone was played fifth after the cadence?</p>","4","","5","new_stimuli/mp3/melody_v5_v4_v6+_^7_^3+_v3_v2_v5_^4_.mp3"
"","1298","html-button-response","290","3067851","0.0-21.0-6.6","26283","","<p>Which tone was played sixth after the cadence?</p>","6","","6","new_stimuli/mp3/melody_v5_v4_v6+_^7_^3+_v3_v2_v5_^4_.mp3"
"","906","html-button-response","291","3068758","0.0-21.0-7.6","26283","","<p>Which tone was played seventh after the cadence?</p>","9","","7","new_stimuli/mp3/melody_v5_v4_v6+_^7_^3+_v3_v2_v5_^4_.mp3"
"","414","html-button-response","292","3069172","0.0-21.0-8.6","26283","","<p>Which tone was played eight after the cadence?</p>","8","","8","new_stimuli/mp3/melody_v5_v4_v6+_^7_^3+_v3_v2_v5_^4_.mp3"
"","628","html-button-response","293","3069800","0.0-21.0-9.6","26283","","<p>Which tone was played nineth after the cadence?</p>","7","","9","new_stimuli/mp3/melody_v5_v4_v6+_^7_^3+_v3_v2_v5_^4_.mp3"
"","6232","survey-text","294","3076034","0.0-22.0","26283","{""Q0"":""sung out loud a lot ""}","","","","",""
"","6161","survey-text","295","3082197","0.0-23.0","26283","{""Q0"":""This was very hard, David! ""}","","","","",""
"","3361","survey-text","296","3085559","0.0-24.0","26283","{""Q0"":""No""}","","","","",""
"","4281","survey-text","297","3089840","0.0-25.0","26283","{""Q0"":""Headphones""}","","","","",""
"[{""page_index"":0,""viewing_time"":7987}]","7988","instructions","298","3097833","0.0-26.0","26283","","","","","",""
