"view_history","rt","trial_type","trial_index","time_elapsed","internal_node_id","subject","responses","stimulus","button_pressed","key_press","response_sequence","melody"
"[{""page_index"":0,""viewing_time"":1193},{""page_index"":1,""viewing_time"":1023},{""page_index"":2,""viewing_time"":913}]","3129","instructions","0","3130","0.0-0.0","31141","","","","","",""
"","3408","survey-text","1","6541","0.0-1.0","31141","{""Q0"":""31""}","","","","",""
"","2418","survey-text","2","8960","0.0-2.0","31141","{""Q0"":""finished phd""}","","","","",""
"","3641","survey-text","3","12604","0.0-3.0","31141","{""Q0"":""moveable-do""}","","","","",""
"","3361","survey-text","4","15967","0.0-4.0","31141","{""Q0"":""to an extent""}","","","","",""
"","4926","survey-text","5","20895","0.0-5.0","31141","{""Q0"":""30 weeks""}","","","","",""
"","3272","survey-text","6","24169","0.0-6.0","31141","{""Q0"":""5""}","","","","",""
"[{""page_index"":0,""viewing_time"":1016},{""page_index"":1,""viewing_time"":1197},{""page_index"":2,""viewing_time"":709}]","2923","instructions","7","27093","0.0-7.0","31141","","","","","",""
"","1663","audio-button-response","8","28759","0.0-8.0","31141","","stimuli/long/c-do.mp3","12","","",""
"","1484","audio-button-response","9","30243","0.0-9.0","31141","","stimuli/long/a-le.mp3","8","","",""
"[{""page_index"":0,""viewing_time"":1371},{""page_index"":1,""viewing_time"":2036}]","3407","instructions","10","33651","0.0-10.0","31141","","","","","",""
"","7695","audio-button-response","11","41347","0.0-11.0-0.0","31141","","stimuli/long/a-do8.mp3","12","","",""
"","7896","audio-button-response","12","49246","0.0-11.0-0.1","31141","","stimuli/long/c-ti.mp3","11","","",""
"","8674","audio-button-response","13","57921","0.0-11.0-0.2","31141","","stimuli/long/e-ra.mp3","1","","",""
"","8549","audio-button-response","14","66470","0.0-11.0-0.3","31141","","stimuli/long/a-te.mp3","10","","",""
"","7716","audio-button-response","15","74189","0.0-11.0-0.4","31141","","stimuli/long/e-do.mp3","12","","",""
"","8425","audio-button-response","16","82615","0.0-11.0-0.5","31141","","stimuli/long/a-fi.mp3","6","","",""
"","7918","audio-button-response","17","90534","0.0-11.0-0.6","31141","","stimuli/long/a-fa.mp3","5","","",""
"","9246","audio-button-response","18","99783","0.0-11.0-0.7","31141","","stimuli/long/c-fi.mp3","6","","",""
"","10113","audio-button-response","19","109898","0.0-11.0-0.8","31141","","stimuli/long/e-te.mp3","10","","",""
"","8999","audio-button-response","20","118898","0.0-11.0-0.9","31141","","stimuli/long/a-le.mp3","8","","",""
"","8648","audio-button-response","21","127550","0.0-11.0-0.10","31141","","stimuli/long/a-re.mp3","2","","",""
"","8299","audio-button-response","22","135853","0.0-11.0-0.11","31141","","stimuli/long/a-me.mp3","3","","",""
"","7199","audio-button-response","23","143053","0.0-11.0-0.12","31141","","stimuli/long/a-do.mp3","12","","",""
"","8099","audio-button-response","24","151153","0.0-11.0-0.13","31141","","stimuli/long/a-la.mp3","9","","",""
"","7975","audio-button-response","25","159130","0.0-11.0-0.14","31141","","stimuli/long/c-sol.mp3","7","","",""
"","7615","audio-button-response","26","166747","0.0-11.0-0.15","31141","","stimuli/long/e-ti.mp3","11","","",""
"","8347","audio-button-response","27","175094","0.0-11.0-0.16","31141","","stimuli/long/e-mi.mp3","4","","",""
"","8583","audio-button-response","28","183679","0.0-11.0-0.17","31141","","stimuli/long/a-ra.mp3","1","","",""
"","8368","audio-button-response","29","192049","0.0-11.0-0.18","31141","","stimuli/long/e-le.mp3","8","","",""
"","7669","audio-button-response","30","199721","0.0-11.0-0.19","31141","","stimuli/long/a-mi.mp3","4","","",""
"","8887","audio-button-response","31","208610","0.0-11.0-0.20","31141","","stimuli/long/e-me.mp3","3","","",""
"","7322","audio-button-response","32","215934","0.0-11.0-0.21","31141","","stimuli/long/c-do.mp3","12","","",""
"","7694","audio-button-response","33","223630","0.0-11.0-0.22","31141","","stimuli/long/e-la.mp3","9","","",""
"","8179","audio-button-response","34","231809","0.0-11.0-0.23","31141","","stimuli/long/e-fa.mp3","5","","",""
"","8391","audio-button-response","35","240202","0.0-11.0-0.24","31141","","stimuli/long/e-sol.mp3","7","","",""
"","7704","audio-button-response","36","247907","0.0-11.0-0.25","31141","","stimuli/long/c-fa.mp3","5","","",""
"","7660","audio-button-response","37","255570","0.0-11.0-0.26","31141","","stimuli/long/a-sol.mp3","7","","",""
"","7861","audio-button-response","38","263434","0.0-11.0-0.27","31141","","stimuli/long/e-re.mp3","2","","",""
"","7424","audio-button-response","39","270859","0.0-11.0-0.28","31141","","stimuli/long/e-do8.mp3","12","","",""
"","8043","audio-button-response","40","278904","0.0-11.0-0.29","31141","","stimuli/long/c-mi.mp3","4","","",""
"","8874","audio-button-response","41","287780","0.0-11.0-0.30","31141","","stimuli/long/e-fi.mp3","6","","",""
"","8560","audio-button-response","42","296342","0.0-11.0-0.31","31141","","stimuli/long/c-le.mp3","8","","",""
"","7514","audio-button-response","43","303857","0.0-11.0-0.32","31141","","stimuli/long/c-la.mp3","9","","",""
"","7514","audio-button-response","44","311373","0.0-11.0-0.33","31141","","stimuli/long/c-re.mp3","2","","",""
"","7705","audio-button-response","45","319080","0.0-11.0-0.34","31141","","stimuli/long/a-ti.mp3","11","","",""
"","7582","audio-button-response","46","326662","0.0-11.0-0.35","31141","","stimuli/long/c-me.mp3","3","","",""
"","7503","audio-button-response","47","334166","0.0-11.0-0.36","31141","","stimuli/long/c-do8.mp3","12","","",""
"","7390","audio-button-response","48","341558","0.0-11.0-0.37","31141","","stimuli/long/c-ra.mp3","1","","",""
"[{""page_index"":0,""viewing_time"":7828},{""page_index"":1,""viewing_time"":1182}]","9010","instructions","49","350570","0.0-12.0","31141","","","","","",""
"","null","audio-keyboard-response","50","359999","0.0-13.0-0.0","31141","","new_stimuli/mp3/melody_v4_v3_buffer.mp3","","null","",""
"","1300","html-button-response","51","361303","0.0-13.0-1.0","31141","","<p>Which tone was played first after the cadence?</p><p>Please respond as quickly and as accurately as possible!</p>","5","","1","new_stimuli/mp3/melody_v4_v3_buffer.mp3"
"","595","html-button-response","52","361899","0.0-13.0-2.0","31141","","<p>Which tone was played second after the cadence?</p><p>Please respond as quickly and as accurately as possible!</p>","4","","2","new_stimuli/mp3/melody_v4_v3_buffer.mp3"
"","null","audio-keyboard-response","53","371197","0.0-13.0-0.1","31141","","new_stimuli/mp3/melody_3_^6_buffer.mp3","","null","",""
"","1353","html-button-response","54","372554","0.0-13.0-1.1","31141","","<p>Which tone was played first after the cadence?</p><p>Please respond as quickly and as accurately as possible!</p>","4","","1","new_stimuli/mp3/melody_3_^6_buffer.mp3"
"","832","html-button-response","55","373385","0.0-13.0-2.1","31141","","<p>Which tone was played second after the cadence?</p><p>Please respond as quickly and as accurately as possible!</p>","9","","2","new_stimuli/mp3/melody_3_^6_buffer.mp3"
"","null","audio-keyboard-response","56","382847","0.0-13.0-0.2","31141","","new_stimuli/mp3/melody_^3_v4+_buffer.mp3","","null","",""
"","1259","html-button-response","57","384107","0.0-13.0-1.2","31141","","<p>Which tone was played first after the cadence?</p><p>Please respond as quickly and as accurately as possible!</p>","4","","1","new_stimuli/mp3/melody_^3_v4+_buffer.mp3"
"","675","html-button-response","58","384783","0.0-13.0-2.2","31141","","<p>Which tone was played second after the cadence?</p><p>Please respond as quickly and as accurately as possible!</p>","6","","2","new_stimuli/mp3/melody_^3_v4+_buffer.mp3"
"","null","audio-keyboard-response","59","393848","0.0-13.0-0.3","31141","","new_stimuli/mp3/melody_v2_v1_.mp3","","null","",""
"","1239","html-button-response","60","395087","0.0-13.0-1.3","31141","","<p>Which tone was played first after the cadence?</p><p>Please respond as quickly and as accurately as possible!</p>","2","","1","new_stimuli/mp3/melody_v2_v1_.mp3"
"","774","html-button-response","61","395864","0.0-13.0-2.3","31141","","<p>Which tone was played second after the cadence?</p><p>Please respond as quickly and as accurately as possible!</p>","0","","2","new_stimuli/mp3/melody_v2_v1_.mp3"
"","null","audio-keyboard-response","62","405057","0.0-13.0-0.4","31141","","new_stimuli/mp3/melody_v3_v2_buffer.mp3","","null","",""
"","1673","html-button-response","63","406732","0.0-13.0-1.4","31141","","<p>Which tone was played first after the cadence?</p><p>Please respond as quickly and as accurately as possible!</p>","4","","1","new_stimuli/mp3/melody_v3_v2_buffer.mp3"
"","786","html-button-response","64","407520","0.0-13.0-2.4","31141","","<p>Which tone was played second after the cadence?</p><p>Please respond as quickly and as accurately as possible!</p>","2","","2","new_stimuli/mp3/melody_v3_v2_buffer.mp3"
"","null","audio-keyboard-response","65","416687","0.0-13.0-0.5","31141","","new_stimuli/mp3/melody_^5_^1+_.mp3","","null","",""
"","1496","html-button-response","66","418185","0.0-13.0-1.5","31141","","<p>Which tone was played first after the cadence?</p><p>Please respond as quickly and as accurately as possible!</p>","7","","1","new_stimuli/mp3/melody_^5_^1+_.mp3"
"","853","html-button-response","67","419041","0.0-13.0-2.5","31141","","<p>Which tone was played second after the cadence?</p><p>Please respond as quickly and as accurately as possible!</p>","1","","2","new_stimuli/mp3/melody_^5_^1+_.mp3"
"","null","audio-keyboard-response","68","428497","0.0-13.0-0.6","31141","","new_stimuli/mp3/melody_v7_v3_buffer.mp3","","null","",""
"","2154","html-button-response","69","430652","0.0-13.0-1.6","31141","","<p>Which tone was played first after the cadence?</p><p>Please respond as quickly and as accurately as possible!</p>","11","","1","new_stimuli/mp3/melody_v7_v3_buffer.mp3"
"","1270","html-button-response","70","431922","0.0-13.0-2.6","31141","","<p>Which tone was played second after the cadence?</p><p>Please respond as quickly and as accurately as possible!</p>","4","","2","new_stimuli/mp3/melody_v7_v3_buffer.mp3"
"","null","audio-keyboard-response","71","440937","0.0-13.0-0.7","31141","","new_stimuli/mp3/melody_^1_^2+_.mp3","","null","",""
"","873","html-button-response","72","441811","0.0-13.0-1.7","31141","","<p>Which tone was played first after the cadence?</p><p>Please respond as quickly and as accurately as possible!</p>","0","","1","new_stimuli/mp3/melody_^1_^2+_.mp3"
"","854","html-button-response","73","442666","0.0-13.0-2.7","31141","","<p>Which tone was played second after the cadence?</p><p>Please respond as quickly and as accurately as possible!</p>","3","","2","new_stimuli/mp3/melody_^1_^2+_.mp3"
"","null","audio-keyboard-response","74","451837","0.0-13.0-0.8","31141","","new_stimuli/mp3/melody_v5_v1+_.mp3","","null","",""
"","2900","html-button-response","75","454739","0.0-13.0-1.8","31141","","<p>Which tone was played first after the cadence?</p><p>Please respond as quickly and as accurately as possible!</p>","7","","1","new_stimuli/mp3/melody_v5_v1+_.mp3"
"","1293","html-button-response","76","456032","0.0-13.0-2.8","31141","","<p>Which tone was played second after the cadence?</p><p>Please respond as quickly and as accurately as possible!</p>","1","","2","new_stimuli/mp3/melody_v5_v1+_.mp3"
"","null","audio-keyboard-response","77","465198","0.0-13.0-0.9","31141","","new_stimuli/mp3/melody_^2_v7-_.mp3","","null","",""
"","1465","html-button-response","78","466664","0.0-13.0-1.9","31141","","<p>Which tone was played first after the cadence?</p><p>Please respond as quickly and as accurately as possible!</p>","2","","1","new_stimuli/mp3/melody_^2_v7-_.mp3"
"","1090","html-button-response","79","467755","0.0-13.0-2.9","31141","","<p>Which tone was played second after the cadence?</p><p>Please respond as quickly and as accurately as possible!</p>","10","","2","new_stimuli/mp3/melody_^2_v7-_.mp3"
"[{""page_index"":0,""viewing_time"":2429},{""page_index"":1,""viewing_time"":1283},{""page_index"":2,""viewing_time"":1271}]","4984","instructions","80","472740","0.0-14.0","31141","","","","","",""
"","null","audio-keyboard-response","81","482328","0.0-15.0-0.0","31141","","new_stimuli/mp3/melody_v1_v7-_7-_buffer.mp3","","null","",""
"","986","html-button-response","82","483315","0.0-15.0-1.0","31141","","<p>Which tone was played first after the cadence?</p><p>Please respond as quickly and as accurately as possible!</p>","0","","1","new_stimuli/mp3/melody_v1_v7-_7-_buffer.mp3"
"","1336","html-button-response","83","484654","0.0-15.0-2.0","31141","","<p>Which tone was played second after the cadence?</p><p>Please respond as quickly and as accurately as possible!</p>","10","","2","new_stimuli/mp3/melody_v1_v7-_7-_buffer.mp3"
"","483","html-button-response","84","485137","0.0-15.0-3.0","31141","","<p>Which tone was played third after the cadence?</p><p>Please respond as quickly and as accurately as possible!</p>","10","","3","new_stimuli/mp3/melody_v1_v7-_7-_buffer.mp3"
"","null","audio-keyboard-response","85","494777","0.0-15.0-0.1","31141","","new_stimuli/mp3/melody_6_^1_v5_.mp3","","null","",""
"","1801","html-button-response","86","496580","0.0-15.0-1.1","31141","","<p>Which tone was played first after the cadence?</p><p>Please respond as quickly and as accurately as possible!</p>","9","","1","new_stimuli/mp3/melody_6_^1_v5_.mp3"
"","887","html-button-response","87","497468","0.0-15.0-2.1","31141","","<p>Which tone was played second after the cadence?</p><p>Please respond as quickly and as accurately as possible!</p>","12","","2","new_stimuli/mp3/melody_6_^1_v5_.mp3"
"","910","html-button-response","88","498379","0.0-15.0-3.1","31141","","<p>Which tone was played third after the cadence?</p><p>Please respond as quickly and as accurately as possible!</p>","7","","3","new_stimuli/mp3/melody_6_^1_v5_.mp3"
"","null","audio-keyboard-response","89","507937","0.0-15.0-0.2","31141","","new_stimuli/mp3/melody_v1_v7-_^7_.mp3","","null","",""
"","938","html-button-response","90","508876","0.0-15.0-1.2","31141","","<p>Which tone was played first after the cadence?</p><p>Please respond as quickly and as accurately as possible!</p>","12","","1","new_stimuli/mp3/melody_v1_v7-_^7_.mp3"
"","674","html-button-response","91","509551","0.0-15.0-2.2","31141","","<p>Which tone was played second after the cadence?</p><p>Please respond as quickly and as accurately as possible!</p>","10","","2","new_stimuli/mp3/melody_v1_v7-_^7_.mp3"
"","1045","html-button-response","92","510598","0.0-15.0-3.2","31141","","<p>Which tone was played third after the cadence?</p><p>Please respond as quickly and as accurately as possible!</p>","11","","3","new_stimuli/mp3/melody_v1_v7-_^7_.mp3"
"","null","audio-keyboard-response","93","520157","0.0-15.0-0.3","31141","","new_stimuli/mp3/melody_v3_v2_v1_.mp3","","null","",""
"","1239","html-button-response","94","521398","0.0-15.0-1.3","31141","","<p>Which tone was played first after the cadence?</p><p>Please respond as quickly and as accurately as possible!</p>","4","","1","new_stimuli/mp3/melody_v3_v2_v1_.mp3"
"","730","html-button-response","95","522130","0.0-15.0-2.3","31141","","<p>Which tone was played second after the cadence?</p><p>Please respond as quickly and as accurately as possible!</p>","2","","2","new_stimuli/mp3/melody_v3_v2_v1_.mp3"
"","640","html-button-response","96","522770","0.0-15.0-3.3","31141","","<p>Which tone was played third after the cadence?</p><p>Please respond as quickly and as accurately as possible!</p>","0","","3","new_stimuli/mp3/melody_v3_v2_v1_.mp3"
"","null","audio-keyboard-response","97","532457","0.0-15.0-0.4","31141","","new_stimuli/mp3/melody_v4_v3_v2_buffer.mp3","","null","",""
"","1270","html-button-response","98","533729","0.0-15.0-1.4","31141","","<p>Which tone was played first after the cadence?</p><p>Please respond as quickly and as accurately as possible!</p>","5","","1","new_stimuli/mp3/melody_v4_v3_v2_buffer.mp3"
"","505","html-button-response","99","534235","0.0-15.0-2.4","31141","","<p>Which tone was played second after the cadence?</p><p>Please respond as quickly and as accurately as possible!</p>","4","","2","new_stimuli/mp3/melody_v4_v3_v2_buffer.mp3"
"","730","html-button-response","100","534967","0.0-15.0-3.4","31141","","<p>Which tone was played third after the cadence?</p><p>Please respond as quickly and as accurately as possible!</p>","2","","3","new_stimuli/mp3/melody_v4_v3_v2_buffer.mp3"
"","null","audio-keyboard-response","101","544867","0.0-15.0-0.5","31141","","new_stimuli/mp3/melody_^1_v6_v5+_.mp3","","null","",""
"","1617","html-button-response","102","546486","0.0-15.0-1.5","31141","","<p>Which tone was played first after the cadence?</p><p>Please respond as quickly and as accurately as possible!</p>","12","","1","new_stimuli/mp3/melody_^1_v6_v5+_.mp3"
"","877","html-button-response","103","547364","0.0-15.0-2.5","31141","","<p>Which tone was played second after the cadence?</p><p>Please respond as quickly and as accurately as possible!</p>","9","","2","new_stimuli/mp3/melody_^1_v6_v5+_.mp3"
"","674","html-button-response","104","548040","0.0-15.0-3.5","31141","","<p>Which tone was played third after the cadence?</p><p>Please respond as quickly and as accurately as possible!</p>","8","","3","new_stimuli/mp3/melody_^1_v6_v5+_.mp3"
"","null","audio-keyboard-response","105","557988","0.0-15.0-0.6","31141","","new_stimuli/mp3/melody_v5_v4_v3_buffer.mp3","","null","",""
"","1324","html-button-response","106","559313","0.0-15.0-1.6","31141","","<p>Which tone was played first after the cadence?</p><p>Please respond as quickly and as accurately as possible!</p>","7","","1","new_stimuli/mp3/melody_v5_v4_v3_buffer.mp3"
"","696","html-button-response","107","560010","0.0-15.0-2.6","31141","","<p>Which tone was played second after the cadence?</p><p>Please respond as quickly and as accurately as possible!</p>","5","","2","new_stimuli/mp3/melody_v5_v4_v3_buffer.mp3"
"","527","html-button-response","108","560539","0.0-15.0-3.6","31141","","<p>Which tone was played third after the cadence?</p><p>Please respond as quickly and as accurately as possible!</p>","4","","3","new_stimuli/mp3/melody_v5_v4_v3_buffer.mp3"
"","null","audio-keyboard-response","109","570048","0.0-15.0-0.7","31141","","new_stimuli/mp3/melody_1_v1+_^2_.mp3","","null","",""
"","2989","html-button-response","110","573039","0.0-15.0-1.7","31141","","<p>Which tone was played first after the cadence?</p><p>Please respond as quickly and as accurately as possible!</p>","0","","1","new_stimuli/mp3/melody_1_v1+_^2_.mp3"
"","1080","html-button-response","111","574119","0.0-15.0-2.7","31141","","<p>Which tone was played second after the cadence?</p><p>Please respond as quickly and as accurately as possible!</p>","1","","2","new_stimuli/mp3/melody_1_v1+_^2_.mp3"
"","1057","html-button-response","112","575176","0.0-15.0-3.7","31141","","<p>Which tone was played third after the cadence?</p><p>Please respond as quickly and as accurately as possible!</p>","2","","3","new_stimuli/mp3/melody_1_v1+_^2_.mp3"
"","null","audio-keyboard-response","113","585147","0.0-15.0-0.8","31141","","new_stimuli/mp3/melody_v2_v5_^3_buffer.mp3","","null","",""
"","1616","html-button-response","114","586764","0.0-15.0-1.8","31141","","<p>Which tone was played first after the cadence?</p><p>Please respond as quickly and as accurately as possible!</p>","2","","1","new_stimuli/mp3/melody_v2_v5_^3_buffer.mp3"
"","1044","html-button-response","115","587810","0.0-15.0-2.8","31141","","<p>Which tone was played second after the cadence?</p><p>Please respond as quickly and as accurately as possible!</p>","7","","2","new_stimuli/mp3/melody_v2_v5_^3_buffer.mp3"
"","1260","html-button-response","116","589070","0.0-15.0-3.8","31141","","<p>Which tone was played third after the cadence?</p><p>Please respond as quickly and as accurately as possible!</p>","4","","3","new_stimuli/mp3/melody_v2_v5_^3_buffer.mp3"
"[{""page_index"":0,""viewing_time"":6243},{""page_index"":1,""viewing_time"":2554},{""page_index"":2,""viewing_time"":911}]","9708","instructions","117","598780","0.0-16.0","31141","","","","","",""
"","null","audio-keyboard-response","118","609487","0.0-17.0-0.0","31141","","new_stimuli/mp3/melody_^6_v5_v4_v3_v2_buffer.mp3","","null","",""
"","1318","html-button-response","119","610807","0.0-17.0-1.0","31141","","<p>Which tone was played first after the cadence?</p><p>Please respond as quickly and as accurately as possible!</p>","9","","1","new_stimuli/mp3/melody_^6_v5_v4_v3_v2_buffer.mp3"
"","595","html-button-response","120","611402","0.0-17.0-2.0","31141","","<p>Which tone was played second after the cadence?</p><p>Please respond as quickly and as accurately as possible!</p>","7","","2","new_stimuli/mp3/melody_^6_v5_v4_v3_v2_buffer.mp3"
"","617","html-button-response","121","612022","0.0-17.0-3.0","31141","","<p>Which tone was played third after the cadence?</p><p>Please respond as quickly and as accurately as possible!</p>","5","","3","new_stimuli/mp3/melody_^6_v5_v4_v3_v2_buffer.mp3"
"","628","html-button-response","122","612651","0.0-17.0-4.0","31141","","<p>Which tone was played fourth after the cadence?</p><p>Please respond as quickly and as accurately as possible!</p>","4","","4","new_stimuli/mp3/melody_^6_v5_v4_v3_v2_buffer.mp3"
"","628","html-button-response","123","613281","0.0-17.0-5.0","31141","","<p>Which tone was played fifth after the cadence?</p><p>Please respond as quickly and as accurately as possible!</p>","2","","5","new_stimuli/mp3/melody_^6_v5_v4_v3_v2_buffer.mp3"
"","null","audio-keyboard-response","124","623858","0.0-17.0-0.1","31141","","new_stimuli/mp3/melody_v5_v4_v3_v2_v1 _buffer.mp3","","null","",""
"","1224","html-button-response","125","625084","0.0-17.0-1.1","31141","","<p>Which tone was played first after the cadence?</p><p>Please respond as quickly and as accurately as possible!</p>","7","","1","new_stimuli/mp3/melody_v5_v4_v3_v2_v1 _buffer.mp3"
"","505","html-button-response","126","625590","0.0-17.0-2.1","31141","","<p>Which tone was played second after the cadence?</p><p>Please respond as quickly and as accurately as possible!</p>","5","","2","new_stimuli/mp3/melody_v5_v4_v3_v2_v1 _buffer.mp3"
"","662","html-button-response","127","626254","0.0-17.0-3.1","31141","","<p>Which tone was played third after the cadence?</p><p>Please respond as quickly and as accurately as possible!</p>","4","","3","new_stimuli/mp3/melody_v5_v4_v3_v2_v1 _buffer.mp3"
"","483","html-button-response","128","626737","0.0-17.0-4.1","31141","","<p>Which tone was played fourth after the cadence?</p><p>Please respond as quickly and as accurately as possible!</p>","2","","4","new_stimuli/mp3/melody_v5_v4_v3_v2_v1 _buffer.mp3"
"","449","html-button-response","129","627187","0.0-17.0-5.1","31141","","<p>Which tone was played fifth after the cadence?</p><p>Please respond as quickly and as accurately as possible!</p>","0","","5","new_stimuli/mp3/melody_v5_v4_v3_v2_v1 _buffer.mp3"
"","null","audio-keyboard-response","130","638137","0.0-17.0-0.2","31141","","new_stimuli/mp3/melody_^5_^6_v5_v4_v3_buffer.mp3","","null","",""
"","1166","html-button-response","131","639304","0.0-17.0-1.2","31141","","<p>Which tone was played first after the cadence?</p><p>Please respond as quickly and as accurately as possible!</p>","7","","1","new_stimuli/mp3/melody_^5_^6_v5_v4_v3_buffer.mp3"
"","550","html-button-response","132","639856","0.0-17.0-2.2","31141","","<p>Which tone was played second after the cadence?</p><p>Please respond as quickly and as accurately as possible!</p>","9","","2","new_stimuli/mp3/melody_^5_^6_v5_v4_v3_buffer.mp3"
"","764","html-button-response","133","640620","0.0-17.0-3.2","31141","","<p>Which tone was played third after the cadence?</p><p>Please respond as quickly and as accurately as possible!</p>","7","","3","new_stimuli/mp3/melody_^5_^6_v5_v4_v3_buffer.mp3"
"","641","html-button-response","134","641263","0.0-17.0-4.2","31141","","<p>Which tone was played fourth after the cadence?</p><p>Please respond as quickly and as accurately as possible!</p>","5","","4","new_stimuli/mp3/melody_^5_^6_v5_v4_v3_buffer.mp3"
"","798","html-button-response","135","642061","0.0-17.0-5.2","31141","","<p>Which tone was played fifth after the cadence?</p><p>Please respond as quickly and as accurately as possible!</p>","4","","5","new_stimuli/mp3/melody_^5_^6_v5_v4_v3_buffer.mp3"
"","null","audio-keyboard-response","136","652637","0.0-17.0-0.3","31141","","new_stimuli/mp3/melody_v5_v4_v3_v2_v1_.mp3","","null","",""
"","1112","html-button-response","137","653750","0.0-17.0-1.3","31141","","<p>Which tone was played first after the cadence?</p><p>Please respond as quickly and as accurately as possible!</p>","7","","1","new_stimuli/mp3/melody_v5_v4_v3_v2_v1_.mp3"
"","618","html-button-response","138","654368","0.0-17.0-2.3","31141","","<p>Which tone was played second after the cadence?</p><p>Please respond as quickly and as accurately as possible!</p>","5","","2","new_stimuli/mp3/melody_v5_v4_v3_v2_v1_.mp3"
"","495","html-button-response","139","654864","0.0-17.0-3.3","31141","","<p>Which tone was played third after the cadence?</p><p>Please respond as quickly and as accurately as possible!</p>","4","","3","new_stimuli/mp3/melody_v5_v4_v3_v2_v1_.mp3"
"","697","html-button-response","140","655561","0.0-17.0-4.3","31141","","<p>Which tone was played fourth after the cadence?</p><p>Please respond as quickly and as accurately as possible!</p>","2","","4","new_stimuli/mp3/melody_v5_v4_v3_v2_v1_.mp3"
"","539","html-button-response","141","656102","0.0-17.0-5.3","31141","","<p>Which tone was played fifth after the cadence?</p><p>Please respond as quickly and as accurately as possible!</p>","0","","5","new_stimuli/mp3/melody_v5_v4_v3_v2_v1_.mp3"
"","null","audio-keyboard-response","142","667047","0.0-17.0-0.4","31141","","new_stimuli/mp3/melody_v5-_v3_3_^4+_v3_.mp3","","null","",""
"","1867","html-button-response","143","668916","0.0-17.0-1.4","31141","","<p>Which tone was played first after the cadence?</p><p>Please respond as quickly and as accurately as possible!</p>","6","","1","new_stimuli/mp3/melody_v5-_v3_3_^4+_v3_.mp3"
"","752","html-button-response","144","669669","0.0-17.0-2.4","31141","","<p>Which tone was played second after the cadence?</p><p>Please respond as quickly and as accurately as possible!</p>","4","","2","new_stimuli/mp3/melody_v5-_v3_3_^4+_v3_.mp3"
"","482","html-button-response","145","670154","0.0-17.0-3.4","31141","","<p>Which tone was played third after the cadence?</p><p>Please respond as quickly and as accurately as possible!</p>","4","","3","new_stimuli/mp3/melody_v5-_v3_3_^4+_v3_.mp3"
"","765","html-button-response","146","670918","0.0-17.0-4.4","31141","","<p>Which tone was played fourth after the cadence?</p><p>Please respond as quickly and as accurately as possible!</p>","6","","4","new_stimuli/mp3/melody_v5-_v3_3_^4+_v3_.mp3"
"","890","html-button-response","147","671809","0.0-17.0-5.4","31141","","<p>Which tone was played fifth after the cadence?</p><p>Please respond as quickly and as accurately as possible!</p>","4","","5","new_stimuli/mp3/melody_v5-_v3_3_^4+_v3_.mp3"
"","null","audio-keyboard-response","148","682387","0.0-17.0-0.5","31141","","new_stimuli/mp3/melody_v2_2_^3_^4_v2_.mp3","","null","",""
"","1029","html-button-response","149","683418","0.0-17.0-1.5","31141","","<p>Which tone was played first after the cadence?</p><p>Please respond as quickly and as accurately as possible!</p>","2","","1","new_stimuli/mp3/melody_v2_2_^3_^4_v2_.mp3"
"","606","html-button-response","150","684025","0.0-17.0-2.5","31141","","<p>Which tone was played second after the cadence?</p><p>Please respond as quickly and as accurately as possible!</p>","2","","2","new_stimuli/mp3/melody_v2_2_^3_^4_v2_.mp3"
"","1236","html-button-response","151","685262","0.0-17.0-3.5","31141","","<p>Which tone was played third after the cadence?</p><p>Please respond as quickly and as accurately as possible!</p>","4","","3","new_stimuli/mp3/melody_v2_2_^3_^4_v2_.mp3"
"","584","html-button-response","152","685848","0.0-17.0-4.5","31141","","<p>Which tone was played fourth after the cadence?</p><p>Please respond as quickly and as accurately as possible!</p>","5","","4","new_stimuli/mp3/melody_v2_2_^3_^4_v2_.mp3"
"","753","html-button-response","153","686601","0.0-17.0-5.5","31141","","<p>Which tone was played fifth after the cadence?</p><p>Please respond as quickly and as accurately as possible!</p>","2","","5","new_stimuli/mp3/melody_v2_2_^3_^4_v2_.mp3"
"","null","audio-keyboard-response","154","697227","0.0-17.0-0.6","31141","","new_stimuli/mp3/melody_v5_^6+_^7_^1_5_.mp3","","null","",""
"","1164","html-button-response","155","698392","0.0-17.0-1.6","31141","","<p>Which tone was played first after the cadence?</p><p>Please respond as quickly and as accurately as possible!</p>","7","","1","new_stimuli/mp3/melody_v5_^6+_^7_^1_5_.mp3"
"","629","html-button-response","156","699022","0.0-17.0-2.6","31141","","<p>Which tone was played second after the cadence?</p><p>Please respond as quickly and as accurately as possible!</p>","9","","2","new_stimuli/mp3/melody_v5_^6+_^7_^1_5_.mp3"
"","641","html-button-response","157","699664","0.0-17.0-3.6","31141","","<p>Which tone was played third after the cadence?</p><p>Please respond as quickly and as accurately as possible!</p>","11","","3","new_stimuli/mp3/melody_v5_^6+_^7_^1_5_.mp3"
"","550","html-button-response","158","700215","0.0-17.0-4.6","31141","","<p>Which tone was played fourth after the cadence?</p><p>Please respond as quickly and as accurately as possible!</p>","12","","4","new_stimuli/mp3/melody_v5_^6+_^7_^1_5_.mp3"
"","966","html-button-response","159","701183","0.0-17.0-5.6","31141","","<p>Which tone was played fifth after the cadence?</p><p>Please respond as quickly and as accurately as possible!</p>","7","","5","new_stimuli/mp3/melody_v5_^6+_^7_^1_5_.mp3"
"","null","audio-keyboard-response","160","711817","0.0-17.0-0.7","31141","","new_stimuli/mp3/melody_^6_v4_v3_^4_^5_.mp3","","null","",""
"","1908","html-button-response","161","713727","0.0-17.0-1.7","31141","","<p>Which tone was played first after the cadence?</p><p>Please respond as quickly and as accurately as possible!</p>","9","","1","new_stimuli/mp3/melody_^6_v4_v3_^4_^5_.mp3"
"","933","html-button-response","162","714661","0.0-17.0-2.7","31141","","<p>Which tone was played second after the cadence?</p><p>Please respond as quickly and as accurately as possible!</p>","5","","2","new_stimuli/mp3/melody_^6_v4_v3_^4_^5_.mp3"
"","674","html-button-response","163","715336","0.0-17.0-3.7","31141","","<p>Which tone was played third after the cadence?</p><p>Please respond as quickly and as accurately as possible!</p>","4","","3","new_stimuli/mp3/melody_^6_v4_v3_^4_^5_.mp3"
"","674","html-button-response","164","716010","0.0-17.0-4.7","31141","","<p>Which tone was played fourth after the cadence?</p><p>Please respond as quickly and as accurately as possible!</p>","5","","4","new_stimuli/mp3/melody_^6_v4_v3_^4_^5_.mp3"
"","696","html-button-response","165","716708","0.0-17.0-5.7","31141","","<p>Which tone was played fifth after the cadence?</p><p>Please respond as quickly and as accurately as possible!</p>","7","","5","new_stimuli/mp3/melody_^6_v4_v3_^4_^5_.mp3"
"[{""page_index"":0,""viewing_time"":8809},{""page_index"":1,""viewing_time"":1598},{""page_index"":2,""viewing_time"":1294}]","11701","instructions","166","728409","0.0-18.0","31141","","","","","",""
"","null","audio-keyboard-response","167","739987","0.0-19.0-0.0","31141","","new_stimuli/mp3/melody_^5_^6_v5_v4_v3_v2_v1_buffer.mp3","","null","",""
"","1111","html-button-response","168","741100","0.0-19.0-1.0","31141","","<p>Which tone was played first after the cadence?</p><p>Please respond as quickly and as accurately as possible!</p>","7","","1","new_stimuli/mp3/melody_^5_^6_v5_v4_v3_v2_v1_buffer.mp3"
"","608","html-button-response","169","741708","0.0-19.0-2.0","31141","","<p>Which tone was played second after the cadence?</p><p>Please respond as quickly and as accurately as possible!</p>","9","","2","new_stimuli/mp3/melody_^5_^6_v5_v4_v3_v2_v1_buffer.mp3"
"","695","html-button-response","170","742405","0.0-19.0-3.0","31141","","<p>Which tone was played third after the cadence?</p><p>Please respond as quickly and as accurately as possible!</p>","7","","3","new_stimuli/mp3/melody_^5_^6_v5_v4_v3_v2_v1_buffer.mp3"
"","573","html-button-response","171","742978","0.0-19.0-4.0","31141","","<p>Which tone was played fourth after the cadence?</p><p>Please respond as quickly and as accurately as possible!</p>","5","","4","new_stimuli/mp3/melody_^5_^6_v5_v4_v3_v2_v1_buffer.mp3"
"","505","html-button-response","172","743485","0.0-19.0-5.0","31141","","<p>Which tone was played fifth after the cadence?</p><p>Please respond as quickly and as accurately as possible!</p>","4","","5","new_stimuli/mp3/melody_^5_^6_v5_v4_v3_v2_v1_buffer.mp3"
"","629","html-button-response","173","744114","0.0-19.0-6.0","31141","","<p>Which tone was played sixth after the cadence?</p><p>Please respond as quickly and as accurately as possible!</p>","2","","6","new_stimuli/mp3/melody_^5_^6_v5_v4_v3_v2_v1_buffer.mp3"
"","483","html-button-response","174","744599","0.0-19.0-7.0","31141","","<p>Which tone was played seventh after the cadence?</p><p>Please respond as quickly and as accurately as possible!</p>","0","","7","new_stimuli/mp3/melody_^5_^6_v5_v4_v3_v2_v1_buffer.mp3"
"","null","audio-keyboard-response","175","756567","0.0-19.0-0.1","31141","","new_stimuli/mp3/melody_1_^3_v1_^5_v3_v2_^3_.mp3","","null","",""
"","1486","html-button-response","176","758055","0.0-19.0-1.1","31141","","<p>Which tone was played first after the cadence?</p><p>Please respond as quickly and as accurately as possible!</p>","0","","1","new_stimuli/mp3/melody_1_^3_v1_^5_v3_v2_^3_.mp3"
"","1022","html-button-response","177","759079","0.0-19.0-2.1","31141","","<p>Which tone was played second after the cadence?</p><p>Please respond as quickly and as accurately as possible!</p>","2","","2","new_stimuli/mp3/melody_1_^3_v1_^5_v3_v2_^3_.mp3"
"","664","html-button-response","178","759743","0.0-19.0-3.1","31141","","<p>Which tone was played third after the cadence?</p><p>Please respond as quickly and as accurately as possible!</p>","0","","3","new_stimuli/mp3/melody_1_^3_v1_^5_v3_v2_^3_.mp3"
"","956","html-button-response","179","760699","0.0-19.0-4.1","31141","","<p>Which tone was played fourth after the cadence?</p><p>Please respond as quickly and as accurately as possible!</p>","7","","4","new_stimuli/mp3/melody_1_^3_v1_^5_v3_v2_^3_.mp3"
"","967","html-button-response","180","761666","0.0-19.0-5.1","31141","","<p>Which tone was played fifth after the cadence?</p><p>Please respond as quickly and as accurately as possible!</p>","4","","5","new_stimuli/mp3/melody_1_^3_v1_^5_v3_v2_^3_.mp3"
"","687","html-button-response","181","762352","0.0-19.0-6.1","31141","","<p>Which tone was played sixth after the cadence?</p><p>Please respond as quickly and as accurately as possible!</p>","2","","6","new_stimuli/mp3/melody_1_^3_v1_^5_v3_v2_^3_.mp3"
"","718","html-button-response","182","763072","0.0-19.0-7.1","31141","","<p>Which tone was played seventh after the cadence?</p><p>Please respond as quickly and as accurately as possible!</p>","4","","7","new_stimuli/mp3/melody_1_^3_v1_^5_v3_v2_^3_.mp3"
"","null","audio-keyboard-response","183","774778","0.0-19.0-0.2","31141","","new_stimuli/mp3/melody_^1_v7_v6_v5_v4_v3_v2_buffer.mp3","","null","",""
"","918","html-button-response","184","775696","0.0-19.0-1.2","31141","","<p>Which tone was played first after the cadence?</p><p>Please respond as quickly and as accurately as possible!</p>","12","","1","new_stimuli/mp3/melody_^1_v7_v6_v5_v4_v3_v2_buffer.mp3"
"","449","html-button-response","185","776146","0.0-19.0-2.2","31141","","<p>Which tone was played second after the cadence?</p><p>Please respond as quickly and as accurately as possible!</p>","11","","2","new_stimuli/mp3/melody_^1_v7_v6_v5_v4_v3_v2_buffer.mp3"
"","470","html-button-response","186","776618","0.0-19.0-3.2","31141","","<p>Which tone was played third after the cadence?</p><p>Please respond as quickly and as accurately as possible!</p>","9","","3","new_stimuli/mp3/melody_^1_v7_v6_v5_v4_v3_v2_buffer.mp3"
"","561","html-button-response","187","777181","0.0-19.0-4.2","31141","","<p>Which tone was played fourth after the cadence?</p><p>Please respond as quickly and as accurately as possible!</p>","7","","4","new_stimuli/mp3/melody_^1_v7_v6_v5_v4_v3_v2_buffer.mp3"
"","484","html-button-response","188","777665","0.0-19.0-5.2","31141","","<p>Which tone was played fifth after the cadence?</p><p>Please respond as quickly and as accurately as possible!</p>","5","","5","new_stimuli/mp3/melody_^1_v7_v6_v5_v4_v3_v2_buffer.mp3"
"","1057","html-button-response","189","778722","0.0-19.0-6.2","31141","","<p>Which tone was played sixth after the cadence?</p><p>Please respond as quickly and as accurately as possible!</p>","4","","6","new_stimuli/mp3/melody_^1_v7_v6_v5_v4_v3_v2_buffer.mp3"
"","607","html-button-response","190","779329","0.0-19.0-7.2","31141","","<p>Which tone was played seventh after the cadence?</p><p>Please respond as quickly and as accurately as possible!</p>","2","","7","new_stimuli/mp3/melody_^1_v7_v6_v5_v4_v3_v2_buffer.mp3"
"","null","audio-keyboard-response","191","791008","0.0-19.0-0.3","31141","","new_stimuli/mp3/melody_^4_v6-_v5-_^6-_^4_v2-_2-_.mp3","","null","",""
"","42965","html-button-response","192","833975","0.0-19.0-1.3","31141","","<p>Which tone was played first after the cadence?</p><p>Please respond as quickly and as accurately as possible!</p>","5","","1","new_stimuli/mp3/melody_^4_v6-_v5-_^6-_^4_v2-_2-_.mp3"
"","898","html-button-response","193","834874","0.0-19.0-2.3","31141","","<p>Which tone was played second after the cadence?</p><p>Please respond as quickly and as accurately as possible!</p>","8","","2","new_stimuli/mp3/melody_^4_v6-_v5-_^6-_^4_v2-_2-_.mp3"
"","833","html-button-response","194","835707","0.0-19.0-3.3","31141","","<p>Which tone was played third after the cadence?</p><p>Please respond as quickly and as accurately as possible!</p>","6","","3","new_stimuli/mp3/melody_^4_v6-_v5-_^6-_^4_v2-_2-_.mp3"
"","831","html-button-response","195","836539","0.0-19.0-4.3","31141","","<p>Which tone was played fourth after the cadence?</p><p>Please respond as quickly and as accurately as possible!</p>","8","","4","new_stimuli/mp3/melody_^4_v6-_v5-_^6-_^4_v2-_2-_.mp3"
"","990","html-button-response","196","837530","0.0-19.0-5.3","31141","","<p>Which tone was played fifth after the cadence?</p><p>Please respond as quickly and as accurately as possible!</p>","5","","5","new_stimuli/mp3/melody_^4_v6-_v5-_^6-_^4_v2-_2-_.mp3"
"","652","html-button-response","197","838182","0.0-19.0-6.3","31141","","<p>Which tone was played sixth after the cadence?</p><p>Please respond as quickly and as accurately as possible!</p>","1","","6","new_stimuli/mp3/melody_^4_v6-_v5-_^6-_^4_v2-_2-_.mp3"
"","606","html-button-response","198","838789","0.0-19.0-7.3","31141","","<p>Which tone was played seventh after the cadence?</p><p>Please respond as quickly and as accurately as possible!</p>","1","","7","new_stimuli/mp3/melody_^4_v6-_v5-_^6-_^4_v2-_2-_.mp3"
"","null","audio-keyboard-response","199","850497","0.0-19.0-0.4","31141","","new_stimuli/mp3/melody_^4_^5_^6_v5_v4_v3_v2_.mp3","","null","",""
"","1490","html-button-response","200","851988","0.0-19.0-1.4","31141","","<p>Which tone was played first after the cadence?</p><p>Please respond as quickly and as accurately as possible!</p>","5","","1","new_stimuli/mp3/melody_^4_^5_^6_v5_v4_v3_v2_.mp3"
"","1101","html-button-response","201","853089","0.0-19.0-2.4","31141","","<p>Which tone was played second after the cadence?</p><p>Please respond as quickly and as accurately as possible!</p>","7","","2","new_stimuli/mp3/melody_^4_^5_^6_v5_v4_v3_v2_.mp3"
"","606","html-button-response","202","853698","0.0-19.0-3.4","31141","","<p>Which tone was played third after the cadence?</p><p>Please respond as quickly and as accurately as possible!</p>","9","","3","new_stimuli/mp3/melody_^4_^5_^6_v5_v4_v3_v2_.mp3"
"","562","html-button-response","203","854260","0.0-19.0-4.4","31141","","<p>Which tone was played fourth after the cadence?</p><p>Please respond as quickly and as accurately as possible!</p>","7","","4","new_stimuli/mp3/melody_^4_^5_^6_v5_v4_v3_v2_.mp3"
"","628","html-button-response","204","854890","0.0-19.0-5.4","31141","","<p>Which tone was played fifth after the cadence?</p><p>Please respond as quickly and as accurately as possible!</p>","5","","5","new_stimuli/mp3/melody_^4_^5_^6_v5_v4_v3_v2_.mp3"
"","504","html-button-response","205","855396","0.0-19.0-6.4","31141","","<p>Which tone was played sixth after the cadence?</p><p>Please respond as quickly and as accurately as possible!</p>","4","","6","new_stimuli/mp3/melody_^4_^5_^6_v5_v4_v3_v2_.mp3"
"","551","html-button-response","206","855947","0.0-19.0-7.4","31141","","<p>Which tone was played seventh after the cadence?</p><p>Please respond as quickly and as accurately as possible!</p>","2","","7","new_stimuli/mp3/melody_^4_^5_^6_v5_v4_v3_v2_.mp3"
"","null","audio-keyboard-response","207","867657","0.0-19.0-0.5","31141","","new_stimuli/mp3/melody_v1_^2_v1_v7_^1_^3_v2_.mp3","","null","",""
"","1115","html-button-response","208","868773","0.0-19.0-1.5","31141","","<p>Which tone was played first after the cadence?</p><p>Please respond as quickly and as accurately as possible!</p>","0","","1","new_stimuli/mp3/melody_v1_^2_v1_v7_^1_^3_v2_.mp3"
"","662","html-button-response","209","869437","0.0-19.0-2.5","31141","","<p>Which tone was played second after the cadence?</p><p>Please respond as quickly and as accurately as possible!</p>","2","","2","new_stimuli/mp3/melody_v1_^2_v1_v7_^1_^3_v2_.mp3"
"","753","html-button-response","210","870191","0.0-19.0-3.5","31141","","<p>Which tone was played third after the cadence?</p><p>Please respond as quickly and as accurately as possible!</p>","0","","3","new_stimuli/mp3/melody_v1_^2_v1_v7_^1_^3_v2_.mp3"
"","921","html-button-response","211","871113","0.0-19.0-4.5","31141","","<p>Which tone was played fourth after the cadence?</p><p>Please respond as quickly and as accurately as possible!</p>","11","","4","new_stimuli/mp3/melody_v1_^2_v1_v7_^1_^3_v2_.mp3"
"","832","html-button-response","212","871945","0.0-19.0-5.5","31141","","<p>Which tone was played fifth after the cadence?</p><p>Please respond as quickly and as accurately as possible!</p>","12","","5","new_stimuli/mp3/melody_v1_^2_v1_v7_^1_^3_v2_.mp3"
"","1068","html-button-response","213","873015","0.0-19.0-6.5","31141","","<p>Which tone was played sixth after the cadence?</p><p>Please respond as quickly and as accurately as possible!</p>","4","","6","new_stimuli/mp3/melody_v1_^2_v1_v7_^1_^3_v2_.mp3"
"","675","html-button-response","214","873690","0.0-19.0-7.5","31141","","<p>Which tone was played seventh after the cadence?</p><p>Please respond as quickly and as accurately as possible!</p>","2","","7","new_stimuli/mp3/melody_v1_^2_v1_v7_^1_^3_v2_.mp3"
"","null","audio-keyboard-response","215","885337","0.0-19.0-0.6","31141","","new_stimuli/mp3/melody_^6_v5+_v4_^5+_v3_v1_v7-_.mp3","","null","",""
"","27719","html-button-response","216","913057","0.0-19.0-1.6","31141","","<p>Which tone was played first after the cadence?</p><p>Please respond as quickly and as accurately as possible!</p>","9","","1","new_stimuli/mp3/melody_^6_v5+_v4_^5+_v3_v1_v7-_.mp3"
"","1168","html-button-response","217","914227","0.0-19.0-2.6","31141","","<p>Which tone was played second after the cadence?</p><p>Please respond as quickly and as accurately as possible!</p>","6","","2","new_stimuli/mp3/melody_^6_v5+_v4_^5+_v3_v1_v7-_.mp3"
"","448","html-button-response","218","914678","0.0-19.0-3.6","31141","","<p>Which tone was played third after the cadence?</p><p>Please respond as quickly and as accurately as possible!</p>","4","","3","new_stimuli/mp3/melody_^6_v5+_v4_^5+_v3_v1_v7-_.mp3"
"","561","html-button-response","219","915240","0.0-19.0-4.6","31141","","<p>Which tone was played fourth after the cadence?</p><p>Please respond as quickly and as accurately as possible!</p>","6","","4","new_stimuli/mp3/melody_^6_v5+_v4_^5+_v3_v1_v7-_.mp3"
"","2643","html-button-response","220","917883","0.0-19.0-5.6","31141","","<p>Which tone was played fifth after the cadence?</p><p>Please respond as quickly and as accurately as possible!</p>","3","","5","new_stimuli/mp3/melody_^6_v5+_v4_^5+_v3_v1_v7-_.mp3"
"","651","html-button-response","221","918536","0.0-19.0-6.6","31141","","<p>Which tone was played sixth after the cadence?</p><p>Please respond as quickly and as accurately as possible!</p>","0","","6","new_stimuli/mp3/melody_^6_v5+_v4_^5+_v3_v1_v7-_.mp3"
"","315","html-button-response","222","918851","0.0-19.0-7.6","31141","","<p>Which tone was played seventh after the cadence?</p><p>Please respond as quickly and as accurately as possible!</p>","0","","7","new_stimuli/mp3/melody_^6_v5+_v4_^5+_v3_v1_v7-_.mp3"
"[{""page_index"":0,""viewing_time"":1249},{""page_index"":1,""viewing_time"":1428},{""page_index"":2,""viewing_time"":1170}]","3848","instructions","223","922698","0.0-20.0","31141","","","","","",""
"","null","audio-keyboard-response","224","935398","0.0-21.0-0.0","31141","","new_stimuli/mp3/melody_^2_^3_^4_^5_^6_v5_v4_v3_v2_buffer.mp3","","null","",""
"","24472","html-button-response","225","959871","0.0-21.0-1.0","31141","","<p>Which tone was played first after the cadence?</p><p>Please respond as quickly and as accurately as possible!</p>","2","","1","new_stimuli/mp3/melody_^2_^3_^4_^5_^6_v5_v4_v3_v2_buffer.mp3"
"","685","html-button-response","226","960558","0.0-21.0-2.0","31141","","<p>Which tone was played second after the cadence?</p><p>Please respond as quickly and as accurately as possible!</p>","4","","2","new_stimuli/mp3/melody_^2_^3_^4_^5_^6_v5_v4_v3_v2_buffer.mp3"
"","853","html-button-response","227","961413","0.0-21.0-3.0","31141","","<p>Which tone was played third after the cadence?</p><p>Please respond as quickly and as accurately as possible!</p>","5","","3","new_stimuli/mp3/melody_^2_^3_^4_^5_^6_v5_v4_v3_v2_buffer.mp3"
"","630","html-button-response","228","962043","0.0-21.0-4.0","31141","","<p>Which tone was played fourth after the cadence?</p><p>Please respond as quickly and as accurately as possible!</p>","7","","4","new_stimuli/mp3/melody_^2_^3_^4_^5_^6_v5_v4_v3_v2_buffer.mp3"
"","550","html-button-response","229","962594","0.0-21.0-5.0","31141","","<p>Which tone was played fifth after the cadence?</p><p>Please respond as quickly and as accurately as possible!</p>","9","","5","new_stimuli/mp3/melody_^2_^3_^4_^5_^6_v5_v4_v3_v2_buffer.mp3"
"","709","html-button-response","230","963303","0.0-21.0-6.0","31141","","<p>Which tone was played sixth after the cadence?</p><p>Please respond as quickly and as accurately as possible!</p>","7","","6","new_stimuli/mp3/melody_^2_^3_^4_^5_^6_v5_v4_v3_v2_buffer.mp3"
"","832","html-button-response","231","964136","0.0-21.0-7.0","31141","","<p>Which tone was played seventh after the cadence?</p><p>Please respond as quickly and as accurately as possible!</p>","5","","7","new_stimuli/mp3/melody_^2_^3_^4_^5_^6_v5_v4_v3_v2_buffer.mp3"
"","561","html-button-response","232","964697","0.0-21.0-8.0","31141","","<p>Which tone was played eight after the cadence?</p><p>Please respond as quickly and as accurately as possible!</p>","4","","8","new_stimuli/mp3/melody_^2_^3_^4_^5_^6_v5_v4_v3_v2_buffer.mp3"
"","607","html-button-response","233","965305","0.0-21.0-9.0","31141","","<p>Which tone was played nineth after the cadence?</p><p>Please respond as quickly and as accurately as possible!</p>","2","","9","new_stimuli/mp3/melody_^2_^3_^4_^5_^6_v5_v4_v3_v2_buffer.mp3"
"","null","audio-keyboard-response","234","977867","0.0-21.0-0.1","31141","","new_stimuli/mp3/melody_^3_^4_^5 _^6_v5_v4_v3_v2_v1_.mp3","","null","",""
"","4775","html-button-response","235","982642","0.0-21.0-1.1","31141","","<p>Which tone was played first after the cadence?</p><p>Please respond as quickly and as accurately as possible!</p>","4","","1","new_stimuli/mp3/melody_^3_^4_^5 _^6_v5_v4_v3_v2_v1_.mp3"
"","527","html-button-response","236","983172","0.0-21.0-2.1","31141","","<p>Which tone was played second after the cadence?</p><p>Please respond as quickly and as accurately as possible!</p>","5","","2","new_stimuli/mp3/melody_^3_^4_^5 _^6_v5_v4_v3_v2_v1_.mp3"
"","595","html-button-response","237","983768","0.0-21.0-3.1","31141","","<p>Which tone was played third after the cadence?</p><p>Please respond as quickly and as accurately as possible!</p>","7","","3","new_stimuli/mp3/melody_^3_^4_^5 _^6_v5_v4_v3_v2_v1_.mp3"
"","516","html-button-response","238","984285","0.0-21.0-4.1","31141","","<p>Which tone was played fourth after the cadence?</p><p>Please respond as quickly and as accurately as possible!</p>","9","","4","new_stimuli/mp3/melody_^3_^4_^5 _^6_v5_v4_v3_v2_v1_.mp3"
"","416","html-button-response","239","984701","0.0-21.0-5.1","31141","","<p>Which tone was played fifth after the cadence?</p><p>Please respond as quickly and as accurately as possible!</p>","7","","5","new_stimuli/mp3/melody_^3_^4_^5 _^6_v5_v4_v3_v2_v1_.mp3"
"","505","html-button-response","240","985207","0.0-21.0-6.1","31141","","<p>Which tone was played sixth after the cadence?</p><p>Please respond as quickly and as accurately as possible!</p>","5","","6","new_stimuli/mp3/melody_^3_^4_^5 _^6_v5_v4_v3_v2_v1_.mp3"
"","460","html-button-response","241","985668","0.0-21.0-7.1","31141","","<p>Which tone was played seventh after the cadence?</p><p>Please respond as quickly and as accurately as possible!</p>","4","","7","new_stimuli/mp3/melody_^3_^4_^5 _^6_v5_v4_v3_v2_v1_.mp3"
"","416","html-button-response","242","986085","0.0-21.0-8.1","31141","","<p>Which tone was played eight after the cadence?</p><p>Please respond as quickly and as accurately as possible!</p>","2","","8","new_stimuli/mp3/melody_^3_^4_^5 _^6_v5_v4_v3_v2_v1_.mp3"
"","461","html-button-response","243","986547","0.0-21.0-9.1","31141","","<p>Which tone was played nineth after the cadence?</p><p>Please respond as quickly and as accurately as possible!</p>","0","","9","new_stimuli/mp3/melody_^3_^4_^5 _^6_v5_v4_v3_v2_v1_.mp3"
"","null","audio-keyboard-response","244","999197","0.0-21.0-0.2","31141","","new_stimuli/mp3/melody_v7_v6_v5_^6_v5_v4_^5_^6_v5_.mp3","","null","",""
"","1669","html-button-response","245","1000868","0.0-21.0-1.2","31141","","<p>Which tone was played first after the cadence?</p><p>Please respond as quickly and as accurately as possible!</p>","11","","1","new_stimuli/mp3/melody_v7_v6_v5_^6_v5_v4_^5_^6_v5_.mp3"
"","562","html-button-response","246","1001431","0.0-21.0-2.2","31141","","<p>Which tone was played second after the cadence?</p><p>Please respond as quickly and as accurately as possible!</p>","9","","2","new_stimuli/mp3/melody_v7_v6_v5_^6_v5_v4_^5_^6_v5_.mp3"
"","574","html-button-response","247","1002005","0.0-21.0-3.2","31141","","<p>Which tone was played third after the cadence?</p><p>Please respond as quickly and as accurately as possible!</p>","7","","3","new_stimuli/mp3/melody_v7_v6_v5_^6_v5_v4_^5_^6_v5_.mp3"
"","550","html-button-response","248","1002556","0.0-21.0-4.2","31141","","<p>Which tone was played fourth after the cadence?</p><p>Please respond as quickly and as accurately as possible!</p>","5","","4","new_stimuli/mp3/melody_v7_v6_v5_^6_v5_v4_^5_^6_v5_.mp3"
"","472","html-button-response","249","1003028","0.0-21.0-5.2","31141","","<p>Which tone was played fifth after the cadence?</p><p>Please respond as quickly and as accurately as possible!</p>","7","","5","new_stimuli/mp3/melody_v7_v6_v5_^6_v5_v4_^5_^6_v5_.mp3"
"","539","html-button-response","250","1003568","0.0-21.0-6.2","31141","","<p>Which tone was played sixth after the cadence?</p><p>Please respond as quickly and as accurately as possible!</p>","5","","6","new_stimuli/mp3/melody_v7_v6_v5_^6_v5_v4_^5_^6_v5_.mp3"
"","472","html-button-response","251","1004042","0.0-21.0-7.2","31141","","<p>Which tone was played seventh after the cadence?</p><p>Please respond as quickly and as accurately as possible!</p>","7","","7","new_stimuli/mp3/melody_v7_v6_v5_^6_v5_v4_^5_^6_v5_.mp3"
"","515","html-button-response","252","1004557","0.0-21.0-8.2","31141","","<p>Which tone was played eight after the cadence?</p><p>Please respond as quickly and as accurately as possible!</p>","9","","8","new_stimuli/mp3/melody_v7_v6_v5_^6_v5_v4_^5_^6_v5_.mp3"
"","428","html-button-response","253","1004987","0.0-21.0-9.2","31141","","<p>Which tone was played nineth after the cadence?</p><p>Please respond as quickly and as accurately as possible!</p>","7","","9","new_stimuli/mp3/melody_v7_v6_v5_^6_v5_v4_^5_^6_v5_.mp3"
"","null","audio-keyboard-response","254","1017948","0.0-21.0-0.3","31141","","new_stimuli/mp3/melody_^5_^6_v5_v4_v3_v2_v1_^2_^3_buffer.mp3","","null","",""
"","1191","html-button-response","255","1019139","0.0-21.0-1.3","31141","","<p>Which tone was played first after the cadence?</p><p>Please respond as quickly and as accurately as possible!</p>","7","","1","new_stimuli/mp3/melody_^5_^6_v5_v4_v3_v2_v1_^2_^3_buffer.mp3"
"","595","html-button-response","256","1019735","0.0-21.0-2.3","31141","","<p>Which tone was played second after the cadence?</p><p>Please respond as quickly and as accurately as possible!</p>","9","","2","new_stimuli/mp3/melody_^5_^6_v5_v4_v3_v2_v1_^2_^3_buffer.mp3"
"","617","html-button-response","257","1020355","0.0-21.0-3.3","31141","","<p>Which tone was played third after the cadence?</p><p>Please respond as quickly and as accurately as possible!</p>","7","","3","new_stimuli/mp3/melody_^5_^6_v5_v4_v3_v2_v1_^2_^3_buffer.mp3"
"","461","html-button-response","258","1020816","0.0-21.0-4.3","31141","","<p>Which tone was played fourth after the cadence?</p><p>Please respond as quickly and as accurately as possible!</p>","5","","4","new_stimuli/mp3/melody_^5_^6_v5_v4_v3_v2_v1_^2_^3_buffer.mp3"
"","742","html-button-response","259","1021558","0.0-21.0-5.3","31141","","<p>Which tone was played fifth after the cadence?</p><p>Please respond as quickly and as accurately as possible!</p>","4","","5","new_stimuli/mp3/melody_^5_^6_v5_v4_v3_v2_v1_^2_^3_buffer.mp3"
"","460","html-button-response","260","1022020","0.0-21.0-6.3","31141","","<p>Which tone was played sixth after the cadence?</p><p>Please respond as quickly and as accurately as possible!</p>","2","","6","new_stimuli/mp3/melody_^5_^6_v5_v4_v3_v2_v1_^2_^3_buffer.mp3"
"","551","html-button-response","261","1022571","0.0-21.0-7.3","31141","","<p>Which tone was played seventh after the cadence?</p><p>Please respond as quickly and as accurately as possible!</p>","0","","7","new_stimuli/mp3/melody_^5_^6_v5_v4_v3_v2_v1_^2_^3_buffer.mp3"
"","539","html-button-response","262","1023111","0.0-21.0-8.3","31141","","<p>Which tone was played eight after the cadence?</p><p>Please respond as quickly and as accurately as possible!</p>","2","","8","new_stimuli/mp3/melody_^5_^6_v5_v4_v3_v2_v1_^2_^3_buffer.mp3"
"","528","html-button-response","263","1023639","0.0-21.0-9.3","31141","","<p>Which tone was played nineth after the cadence?</p><p>Please respond as quickly and as accurately as possible!</p>","4","","9","new_stimuli/mp3/melody_^5_^6_v5_v4_v3_v2_v1_^2_^3_buffer.mp3"
"","null","audio-keyboard-response","264","1036277","0.0-21.0-0.4","31141","","new_stimuli/mp3/melody_^3_^4_v2_v7_^1_^2_^3_3_^4_.mp3","","null","",""
"","1536","html-button-response","265","1037815","0.0-21.0-1.4","31141","","<p>Which tone was played first after the cadence?</p><p>Please respond as quickly and as accurately as possible!</p>","4","","1","new_stimuli/mp3/melody_^3_^4_v2_v7_^1_^2_^3_3_^4_.mp3"
"","494","html-button-response","266","1038309","0.0-21.0-2.4","31141","","<p>Which tone was played second after the cadence?</p><p>Please respond as quickly and as accurately as possible!</p>","5","","2","new_stimuli/mp3/melody_^3_^4_v2_v7_^1_^2_^3_3_^4_.mp3"
"","505","html-button-response","267","1038816","0.0-21.0-3.4","31141","","<p>Which tone was played third after the cadence?</p><p>Please respond as quickly and as accurately as possible!</p>","2","","3","new_stimuli/mp3/melody_^3_^4_v2_v7_^1_^2_^3_3_^4_.mp3"
"","787","html-button-response","268","1039604","0.0-21.0-4.4","31141","","<p>Which tone was played fourth after the cadence?</p><p>Please respond as quickly and as accurately as possible!</p>","11","","4","new_stimuli/mp3/melody_^3_^4_v2_v7_^1_^2_^3_3_^4_.mp3"
"","877","html-button-response","269","1040482","0.0-21.0-5.4","31141","","<p>Which tone was played fifth after the cadence?</p><p>Please respond as quickly and as accurately as possible!</p>","0","","5","new_stimuli/mp3/melody_^3_^4_v2_v7_^1_^2_^3_3_^4_.mp3"
"","967","html-button-response","270","1041449","0.0-21.0-6.4","31141","","<p>Which tone was played sixth after the cadence?</p><p>Please respond as quickly and as accurately as possible!</p>","2","","6","new_stimuli/mp3/melody_^3_^4_v2_v7_^1_^2_^3_3_^4_.mp3"
"","461","html-button-response","271","1041911","0.0-21.0-7.4","31141","","<p>Which tone was played seventh after the cadence?</p><p>Please respond as quickly and as accurately as possible!</p>","4","","7","new_stimuli/mp3/melody_^3_^4_v2_v7_^1_^2_^3_3_^4_.mp3"
"","506","html-button-response","272","1042417","0.0-21.0-8.4","31141","","<p>Which tone was played eight after the cadence?</p><p>Please respond as quickly and as accurately as possible!</p>","5","","8","new_stimuli/mp3/melody_^3_^4_v2_v7_^1_^2_^3_3_^4_.mp3"
"","1788","html-button-response","273","1044206","0.0-21.0-9.4","31141","","<p>Which tone was played nineth after the cadence?</p><p>Please respond as quickly and as accurately as possible!</p>","4","","9","new_stimuli/mp3/melody_^3_^4_v2_v7_^1_^2_^3_3_^4_.mp3"
"","null","audio-keyboard-response","274","1056837","0.0-21.0-0.5","31141","","new_stimuli/mp3/melody_v5_v4_v6+_^7_^3+_v3_v2_v5_^4_.mp3","","null","",""
"","6830","html-button-response","275","1063670","0.0-21.0-1.5","31141","","<p>Which tone was played first after the cadence?</p><p>Please respond as quickly and as accurately as possible!</p>","7","","1","new_stimuli/mp3/melody_v5_v4_v6+_^7_^3+_v3_v2_v5_^4_.mp3"
"","483","html-button-response","276","1064153","0.0-21.0-2.5","31141","","<p>Which tone was played second after the cadence?</p><p>Please respond as quickly and as accurately as possible!</p>","6","","2","new_stimuli/mp3/melody_v5_v4_v6+_^7_^3+_v3_v2_v5_^4_.mp3"
"","595","html-button-response","277","1064749","0.0-21.0-3.5","31141","","<p>Which tone was played third after the cadence?</p><p>Please respond as quickly and as accurately as possible!</p>","5","","3","new_stimuli/mp3/melody_v5_v4_v6+_^7_^3+_v3_v2_v5_^4_.mp3"
"","809","html-button-response","278","1065559","0.0-21.0-4.5","31141","","<p>Which tone was played fourth after the cadence?</p><p>Please respond as quickly and as accurately as possible!</p>","7","","4","new_stimuli/mp3/melody_v5_v4_v6+_^7_^3+_v3_v2_v5_^4_.mp3"
"","1687","html-button-response","279","1067247","0.0-21.0-5.5","31141","","<p>Which tone was played fifth after the cadence?</p><p>Please respond as quickly and as accurately as possible!</p>","3","","5","new_stimuli/mp3/melody_v5_v4_v6+_^7_^3+_v3_v2_v5_^4_.mp3"
"","2327","html-button-response","280","1069576","0.0-21.0-6.5","31141","","<p>Which tone was played sixth after the cadence?</p><p>Please respond as quickly and as accurately as possible!</p>","3","","6","new_stimuli/mp3/melody_v5_v4_v6+_^7_^3+_v3_v2_v5_^4_.mp3"
"","606","html-button-response","281","1070184","0.0-21.0-7.5","31141","","<p>Which tone was played seventh after the cadence?</p><p>Please respond as quickly and as accurately as possible!</p>","2","","7","new_stimuli/mp3/melody_v5_v4_v6+_^7_^3+_v3_v2_v5_^4_.mp3"
"","2237","html-button-response","282","1072422","0.0-21.0-8.5","31141","","<p>Which tone was played eight after the cadence?</p><p>Please respond as quickly and as accurately as possible!</p>","4","","8","new_stimuli/mp3/melody_v5_v4_v6+_^7_^3+_v3_v2_v5_^4_.mp3"
"","2395","html-button-response","283","1074819","0.0-21.0-9.5","31141","","<p>Which tone was played nineth after the cadence?</p><p>Please respond as quickly and as accurately as possible!</p>","2","","9","new_stimuli/mp3/melody_v5_v4_v6+_^7_^3+_v3_v2_v5_^4_.mp3"
"","null","audio-keyboard-response","284","1087747","0.0-21.0-0.6","31141","","new_stimuli/mp3/melody_^2_^4_v3_v2_v1_v3_v2+_^3_^5+_.mp3","","null","",""
"","4317","html-button-response","285","1092066","0.0-21.0-1.6","31141","","<p>Which tone was played first after the cadence?</p><p>Please respond as quickly and as accurately as possible!</p>","4","","1","new_stimuli/mp3/melody_^2_^4_v3_v2_v1_v3_v2+_^3_^5+_.mp3"
"","844","html-button-response","286","1092909","0.0-21.0-2.6","31141","","<p>Which tone was played second after the cadence?</p><p>Please respond as quickly and as accurately as possible!</p>","7","","2","new_stimuli/mp3/melody_^2_^4_v3_v2_v1_v3_v2+_^3_^5+_.mp3"
"","483","html-button-response","287","1093393","0.0-21.0-3.6","31141","","<p>Which tone was played third after the cadence?</p><p>Please respond as quickly and as accurately as possible!</p>","5","","3","new_stimuli/mp3/melody_^2_^4_v3_v2_v1_v3_v2+_^3_^5+_.mp3"
"","516","html-button-response","288","1093910","0.0-21.0-4.6","31141","","<p>Which tone was played fourth after the cadence?</p><p>Please respond as quickly and as accurately as possible!</p>","4","","4","new_stimuli/mp3/melody_^2_^4_v3_v2_v1_v3_v2+_^3_^5+_.mp3"
"","529","html-button-response","289","1094440","0.0-21.0-5.6","31141","","<p>Which tone was played fifth after the cadence?</p><p>Please respond as quickly and as accurately as possible!</p>","3","","5","new_stimuli/mp3/melody_^2_^4_v3_v2_v1_v3_v2+_^3_^5+_.mp3"
"","1147","html-button-response","290","1095587","0.0-21.0-6.6","31141","","<p>Which tone was played sixth after the cadence?</p><p>Please respond as quickly and as accurately as possible!</p>","4","","6","new_stimuli/mp3/melody_^2_^4_v3_v2_v1_v3_v2+_^3_^5+_.mp3"
"","28678","html-button-response","291","1124265","0.0-21.0-7.6","31141","","<p>Which tone was played seventh after the cadence?</p><p>Please respond as quickly and as accurately as possible!</p>","1","","7","new_stimuli/mp3/melody_^2_^4_v3_v2_v1_v3_v2+_^3_^5+_.mp3"
"","4218","html-button-response","292","1128484","0.0-21.0-8.6","31141","","<p>Which tone was played eight after the cadence?</p><p>Please respond as quickly and as accurately as possible!</p>","6","","8","new_stimuli/mp3/melody_^2_^4_v3_v2_v1_v3_v2+_^3_^5+_.mp3"
"","189","html-button-response","293","1128675","0.0-21.0-9.6","31141","","<p>Which tone was played nineth after the cadence?</p><p>Please respond as quickly and as accurately as possible!</p>","6","","9","new_stimuli/mp3/melody_^2_^4_v3_v2_v1_v3_v2+_^3_^5+_.mp3"
"","26102","survey-text","294","1154779","0.0-22.0","31141","{""Q0"":""short term musical memory, chunking, remembering the highest and lowest pitches""}","","","","",""
"","44313","survey-text","295","1199094","0.0-23.0","31141","{""Q0"":""because I wasn't sure when there would be chromaticism and when there wouldn't be, once chromaticism came in I was kind of thrown off. I think if I had known in advance whether or not I had to deal with chromaticism, I could have been more accurate.""}","","","","",""
"","4309","survey-text","296","1203403","0.0-24.0","31141","{""Q0"":""no""}","","","","",""
"","23602","survey-text","297","1227008","0.0-25.0","31141","{""Q0"":""auxiliary speakers (they're decent ones)""}","","","","",""
"","3703","survey-text","298","1230709","0.0-26.0","31141","{""Q0"":""female""}","","","","",""
"","2091","survey-text","299","1232803","0.0-27.0","31141","{""Q0"":""yes""}","","","","",""
"[{""page_index"":0,""viewing_time"":4958}]","4958","instructions","300","1237762","0.0-28.0","31141","","","","","",""
