"view_history","rt","trial_type","trial_index","time_elapsed","internal_node_id","subject","responses","stimulus","button_pressed","key_press","response_sequence","melody"
"[{""page_index"":0,""viewing_time"":5313},{""page_index"":1,""viewing_time"":21259},{""page_index"":2,""viewing_time"":3680}]","30253","instructions","0","30259","0.0-0.0","35697","","","","","",""
"","4821","survey-text","1","35082","0.0-1.0","35697","{""Q0"":""28""}","","","","",""
"","22902","survey-text","2","57987","0.0-2.0","35697","{""Q0"":""Master Student""}","","","","",""
"","119641","survey-text","3","177631","0.0-3.0","35697","{""Q0"":""Fixed-Do""}","","","","",""
"","4856","survey-text","4","182490","0.0-4.0","35697","{""Q0"":""No""}","","","","",""
"","38333","survey-text","5","220826","0.0-5.0","35697","{""Q0"":""30""}","","","","",""
"","8549","survey-text","6","229379","0.0-6.0","35697","{""Q0"":""0""}","","","","",""
"[{""page_index"":0,""viewing_time"":3363},{""page_index"":1,""viewing_time"":22023},{""page_index"":2,""viewing_time"":2654}]","28040","instructions","7","257419","0.0-7.0","35697","","","","","",""
"","12966","audio-button-response","8","270389","0.0-8.0","35697","","stimuli/long/c-do.mp3","0","","",""
"","13297","audio-button-response","9","283689","0.0-9.0","35697","","stimuli/long/a-le.mp3","8","","",""
"[{""page_index"":0,""viewing_time"":2937},{""page_index"":1,""viewing_time"":29181}]","32118","instructions","10","315808","0.0-10.0","35697","","","","","",""
"","null","audio-button-response","11","335812","0.0-11.0-0.0","35697","","stimuli/long/c-ti.mp3","null","","",""
"","11647","audio-button-response","12","347460","0.0-11.0-0.1","35697","","stimuli/long/c-le.mp3","5","","",""
"","9257","audio-button-response","13","356719","0.0-11.0-0.2","35697","","stimuli/long/a-la.mp3","8","","",""
"","8516","audio-button-response","14","365238","0.0-11.0-0.3","35697","","stimuli/long/c-do8.mp3","12","","",""
"","10059","audio-button-response","15","375300","0.0-11.0-0.4","35697","","stimuli/long/c-sol.mp3","7","","",""
"","9629","audio-button-response","16","384933","0.0-11.0-0.5","35697","","stimuli/long/e-fi.mp3","6","","",""
"","8198","audio-button-response","17","393133","0.0-11.0-0.6","35697","","stimuli/long/a-ra.mp3","11","","",""
"","8608","audio-button-response","18","401741","0.0-11.0-0.7","35697","","stimuli/long/a-le.mp3","9","","",""
"","7770","audio-button-response","19","409513","0.0-11.0-0.8","35697","","stimuli/long/e-do.mp3","0","","",""
"","8642","audio-button-response","20","418156","0.0-11.0-0.9","35697","","stimuli/long/e-la.mp3","9","","",""
"","8466","audio-button-response","21","426625","0.0-11.0-0.10","35697","","stimuli/long/a-ti.mp3","11","","",""
"","7889","audio-button-response","22","434517","0.0-11.0-0.11","35697","","stimuli/long/a-do8.mp3","12","","",""
"","9142","audio-button-response","23","443661","0.0-11.0-0.12","35697","","stimuli/long/a-fi.mp3","5","","",""
"","9144","audio-button-response","24","452806","0.0-11.0-0.13","35697","","stimuli/long/e-ra.mp3","3","","",""
"","9439","audio-button-response","25","462246","0.0-11.0-0.14","35697","","stimuli/long/e-me.mp3","5","","",""
"","9208","audio-button-response","26","471455","0.0-11.0-0.15","35697","","stimuli/long/e-ti.mp3","1","","",""
"","7433","audio-button-response","27","478891","0.0-11.0-0.16","35697","","stimuli/long/a-do.mp3","0","","",""
"","8665","audio-button-response","28","487559","0.0-11.0-0.17","35697","","stimuli/long/a-re.mp3","2","","",""
"","9508","audio-button-response","29","497070","0.0-11.0-0.18","35697","","stimuli/long/e-mi.mp3","7","","",""
"","10115","audio-button-response","30","507186","0.0-11.0-0.19","35697","","stimuli/long/c-mi.mp3","3","","",""
"","8472","audio-button-response","31","515659","0.0-11.0-0.20","35697","","stimuli/long/a-sol.mp3","0","","",""
"","10094","audio-button-response","32","525755","0.0-11.0-0.21","35697","","stimuli/long/a-fa.mp3","10","","",""
"","10144","audio-button-response","33","535901","0.0-11.0-0.22","35697","","stimuli/long/a-te.mp3","8","","",""
"","9645","audio-button-response","34","545549","0.0-11.0-0.23","35697","","stimuli/long/c-re.mp3","1","","",""
"","13158","audio-button-response","35","558708","0.0-11.0-0.24","35697","","stimuli/long/e-te.mp3","5","","",""
"","11727","audio-button-response","36","570437","0.0-11.0-0.25","35697","","stimuli/long/c-fi.mp3","3","","",""
"","11446","audio-button-response","37","581885","0.0-11.0-0.26","35697","","stimuli/long/c-me.mp3","6","","",""
"","12655","audio-button-response","38","594542","0.0-11.0-0.27","35697","","stimuli/long/e-fa.mp3","3","","",""
"","13814","audio-button-response","39","608358","0.0-11.0-0.28","35697","","stimuli/long/e-re.mp3","9","","",""
"","7834","audio-button-response","40","616193","0.0-11.0-0.29","35697","","stimuli/long/e-do8.mp3","12","","",""
"","7667","audio-button-response","41","623862","0.0-11.0-0.30","35697","","stimuli/long/c-do.mp3","0","","",""
"","10276","audio-button-response","42","634139","0.0-11.0-0.31","35697","","stimuli/long/a-me.mp3","3","","",""
"","13615","audio-button-response","43","647757","0.0-11.0-0.32","35697","","stimuli/long/c-fa.mp3","5","","",""
"","14811","audio-button-response","44","662570","0.0-11.0-0.33","35697","","stimuli/long/c-la.mp3","4","","",""
"","9199","audio-button-response","45","671771","0.0-11.0-0.34","35697","","stimuli/long/e-sol.mp3","7","","",""
"","10982","audio-button-response","46","682755","0.0-11.0-0.35","35697","","stimuli/long/c-ra.mp3","1","","",""
"","13985","audio-button-response","47","696741","0.0-11.0-0.36","35697","","stimuli/long/e-le.mp3","9","","",""
"","15605","audio-button-response","48","712347","0.0-11.0-0.37","35697","","stimuli/long/a-mi.mp3","3","","",""
"[{""page_index"":0,""viewing_time"":20133},{""page_index"":1,""viewing_time"":2912}]","23046","instructions","49","735394","0.0-12.0","35697","","","","","",""
"","null","audio-keyboard-response","50","744467","0.0-13.0-0.0","35697","","new_stimuli/mp3/melody_v2_v1_.mp3","","null","",""
"","10849","html-button-response","51","755318","0.0-13.0-1.0","35697","","<p>Which tone was played first after the cadence?</p><p>Please respond as quickly and as accurately as possible!</p>","5","","1","new_stimuli/mp3/melody_v2_v1_.mp3"
"","1724","html-button-response","52","757045","0.0-13.0-2.0","35697","","<p>Which tone was played second after the cadence?</p><p>Please respond as quickly and as accurately as possible!</p>","4","","2","new_stimuli/mp3/melody_v2_v1_.mp3"
"","null","audio-keyboard-response","53","766217","0.0-13.0-0.1","35697","","new_stimuli/mp3/melody_v5_v1+_.mp3","","null","",""
"","7253","html-button-response","54","773471","0.0-13.0-1.1","35697","","<p>Which tone was played first after the cadence?</p><p>Please respond as quickly and as accurately as possible!</p>","9","","1","new_stimuli/mp3/melody_v5_v1+_.mp3"
"","2845","html-button-response","55","776316","0.0-13.0-2.1","35697","","<p>Which tone was played second after the cadence?</p><p>Please respond as quickly and as accurately as possible!</p>","1","","2","new_stimuli/mp3/melody_v5_v1+_.mp3"
"","null","audio-keyboard-response","56","785776","0.0-13.0-0.2","35697","","new_stimuli/mp3/melody_v7_v3_buffer.mp3","","null","",""
"","11586","html-button-response","57","797363","0.0-13.0-1.2","35697","","<p>Which tone was played first after the cadence?</p><p>Please respond as quickly and as accurately as possible!</p>","9","","1","new_stimuli/mp3/melody_v7_v3_buffer.mp3"
"","974","html-button-response","58","798338","0.0-13.0-2.2","35697","","<p>Which tone was played second after the cadence?</p><p>Please respond as quickly and as accurately as possible!</p>","4","","2","new_stimuli/mp3/melody_v7_v3_buffer.mp3"
"","null","audio-keyboard-response","59","807776","0.0-13.0-0.3","35697","","new_stimuli/mp3/melody_v4_v3_buffer.mp3","","null","",""
"","1744","html-button-response","60","809522","0.0-13.0-1.3","35697","","<p>Which tone was played first after the cadence?</p><p>Please respond as quickly and as accurately as possible!</p>","5","","1","new_stimuli/mp3/melody_v4_v3_buffer.mp3"
"","433","html-button-response","61","809956","0.0-13.0-2.3","35697","","<p>Which tone was played second after the cadence?</p><p>Please respond as quickly and as accurately as possible!</p>","4","","2","new_stimuli/mp3/melody_v4_v3_buffer.mp3"
"","null","audio-keyboard-response","62","819416","0.0-13.0-0.4","35697","","new_stimuli/mp3/melody_^3_v4+_buffer.mp3","","null","",""
"","5307","html-button-response","63","824724","0.0-13.0-1.4","35697","","<p>Which tone was played first after the cadence?</p><p>Please respond as quickly and as accurately as possible!</p>","4","","1","new_stimuli/mp3/melody_^3_v4+_buffer.mp3"
"","715","html-button-response","64","825441","0.0-13.0-2.4","35697","","<p>Which tone was played second after the cadence?</p><p>Please respond as quickly and as accurately as possible!</p>","6","","2","new_stimuli/mp3/melody_^3_v4+_buffer.mp3"
"","null","audio-keyboard-response","65","834737","0.0-13.0-0.5","35697","","new_stimuli/mp3/melody_3_^6_buffer.mp3","","null","",""
"","9629","html-button-response","66","844368","0.0-13.0-1.5","35697","","<p>Which tone was played first after the cadence?</p><p>Please respond as quickly and as accurately as possible!</p>","5","","1","new_stimuli/mp3/melody_3_^6_buffer.mp3"
"","3477","html-button-response","67","847845","0.0-13.0-2.5","35697","","<p>Which tone was played second after the cadence?</p><p>Please respond as quickly and as accurately as possible!</p>","9","","2","new_stimuli/mp3/melody_3_^6_buffer.mp3"
"","null","audio-keyboard-response","68","857016","0.0-13.0-0.6","35697","","new_stimuli/mp3/melody_^2_v7-_.mp3","","null","",""
"","14487","html-button-response","69","871504","0.0-13.0-1.6","35697","","<p>Which tone was played first after the cadence?</p><p>Please respond as quickly and as accurately as possible!</p>","11","","1","new_stimuli/mp3/melody_^2_v7-_.mp3"
"","1382","html-button-response","70","872888","0.0-13.0-2.6","35697","","<p>Which tone was played second after the cadence?</p><p>Please respond as quickly and as accurately as possible!</p>","7","","2","new_stimuli/mp3/melody_^2_v7-_.mp3"
"","null","audio-keyboard-response","71","881907","0.0-13.0-0.7","35697","","new_stimuli/mp3/melody_^1_^2+_.mp3","","null","",""
"","13424","html-button-response","72","895331","0.0-13.0-1.7","35697","","<p>Which tone was played first after the cadence?</p><p>Please respond as quickly and as accurately as possible!</p>","0","","1","new_stimuli/mp3/melody_^1_^2+_.mp3"
"","2432","html-button-response","73","897766","0.0-13.0-2.7","35697","","<p>Which tone was played second after the cadence?</p><p>Please respond as quickly and as accurately as possible!</p>","6","","2","new_stimuli/mp3/melody_^1_^2+_.mp3"
"","null","audio-keyboard-response","74","906967","0.0-13.0-0.8","35697","","new_stimuli/mp3/melody_v3_v2_buffer.mp3","","null","",""
"","8848","html-button-response","75","915817","0.0-13.0-1.8","35697","","<p>Which tone was played first after the cadence?</p><p>Please respond as quickly and as accurately as possible!</p>","4","","1","new_stimuli/mp3/melody_v3_v2_buffer.mp3"
"","1754","html-button-response","76","917572","0.0-13.0-2.8","35697","","<p>Which tone was played second after the cadence?</p><p>Please respond as quickly and as accurately as possible!</p>","2","","2","new_stimuli/mp3/melody_v3_v2_buffer.mp3"
"","null","audio-keyboard-response","77","926736","0.0-13.0-0.9","35697","","new_stimuli/mp3/melody_^5_^1+_.mp3","","null","",""
"","11110","html-button-response","78","937848","0.0-13.0-1.9","35697","","<p>Which tone was played first after the cadence?</p><p>Please respond as quickly and as accurately as possible!</p>","6","","1","new_stimuli/mp3/melody_^5_^1+_.mp3"
"","943","html-button-response","79","938794","0.0-13.0-2.9","35697","","<p>Which tone was played second after the cadence?</p><p>Please respond as quickly and as accurately as possible!</p>","12","","2","new_stimuli/mp3/melody_^5_^1+_.mp3"
"[{""page_index"":0,""viewing_time"":43393},{""page_index"":1,""viewing_time"":4832},{""page_index"":2,""viewing_time"":1649}]","49874","instructions","80","988669","0.0-14.0","35697","","","","","",""
"","null","audio-keyboard-response","81","998177","0.0-15.0-0.0","35697","","new_stimuli/mp3/melody_1_v1+_^2_.mp3","","null","",""
"","2318","html-button-response","82","1000496","0.0-15.0-1.0","35697","","<p>Which tone was played first after the cadence?</p><p>Please respond as quickly and as accurately as possible!</p>","0","","1","new_stimuli/mp3/melody_1_v1+_^2_.mp3"
"","911","html-button-response","83","1001408","0.0-15.0-2.0","35697","","<p>Which tone was played second after the cadence?</p><p>Please respond as quickly and as accurately as possible!</p>","1","","2","new_stimuli/mp3/melody_1_v1+_^2_.mp3"
"","1222","html-button-response","84","1002633","0.0-15.0-3.0","35697","","<p>Which tone was played third after the cadence?</p><p>Please respond as quickly and as accurately as possible!</p>","3","","3","new_stimuli/mp3/melody_1_v1+_^2_.mp3"
"","null","audio-keyboard-response","85","1012216","0.0-15.0-0.1","35697","","new_stimuli/mp3/melody_v1_v7-_7-_buffer.mp3","","null","",""
"","4664","html-button-response","86","1016880","0.0-15.0-1.1","35697","","<p>Which tone was played first after the cadence?</p><p>Please respond as quickly and as accurately as possible!</p>","12","","1","new_stimuli/mp3/melody_v1_v7-_7-_buffer.mp3"
"","669","html-button-response","87","1017552","0.0-15.0-2.1","35697","","<p>Which tone was played second after the cadence?</p><p>Please respond as quickly and as accurately as possible!</p>","11","","2","new_stimuli/mp3/melody_v1_v7-_7-_buffer.mp3"
"","643","html-button-response","88","1018197","0.0-15.0-3.1","35697","","<p>Which tone was played third after the cadence?</p><p>Please respond as quickly and as accurately as possible!</p>","11","","3","new_stimuli/mp3/melody_v1_v7-_7-_buffer.mp3"
"","null","audio-keyboard-response","89","1027757","0.0-15.0-0.2","35697","","new_stimuli/mp3/melody_v3_v2_v1_.mp3","","null","",""
"","4294","html-button-response","90","1032051","0.0-15.0-1.2","35697","","<p>Which tone was played first after the cadence?</p><p>Please respond as quickly and as accurately as possible!</p>","4","","1","new_stimuli/mp3/melody_v3_v2_v1_.mp3"
"","682","html-button-response","91","1032735","0.0-15.0-2.2","35697","","<p>Which tone was played second after the cadence?</p><p>Please respond as quickly and as accurately as possible!</p>","2","","2","new_stimuli/mp3/melody_v3_v2_v1_.mp3"
"","713","html-button-response","92","1033450","0.0-15.0-3.2","35697","","<p>Which tone was played third after the cadence?</p><p>Please respond as quickly and as accurately as possible!</p>","0","","3","new_stimuli/mp3/melody_v3_v2_v1_.mp3"
"","null","audio-keyboard-response","93","1043437","0.0-15.0-0.3","35697","","new_stimuli/mp3/melody_v2_v5_^3_buffer.mp3","","null","",""
"","6783","html-button-response","94","1050220","0.0-15.0-1.3","35697","","<p>Which tone was played first after the cadence?</p><p>Please respond as quickly and as accurately as possible!</p>","5","","1","new_stimuli/mp3/melody_v2_v5_^3_buffer.mp3"
"","1347","html-button-response","95","1051568","0.0-15.0-2.3","35697","","<p>Which tone was played second after the cadence?</p><p>Please respond as quickly and as accurately as possible!</p>","9","","2","new_stimuli/mp3/melody_v2_v5_^3_buffer.mp3"
"","2253","html-button-response","96","1053824","0.0-15.0-3.3","35697","","<p>Which tone was played third after the cadence?</p><p>Please respond as quickly and as accurately as possible!</p>","7","","3","new_stimuli/mp3/melody_v2_v5_^3_buffer.mp3"
"","null","audio-keyboard-response","97","1063457","0.0-15.0-0.4","35697","","new_stimuli/mp3/melody_6_^1_v5_.mp3","","null","",""
"","13962","html-button-response","98","1077420","0.0-15.0-1.4","35697","","<p>Which tone was played first after the cadence?</p><p>Please respond as quickly and as accurately as possible!</p>","7","","1","new_stimuli/mp3/melody_6_^1_v5_.mp3"
"","2316","html-button-response","99","1079738","0.0-15.0-2.4","35697","","<p>Which tone was played second after the cadence?</p><p>Please respond as quickly and as accurately as possible!</p>","9","","2","new_stimuli/mp3/melody_6_^1_v5_.mp3"
"","3530","html-button-response","100","1083269","0.0-15.0-3.4","35697","","<p>Which tone was played third after the cadence?</p><p>Please respond as quickly and as accurately as possible!</p>","4","","3","new_stimuli/mp3/melody_6_^1_v5_.mp3"
"","null","audio-keyboard-response","101","1093218","0.0-15.0-0.5","35697","","new_stimuli/mp3/melody_v5_v4_v3_buffer.mp3","","null","",""
"","3818","html-button-response","102","1097037","0.0-15.0-1.5","35697","","<p>Which tone was played first after the cadence?</p><p>Please respond as quickly and as accurately as possible!</p>","7","","1","new_stimuli/mp3/melody_v5_v4_v3_buffer.mp3"
"","1590","html-button-response","103","1098630","0.0-15.0-2.5","35697","","<p>Which tone was played second after the cadence?</p><p>Please respond as quickly and as accurately as possible!</p>","5","","2","new_stimuli/mp3/melody_v5_v4_v3_buffer.mp3"
"","620","html-button-response","104","1099250","0.0-15.0-3.5","35697","","<p>Which tone was played third after the cadence?</p><p>Please respond as quickly and as accurately as possible!</p>","4","","3","new_stimuli/mp3/melody_v5_v4_v3_buffer.mp3"
"","null","audio-keyboard-response","105","1108807","0.0-15.0-0.6","35697","","new_stimuli/mp3/melody_v1_v7-_^7_.mp3","","null","",""
"","21566","html-button-response","106","1130373","0.0-15.0-1.6","35697","","<p>Which tone was played first after the cadence?</p><p>Please respond as quickly and as accurately as possible!</p>","12","","1","new_stimuli/mp3/melody_v1_v7-_^7_.mp3"
"","931","html-button-response","107","1131304","0.0-15.0-2.6","35697","","<p>Which tone was played second after the cadence?</p><p>Please respond as quickly and as accurately as possible!</p>","9","","2","new_stimuli/mp3/melody_v1_v7-_^7_.mp3"
"","628","html-button-response","108","1131934","0.0-15.0-3.6","35697","","<p>Which tone was played third after the cadence?</p><p>Please respond as quickly and as accurately as possible!</p>","10","","3","new_stimuli/mp3/melody_v1_v7-_^7_.mp3"
"","null","audio-keyboard-response","109","1141617","0.0-15.0-0.7","35697","","new_stimuli/mp3/melody_v4_v3_v2_buffer.mp3","","null","",""
"","11196","html-button-response","110","1152815","0.0-15.0-1.7","35697","","<p>Which tone was played first after the cadence?</p><p>Please respond as quickly and as accurately as possible!</p>","5","","1","new_stimuli/mp3/melody_v4_v3_v2_buffer.mp3"
"","620","html-button-response","111","1153436","0.0-15.0-2.7","35697","","<p>Which tone was played second after the cadence?</p><p>Please respond as quickly and as accurately as possible!</p>","4","","2","new_stimuli/mp3/melody_v4_v3_v2_buffer.mp3"
"","1185","html-button-response","112","1154622","0.0-15.0-3.7","35697","","<p>Which tone was played third after the cadence?</p><p>Please respond as quickly and as accurately as possible!</p>","2","","3","new_stimuli/mp3/melody_v4_v3_v2_buffer.mp3"
"","null","audio-keyboard-response","113","1164526","0.0-15.0-0.8","35697","","new_stimuli/mp3/melody_^1_v6_v5+_.mp3","","null","",""
"","4325","html-button-response","114","1168852","0.0-15.0-1.8","35697","","<p>Which tone was played first after the cadence?</p><p>Please respond as quickly and as accurately as possible!</p>","12","","1","new_stimuli/mp3/melody_^1_v6_v5+_.mp3"
"","2249","html-button-response","115","1171100","0.0-15.0-2.8","35697","","<p>Which tone was played second after the cadence?</p><p>Please respond as quickly and as accurately as possible!</p>","11","","2","new_stimuli/mp3/melody_^1_v6_v5+_.mp3"
"","1207","html-button-response","116","1172309","0.0-15.0-3.8","35697","","<p>Which tone was played third after the cadence?</p><p>Please respond as quickly and as accurately as possible!</p>","10","","3","new_stimuli/mp3/melody_^1_v6_v5+_.mp3"
"[{""page_index"":0,""viewing_time"":177222},{""page_index"":1,""viewing_time"":8898},{""page_index"":2,""viewing_time"":1943}]","188064","instructions","117","1360374","0.0-16.0","35697","","","","","",""
"","null","audio-keyboard-response","118","1371017","0.0-17.0-0.0","35697","","new_stimuli/mp3/melody_^6_v4_v3_^4_^5_.mp3","","null","",""
"","23910","html-button-response","119","1394927","0.0-17.0-1.0","35697","","<p>Which tone was played first after the cadence?</p><p>Please respond as quickly and as accurately as possible!</p>","5","","1","new_stimuli/mp3/melody_^6_v4_v3_^4_^5_.mp3"
"","949","html-button-response","120","1395878","0.0-17.0-2.0","35697","","<p>Which tone was played second after the cadence?</p><p>Please respond as quickly and as accurately as possible!</p>","1","","2","new_stimuli/mp3/melody_^6_v4_v3_^4_^5_.mp3"
"","773","html-button-response","121","1396653","0.0-17.0-3.0","35697","","<p>Which tone was played third after the cadence?</p><p>Please respond as quickly and as accurately as possible!</p>","0","","3","new_stimuli/mp3/melody_^6_v4_v3_^4_^5_.mp3"
"","1783","html-button-response","122","1398437","0.0-17.0-4.0","35697","","<p>Which tone was played fourth after the cadence?</p><p>Please respond as quickly and as accurately as possible!</p>","1","","4","new_stimuli/mp3/melody_^6_v4_v3_^4_^5_.mp3"
"","957","html-button-response","123","1399396","0.0-17.0-5.0","35697","","<p>Which tone was played fifth after the cadence?</p><p>Please respond as quickly and as accurately as possible!</p>","3","","5","new_stimuli/mp3/melody_^6_v4_v3_^4_^5_.mp3"
"","null","audio-keyboard-response","124","1409977","0.0-17.0-0.1","35697","","new_stimuli/mp3/melody_v5_v4_v3_v2_v1 _buffer.mp3","","null","",""
"","9868","html-button-response","125","1419845","0.0-17.0-1.1","35697","","<p>Which tone was played first after the cadence?</p><p>Please respond as quickly and as accurately as possible!</p>","7","","1","new_stimuli/mp3/melody_v5_v4_v3_v2_v1 _buffer.mp3"
"","735","html-button-response","126","1420582","0.0-17.0-2.1","35697","","<p>Which tone was played second after the cadence?</p><p>Please respond as quickly and as accurately as possible!</p>","5","","2","new_stimuli/mp3/melody_v5_v4_v3_v2_v1 _buffer.mp3"
"","662","html-button-response","127","1421245","0.0-17.0-3.1","35697","","<p>Which tone was played third after the cadence?</p><p>Please respond as quickly and as accurately as possible!</p>","4","","3","new_stimuli/mp3/melody_v5_v4_v3_v2_v1 _buffer.mp3"
"","571","html-button-response","128","1421817","0.0-17.0-4.1","35697","","<p>Which tone was played fourth after the cadence?</p><p>Please respond as quickly and as accurately as possible!</p>","2","","4","new_stimuli/mp3/melody_v5_v4_v3_v2_v1 _buffer.mp3"
"","1330","html-button-response","129","1423148","0.0-17.0-5.1","35697","","<p>Which tone was played fifth after the cadence?</p><p>Please respond as quickly and as accurately as possible!</p>","0","","5","new_stimuli/mp3/melody_v5_v4_v3_v2_v1 _buffer.mp3"
"","null","audio-keyboard-response","130","1433726","0.0-17.0-0.2","35697","","new_stimuli/mp3/melody_v5_v4_v3_v2_v1_.mp3","","null","",""
"","3380","html-button-response","131","1437107","0.0-17.0-1.2","35697","","<p>Which tone was played first after the cadence?</p><p>Please respond as quickly and as accurately as possible!</p>","7","","1","new_stimuli/mp3/melody_v5_v4_v3_v2_v1_.mp3"
"","867","html-button-response","132","1437975","0.0-17.0-2.2","35697","","<p>Which tone was played second after the cadence?</p><p>Please respond as quickly and as accurately as possible!</p>","5","","2","new_stimuli/mp3/melody_v5_v4_v3_v2_v1_.mp3"
"","589","html-button-response","133","1438565","0.0-17.0-3.2","35697","","<p>Which tone was played third after the cadence?</p><p>Please respond as quickly and as accurately as possible!</p>","4","","3","new_stimuli/mp3/melody_v5_v4_v3_v2_v1_.mp3"
"","717","html-button-response","134","1439282","0.0-17.0-4.2","35697","","<p>Which tone was played fourth after the cadence?</p><p>Please respond as quickly and as accurately as possible!</p>","2","","4","new_stimuli/mp3/melody_v5_v4_v3_v2_v1_.mp3"
"","684","html-button-response","135","1439970","0.0-17.0-5.2","35697","","<p>Which tone was played fifth after the cadence?</p><p>Please respond as quickly and as accurately as possible!</p>","0","","5","new_stimuli/mp3/melody_v5_v4_v3_v2_v1_.mp3"
"","null","audio-keyboard-response","136","1450557","0.0-17.0-0.3","35697","","new_stimuli/mp3/melody_v2_2_^3_^4_v2_.mp3","","null","",""
"","5883","html-button-response","137","1456440","0.0-17.0-1.3","35697","","<p>Which tone was played first after the cadence?</p><p>Please respond as quickly and as accurately as possible!</p>","3","","1","new_stimuli/mp3/melody_v2_2_^3_^4_v2_.mp3"
"","776","html-button-response","138","1457216","0.0-17.0-2.3","35697","","<p>Which tone was played second after the cadence?</p><p>Please respond as quickly and as accurately as possible!</p>","3","","2","new_stimuli/mp3/melody_v2_2_^3_^4_v2_.mp3"
"","744","html-button-response","139","1457961","0.0-17.0-3.3","35697","","<p>Which tone was played third after the cadence?</p><p>Please respond as quickly and as accurately as possible!</p>","4","","3","new_stimuli/mp3/melody_v2_2_^3_^4_v2_.mp3"
"","8343","html-button-response","140","1466305","0.0-17.0-4.3","35697","","<p>Which tone was played fourth after the cadence?</p><p>Please respond as quickly and as accurately as possible!</p>","8","","4","new_stimuli/mp3/melody_v2_2_^3_^4_v2_.mp3"
"","578","html-button-response","141","1466885","0.0-17.0-5.3","35697","","<p>Which tone was played fifth after the cadence?</p><p>Please respond as quickly and as accurately as possible!</p>","7","","5","new_stimuli/mp3/melody_v2_2_^3_^4_v2_.mp3"
"","null","audio-keyboard-response","142","1477837","0.0-17.0-0.4","35697","","new_stimuli/mp3/melody_^5_^6_v5_v4_v3_buffer.mp3","","null","",""
"","4575","html-button-response","143","1482414","0.0-17.0-1.4","35697","","<p>Which tone was played first after the cadence?</p><p>Please respond as quickly and as accurately as possible!</p>","7","","1","new_stimuli/mp3/melody_^5_^6_v5_v4_v3_buffer.mp3"
"","888","html-button-response","144","1483303","0.0-17.0-2.4","35697","","<p>Which tone was played second after the cadence?</p><p>Please respond as quickly and as accurately as possible!</p>","8","","2","new_stimuli/mp3/melody_^5_^6_v5_v4_v3_buffer.mp3"
"","847","html-button-response","145","1484152","0.0-17.0-3.4","35697","","<p>Which tone was played third after the cadence?</p><p>Please respond as quickly and as accurately as possible!</p>","7","","3","new_stimuli/mp3/melody_^5_^6_v5_v4_v3_buffer.mp3"
"","1023","html-button-response","146","1485177","0.0-17.0-4.4","35697","","<p>Which tone was played fourth after the cadence?</p><p>Please respond as quickly and as accurately as possible!</p>","5","","4","new_stimuli/mp3/melody_^5_^6_v5_v4_v3_buffer.mp3"
"","2990","html-button-response","147","1488169","0.0-17.0-5.4","35697","","<p>Which tone was played fifth after the cadence?</p><p>Please respond as quickly and as accurately as possible!</p>","3","","5","new_stimuli/mp3/melody_^5_^6_v5_v4_v3_buffer.mp3"
"","null","audio-keyboard-response","148","1499116","0.0-17.0-0.5","35697","","new_stimuli/mp3/melody_v5-_v3_3_^4+_v3_.mp3","","null","",""
"","1808","html-button-response","149","1500925","0.0-17.0-1.5","35697","","<p>Which tone was played first after the cadence?</p><p>Please respond as quickly and as accurately as possible!</p>","6","","1","new_stimuli/mp3/melody_v5-_v3_3_^4+_v3_.mp3"
"","2927","html-button-response","150","1503855","0.0-17.0-2.5","35697","","<p>Which tone was played second after the cadence?</p><p>Please respond as quickly and as accurately as possible!</p>","4","","2","new_stimuli/mp3/melody_v5-_v3_3_^4+_v3_.mp3"
"","855","html-button-response","151","1504712","0.0-17.0-3.5","35697","","<p>Which tone was played third after the cadence?</p><p>Please respond as quickly and as accurately as possible!</p>","4","","3","new_stimuli/mp3/melody_v5-_v3_3_^4+_v3_.mp3"
"","948","html-button-response","152","1505661","0.0-17.0-4.5","35697","","<p>Which tone was played fourth after the cadence?</p><p>Please respond as quickly and as accurately as possible!</p>","6","","4","new_stimuli/mp3/melody_v5-_v3_3_^4+_v3_.mp3"
"","1049","html-button-response","153","1506710","0.0-17.0-5.5","35697","","<p>Which tone was played fifth after the cadence?</p><p>Please respond as quickly and as accurately as possible!</p>","4","","5","new_stimuli/mp3/melody_v5-_v3_3_^4+_v3_.mp3"
"","null","audio-keyboard-response","154","1517337","0.0-17.0-0.6","35697","","new_stimuli/mp3/melody_v5_^6+_^7_^1_5_.mp3","","null","",""
"","5563","html-button-response","155","1522901","0.0-17.0-1.6","35697","","<p>Which tone was played first after the cadence?</p><p>Please respond as quickly and as accurately as possible!</p>","0","","1","new_stimuli/mp3/melody_v5_^6+_^7_^1_5_.mp3"
"","1257","html-button-response","156","1524160","0.0-17.0-2.6","35697","","<p>Which tone was played second after the cadence?</p><p>Please respond as quickly and as accurately as possible!</p>","2","","2","new_stimuli/mp3/melody_v5_^6+_^7_^1_5_.mp3"
"","1820","html-button-response","157","1525983","0.0-17.0-3.6","35697","","<p>Which tone was played third after the cadence?</p><p>Please respond as quickly and as accurately as possible!</p>","3","","3","new_stimuli/mp3/melody_v5_^6+_^7_^1_5_.mp3"
"","1169","html-button-response","158","1527154","0.0-17.0-4.6","35697","","<p>Which tone was played fourth after the cadence?</p><p>Please respond as quickly and as accurately as possible!</p>","5","","4","new_stimuli/mp3/melody_v5_^6+_^7_^1_5_.mp3"
"","2882","html-button-response","159","1530037","0.0-17.0-5.6","35697","","<p>Which tone was played fifth after the cadence?</p><p>Please respond as quickly and as accurately as possible!</p>","2","","5","new_stimuli/mp3/melody_v5_^6+_^7_^1_5_.mp3"
"","null","audio-keyboard-response","160","1540747","0.0-17.0-0.7","35697","","new_stimuli/mp3/melody_^6_v5_v4_v3_v2_buffer.mp3","","null","",""
"","11480","html-button-response","161","1552227","0.0-17.0-1.7","35697","","<p>Which tone was played first after the cadence?</p><p>Please respond as quickly and as accurately as possible!</p>","12","","1","new_stimuli/mp3/melody_^6_v5_v4_v3_v2_buffer.mp3"
"","796","html-button-response","162","1553025","0.0-17.0-2.7","35697","","<p>Which tone was played second after the cadence?</p><p>Please respond as quickly and as accurately as possible!</p>","11","","2","new_stimuli/mp3/melody_^6_v5_v4_v3_v2_buffer.mp3"
"","7246","html-button-response","163","1560272","0.0-17.0-3.7","35697","","<p>Which tone was played third after the cadence?</p><p>Please respond as quickly and as accurately as possible!</p>","10","","3","new_stimuli/mp3/melody_^6_v5_v4_v3_v2_buffer.mp3"
"","1832","html-button-response","164","1562106","0.0-17.0-4.7","35697","","<p>Which tone was played fourth after the cadence?</p><p>Please respond as quickly and as accurately as possible!</p>","9","","4","new_stimuli/mp3/melody_^6_v5_v4_v3_v2_buffer.mp3"
"","1028","html-button-response","165","1563137","0.0-17.0-5.7","35697","","<p>Which tone was played fifth after the cadence?</p><p>Please respond as quickly and as accurately as possible!</p>","7","","5","new_stimuli/mp3/melody_^6_v5_v4_v3_v2_buffer.mp3"
"[{""page_index"":0,""viewing_time"":14153},{""page_index"":1,""viewing_time"":8587},{""page_index"":2,""viewing_time"":7604}]","30344","instructions","166","1593481","0.0-18.0","35697","","","","","",""
"","null","audio-keyboard-response","167","1605156","0.0-19.0-0.0","35697","","new_stimuli/mp3/melody_^4_v6-_v5-_^6-_^4_v2-_2-_.mp3","","null","",""
"","23311","html-button-response","168","1628469","0.0-19.0-1.0","35697","","<p>Which tone was played first after the cadence?</p><p>Please respond as quickly and as accurately as possible!</p>","10","","1","new_stimuli/mp3/melody_^4_v6-_v5-_^6-_^4_v2-_2-_.mp3"
"","929","html-button-response","169","1629398","0.0-19.0-2.0","35697","","<p>Which tone was played second after the cadence?</p><p>Please respond as quickly and as accurately as possible!</p>","2","","2","new_stimuli/mp3/melody_^4_v6-_v5-_^6-_^4_v2-_2-_.mp3"
"","578","html-button-response","170","1629979","0.0-19.0-3.0","35697","","<p>Which tone was played third after the cadence?</p><p>Please respond as quickly and as accurately as possible!</p>","2","","3","new_stimuli/mp3/melody_^4_v6-_v5-_^6-_^4_v2-_2-_.mp3"
"","1256","html-button-response","171","1631235","0.0-19.0-4.0","35697","","<p>Which tone was played fourth after the cadence?</p><p>Please respond as quickly and as accurately as possible!</p>","9","","4","new_stimuli/mp3/melody_^4_v6-_v5-_^6-_^4_v2-_2-_.mp3"
"","692","html-button-response","172","1631929","0.0-19.0-5.0","35697","","<p>Which tone was played fifth after the cadence?</p><p>Please respond as quickly and as accurately as possible!</p>","10","","5","new_stimuli/mp3/melody_^4_v6-_v5-_^6-_^4_v2-_2-_.mp3"
"","2070","html-button-response","173","1634001","0.0-19.0-6.0","35697","","<p>Which tone was played sixth after the cadence?</p><p>Please respond as quickly and as accurately as possible!</p>","2","","6","new_stimuli/mp3/melody_^4_v6-_v5-_^6-_^4_v2-_2-_.mp3"
"","791","html-button-response","174","1634794","0.0-19.0-7.0","35697","","<p>Which tone was played seventh after the cadence?</p><p>Please respond as quickly and as accurately as possible!</p>","2","","7","new_stimuli/mp3/melody_^4_v6-_v5-_^6-_^4_v2-_2-_.mp3"
"","null","audio-keyboard-response","175","1646756","0.0-19.0-0.1","35697","","new_stimuli/mp3/melody_1_^3_v1_^5_v3_v2_^3_.mp3","","null","",""
"","12090","html-button-response","176","1658848","0.0-19.0-1.1","35697","","<p>Which tone was played first after the cadence?</p><p>Please respond as quickly and as accurately as possible!</p>","2","","1","new_stimuli/mp3/melody_1_^3_v1_^5_v3_v2_^3_.mp3"
"","821","html-button-response","177","1659670","0.0-19.0-2.1","35697","","<p>Which tone was played second after the cadence?</p><p>Please respond as quickly and as accurately as possible!</p>","7","","2","new_stimuli/mp3/melody_1_^3_v1_^5_v3_v2_^3_.mp3"
"","931","html-button-response","178","1660602","0.0-19.0-3.1","35697","","<p>Which tone was played third after the cadence?</p><p>Please respond as quickly and as accurately as possible!</p>","2","","3","new_stimuli/mp3/melody_1_^3_v1_^5_v3_v2_^3_.mp3"
"","1343","html-button-response","179","1661946","0.0-19.0-4.1","35697","","<p>Which tone was played fourth after the cadence?</p><p>Please respond as quickly and as accurately as possible!</p>","9","","4","new_stimuli/mp3/melody_1_^3_v1_^5_v3_v2_^3_.mp3"
"","1004","html-button-response","180","1662952","0.0-19.0-5.1","35697","","<p>Which tone was played fifth after the cadence?</p><p>Please respond as quickly and as accurately as possible!</p>","7","","5","new_stimuli/mp3/melody_1_^3_v1_^5_v3_v2_^3_.mp3"
"","2174","html-button-response","181","1665126","0.0-19.0-6.1","35697","","<p>Which tone was played sixth after the cadence?</p><p>Please respond as quickly and as accurately as possible!</p>","2","","6","new_stimuli/mp3/melody_1_^3_v1_^5_v3_v2_^3_.mp3"
"","1024","html-button-response","182","1666152","0.0-19.0-7.1","35697","","<p>Which tone was played seventh after the cadence?</p><p>Please respond as quickly and as accurately as possible!</p>","2","","7","new_stimuli/mp3/melody_1_^3_v1_^5_v3_v2_^3_.mp3"
"","null","audio-keyboard-response","183","1677726","0.0-19.0-0.2","35697","","new_stimuli/mp3/melody_^5_^6_v5_v4_v3_v2_v1_buffer.mp3","","null","",""
"","6484","html-button-response","184","1684213","0.0-19.0-1.2","35697","","<p>Which tone was played first after the cadence?</p><p>Please respond as quickly and as accurately as possible!</p>","7","","1","new_stimuli/mp3/melody_^5_^6_v5_v4_v3_v2_v1_buffer.mp3"
"","716","html-button-response","185","1684931","0.0-19.0-2.2","35697","","<p>Which tone was played second after the cadence?</p><p>Please respond as quickly and as accurately as possible!</p>","9","","2","new_stimuli/mp3/melody_^5_^6_v5_v4_v3_v2_v1_buffer.mp3"
"","726","html-button-response","186","1685658","0.0-19.0-3.2","35697","","<p>Which tone was played third after the cadence?</p><p>Please respond as quickly and as accurately as possible!</p>","7","","3","new_stimuli/mp3/melody_^5_^6_v5_v4_v3_v2_v1_buffer.mp3"
"","853","html-button-response","187","1686512","0.0-19.0-4.2","35697","","<p>Which tone was played fourth after the cadence?</p><p>Please respond as quickly and as accurately as possible!</p>","5","","4","new_stimuli/mp3/melody_^5_^6_v5_v4_v3_v2_v1_buffer.mp3"
"","518","html-button-response","188","1687031","0.0-19.0-5.2","35697","","<p>Which tone was played fifth after the cadence?</p><p>Please respond as quickly and as accurately as possible!</p>","4","","5","new_stimuli/mp3/melody_^5_^6_v5_v4_v3_v2_v1_buffer.mp3"
"","728","html-button-response","189","1687761","0.0-19.0-6.2","35697","","<p>Which tone was played sixth after the cadence?</p><p>Please respond as quickly and as accurately as possible!</p>","2","","6","new_stimuli/mp3/melody_^5_^6_v5_v4_v3_v2_v1_buffer.mp3"
"","641","html-button-response","190","1688404","0.0-19.0-7.2","35697","","<p>Which tone was played seventh after the cadence?</p><p>Please respond as quickly and as accurately as possible!</p>","0","","7","new_stimuli/mp3/melody_^5_^6_v5_v4_v3_v2_v1_buffer.mp3"
"","null","audio-keyboard-response","191","1700108","0.0-19.0-0.3","35697","","new_stimuli/mp3/melody_v1_^2_v1_v7_^1_^3_v2_.mp3","","null","",""
"","4296","html-button-response","192","1704404","0.0-19.0-1.3","35697","","<p>Which tone was played first after the cadence?</p><p>Please respond as quickly and as accurately as possible!</p>","0","","1","new_stimuli/mp3/melody_v1_^2_v1_v7_^1_^3_v2_.mp3"
"","697","html-button-response","193","1705102","0.0-19.0-2.3","35697","","<p>Which tone was played second after the cadence?</p><p>Please respond as quickly and as accurately as possible!</p>","2","","2","new_stimuli/mp3/melody_v1_^2_v1_v7_^1_^3_v2_.mp3"
"","828","html-button-response","194","1705931","0.0-19.0-3.3","35697","","<p>Which tone was played third after the cadence?</p><p>Please respond as quickly and as accurately as possible!</p>","0","","3","new_stimuli/mp3/melody_v1_^2_v1_v7_^1_^3_v2_.mp3"
"","1209","html-button-response","195","1707142","0.0-19.0-4.3","35697","","<p>Which tone was played fourth after the cadence?</p><p>Please respond as quickly and as accurately as possible!</p>","4","","4","new_stimuli/mp3/melody_v1_^2_v1_v7_^1_^3_v2_.mp3"
"","757","html-button-response","196","1707901","0.0-19.0-5.3","35697","","<p>Which tone was played fifth after the cadence?</p><p>Please respond as quickly and as accurately as possible!</p>","5","","5","new_stimuli/mp3/melody_v1_^2_v1_v7_^1_^3_v2_.mp3"
"","4511","html-button-response","197","1712414","0.0-19.0-6.3","35697","","<p>Which tone was played sixth after the cadence?</p><p>Please respond as quickly and as accurately as possible!</p>","4","","6","new_stimuli/mp3/melody_v1_^2_v1_v7_^1_^3_v2_.mp3"
"","1681","html-button-response","198","1714098","0.0-19.0-7.3","35697","","<p>Which tone was played seventh after the cadence?</p><p>Please respond as quickly and as accurately as possible!</p>","2","","7","new_stimuli/mp3/melody_v1_^2_v1_v7_^1_^3_v2_.mp3"
"","null","audio-keyboard-response","199","1725807","0.0-19.0-0.4","35697","","new_stimuli/mp3/melody_^4_^5_^6_v5_v4_v3_v2_.mp3","","null","",""
"","4695","html-button-response","200","1730502","0.0-19.0-1.4","35697","","<p>Which tone was played first after the cadence?</p><p>Please respond as quickly and as accurately as possible!</p>","5","","1","new_stimuli/mp3/melody_^4_^5_^6_v5_v4_v3_v2_.mp3"
"","620","html-button-response","201","1731123","0.0-19.0-2.4","35697","","<p>Which tone was played second after the cadence?</p><p>Please respond as quickly and as accurately as possible!</p>","7","","2","new_stimuli/mp3/melody_^4_^5_^6_v5_v4_v3_v2_.mp3"
"","682","html-button-response","202","1731806","0.0-19.0-3.4","35697","","<p>Which tone was played third after the cadence?</p><p>Please respond as quickly and as accurately as possible!</p>","5","","3","new_stimuli/mp3/melody_^4_^5_^6_v5_v4_v3_v2_.mp3"
"","590","html-button-response","203","1732396","0.0-19.0-4.4","35697","","<p>Which tone was played fourth after the cadence?</p><p>Please respond as quickly and as accurately as possible!</p>","7","","4","new_stimuli/mp3/melody_^4_^5_^6_v5_v4_v3_v2_.mp3"
"","716","html-button-response","204","1733113","0.0-19.0-5.4","35697","","<p>Which tone was played fifth after the cadence?</p><p>Please respond as quickly and as accurately as possible!</p>","8","","5","new_stimuli/mp3/melody_^4_^5_^6_v5_v4_v3_v2_.mp3"
"","1085","html-button-response","205","1734200","0.0-19.0-6.4","35697","","<p>Which tone was played sixth after the cadence?</p><p>Please respond as quickly and as accurately as possible!</p>","5","","6","new_stimuli/mp3/melody_^4_^5_^6_v5_v4_v3_v2_.mp3"
"","2365","html-button-response","206","1736566","0.0-19.0-7.4","35697","","<p>Which tone was played seventh after the cadence?</p><p>Please respond as quickly and as accurately as possible!</p>","3","","7","new_stimuli/mp3/melody_^4_^5_^6_v5_v4_v3_v2_.mp3"
"","null","audio-keyboard-response","207","1748277","0.0-19.0-0.5","35697","","new_stimuli/mp3/melody_^1_v7_v6_v5_v4_v3_v2_buffer.mp3","","null","",""
"","11257","html-button-response","208","1759533","0.0-19.0-1.5","35697","","<p>Which tone was played first after the cadence?</p><p>Please respond as quickly and as accurately as possible!</p>","12","","1","new_stimuli/mp3/melody_^1_v7_v6_v5_v4_v3_v2_buffer.mp3"
"","575","html-button-response","209","1760112","0.0-19.0-2.5","35697","","<p>Which tone was played second after the cadence?</p><p>Please respond as quickly and as accurately as possible!</p>","11","","2","new_stimuli/mp3/melody_^1_v7_v6_v5_v4_v3_v2_buffer.mp3"
"","777","html-button-response","210","1760891","0.0-19.0-3.5","35697","","<p>Which tone was played third after the cadence?</p><p>Please respond as quickly and as accurately as possible!</p>","9","","3","new_stimuli/mp3/melody_^1_v7_v6_v5_v4_v3_v2_buffer.mp3"
"","680","html-button-response","211","1761574","0.0-19.0-4.5","35697","","<p>Which tone was played fourth after the cadence?</p><p>Please respond as quickly and as accurately as possible!</p>","7","","4","new_stimuli/mp3/melody_^1_v7_v6_v5_v4_v3_v2_buffer.mp3"
"","692","html-button-response","212","1762269","0.0-19.0-5.5","35697","","<p>Which tone was played fifth after the cadence?</p><p>Please respond as quickly and as accurately as possible!</p>","5","","5","new_stimuli/mp3/melody_^1_v7_v6_v5_v4_v3_v2_buffer.mp3"
"","497","html-button-response","213","1762766","0.0-19.0-6.5","35697","","<p>Which tone was played sixth after the cadence?</p><p>Please respond as quickly and as accurately as possible!</p>","4","","6","new_stimuli/mp3/melody_^1_v7_v6_v5_v4_v3_v2_buffer.mp3"
"","682","html-button-response","214","1763450","0.0-19.0-7.5","35697","","<p>Which tone was played seventh after the cadence?</p><p>Please respond as quickly and as accurately as possible!</p>","2","","7","new_stimuli/mp3/melody_^1_v7_v6_v5_v4_v3_v2_buffer.mp3"
"","null","audio-keyboard-response","215","1775096","0.0-19.0-0.6","35697","","new_stimuli/mp3/melody_^6_v5+_v4_^5+_v3_v1_v7-_.mp3","","null","",""
"","7476","html-button-response","216","1782574","0.0-19.0-1.6","35697","","<p>Which tone was played first after the cadence?</p><p>Please respond as quickly and as accurately as possible!</p>","9","","1","new_stimuli/mp3/melody_^6_v5+_v4_^5+_v3_v1_v7-_.mp3"
"","675","html-button-response","217","1783250","0.0-19.0-2.6","35697","","<p>Which tone was played second after the cadence?</p><p>Please respond as quickly and as accurately as possible!</p>","7","","2","new_stimuli/mp3/melody_^6_v5+_v4_^5+_v3_v1_v7-_.mp3"
"","559","html-button-response","218","1783811","0.0-19.0-3.6","35697","","<p>Which tone was played third after the cadence?</p><p>Please respond as quickly and as accurately as possible!</p>","6","","3","new_stimuli/mp3/melody_^6_v5+_v4_^5+_v3_v1_v7-_.mp3"
"","4056","html-button-response","219","1787869","0.0-19.0-4.6","35697","","<p>Which tone was played fourth after the cadence?</p><p>Please respond as quickly and as accurately as possible!</p>","8","","4","new_stimuli/mp3/melody_^6_v5+_v4_^5+_v3_v1_v7-_.mp3"
"","619","html-button-response","220","1788490","0.0-19.0-5.6","35697","","<p>Which tone was played fifth after the cadence?</p><p>Please respond as quickly and as accurately as possible!</p>","9","","5","new_stimuli/mp3/melody_^6_v5+_v4_^5+_v3_v1_v7-_.mp3"
"","6415","html-button-response","221","1794906","0.0-19.0-6.6","35697","","<p>Which tone was played sixth after the cadence?</p><p>Please respond as quickly and as accurately as possible!</p>","5","","6","new_stimuli/mp3/melody_^6_v5+_v4_^5+_v3_v1_v7-_.mp3"
"","454","html-button-response","222","1795364","0.0-19.0-7.6","35697","","<p>Which tone was played seventh after the cadence?</p><p>Please respond as quickly and as accurately as possible!</p>","4","","7","new_stimuli/mp3/melody_^6_v5+_v4_^5+_v3_v1_v7-_.mp3"
"[{""page_index"":0,""viewing_time"":30373},{""page_index"":1,""viewing_time"":2833},{""page_index"":2,""viewing_time"":2085}]","35292","instructions","223","1830655","0.0-20.0","35697","","","","","",""
"","null","audio-keyboard-response","224","1843306","0.0-21.0-0.0","35697","","new_stimuli/mp3/melody_v5_v4_v6+_^7_^3+_v3_v2_v5_^4_.mp3","","null","",""
"","7706","html-button-response","225","1851013","0.0-21.0-1.0","35697","","<p>Which tone was played first after the cadence?</p><p>Please respond as quickly and as accurately as possible!</p>","10","","1","new_stimuli/mp3/melody_v5_v4_v6+_^7_^3+_v3_v2_v5_^4_.mp3"
"","598","html-button-response","226","1851613","0.0-21.0-2.0","35697","","<p>Which tone was played second after the cadence?</p><p>Please respond as quickly and as accurately as possible!</p>","9","","2","new_stimuli/mp3/melody_v5_v4_v6+_^7_^3+_v3_v2_v5_^4_.mp3"
"","610","html-button-response","227","1852223","0.0-21.0-3.0","35697","","<p>Which tone was played third after the cadence?</p><p>Please respond as quickly and as accurately as possible!</p>","7","","3","new_stimuli/mp3/melody_v5_v4_v6+_^7_^3+_v3_v2_v5_^4_.mp3"
"","2005","html-button-response","228","1854230","0.0-21.0-4.0","35697","","<p>Which tone was played fourth after the cadence?</p><p>Please respond as quickly and as accurately as possible!</p>","5","","4","new_stimuli/mp3/melody_v5_v4_v6+_^7_^3+_v3_v2_v5_^4_.mp3"
"","505","html-button-response","229","1854737","0.0-21.0-5.0","35697","","<p>Which tone was played fifth after the cadence?</p><p>Please respond as quickly and as accurately as possible!</p>","4","","5","new_stimuli/mp3/melody_v5_v4_v6+_^7_^3+_v3_v2_v5_^4_.mp3"
"","1486","html-button-response","230","1856225","0.0-21.0-6.0","35697","","<p>Which tone was played sixth after the cadence?</p><p>Please respond as quickly and as accurately as possible!</p>","3","","6","new_stimuli/mp3/melody_v5_v4_v6+_^7_^3+_v3_v2_v5_^4_.mp3"
"","1697","html-button-response","231","1857923","0.0-21.0-7.0","35697","","<p>Which tone was played seventh after the cadence?</p><p>Please respond as quickly and as accurately as possible!</p>","9","","7","new_stimuli/mp3/melody_v5_v4_v6+_^7_^3+_v3_v2_v5_^4_.mp3"
"","1325","html-button-response","232","1859250","0.0-21.0-8.0","35697","","<p>Which tone was played eight after the cadence?</p><p>Please respond as quickly and as accurately as possible!</p>","10","","8","new_stimuli/mp3/melody_v5_v4_v6+_^7_^3+_v3_v2_v5_^4_.mp3"
"","2143","html-button-response","233","1861396","0.0-21.0-9.0","35697","","<p>Which tone was played nineth after the cadence?</p><p>Please respond as quickly and as accurately as possible!</p>","9","","9","new_stimuli/mp3/melody_v5_v4_v6+_^7_^3+_v3_v2_v5_^4_.mp3"
"","null","audio-keyboard-response","234","1874046","0.0-21.0-0.1","35697","","new_stimuli/mp3/melody_^3_^4_v2_v7_^1_^2_^3_3_^4_.mp3","","null","",""
"","15716","html-button-response","235","1889762","0.0-21.0-1.1","35697","","<p>Which tone was played first after the cadence?</p><p>Please respond as quickly and as accurately as possible!</p>","9","","1","new_stimuli/mp3/melody_^3_^4_v2_v7_^1_^2_^3_3_^4_.mp3"
"","745","html-button-response","236","1890509","0.0-21.0-2.1","35697","","<p>Which tone was played second after the cadence?</p><p>Please respond as quickly and as accurately as possible!</p>","10","","2","new_stimuli/mp3/melody_^3_^4_v2_v7_^1_^2_^3_3_^4_.mp3"
"","583","html-button-response","237","1891092","0.0-21.0-3.1","35697","","<p>Which tone was played third after the cadence?</p><p>Please respond as quickly and as accurately as possible!</p>","9","","3","new_stimuli/mp3/melody_^3_^4_v2_v7_^1_^2_^3_3_^4_.mp3"
"","1036","html-button-response","238","1892130","0.0-21.0-4.1","35697","","<p>Which tone was played fourth after the cadence?</p><p>Please respond as quickly and as accurately as possible!</p>","7","","4","new_stimuli/mp3/melody_^3_^4_v2_v7_^1_^2_^3_3_^4_.mp3"
"","684","html-button-response","239","1892817","0.0-21.0-5.1","35697","","<p>Which tone was played fifth after the cadence?</p><p>Please respond as quickly and as accurately as possible!</p>","5","","5","new_stimuli/mp3/melody_^3_^4_v2_v7_^1_^2_^3_3_^4_.mp3"
"","719","html-button-response","240","1893536","0.0-21.0-6.1","35697","","<p>Which tone was played sixth after the cadence?</p><p>Please respond as quickly and as accurately as possible!</p>","5","","6","new_stimuli/mp3/melody_^3_^4_v2_v7_^1_^2_^3_3_^4_.mp3"
"","922","html-button-response","241","1894460","0.0-21.0-7.1","35697","","<p>Which tone was played seventh after the cadence?</p><p>Please respond as quickly and as accurately as possible!</p>","7","","7","new_stimuli/mp3/melody_^3_^4_v2_v7_^1_^2_^3_3_^4_.mp3"
"","582","html-button-response","242","1895044","0.0-21.0-8.1","35697","","<p>Which tone was played eight after the cadence?</p><p>Please respond as quickly and as accurately as possible!</p>","9","","8","new_stimuli/mp3/melody_^3_^4_v2_v7_^1_^2_^3_3_^4_.mp3"
"","2003","html-button-response","243","1897049","0.0-21.0-9.1","35697","","<p>Which tone was played nineth after the cadence?</p><p>Please respond as quickly and as accurately as possible!</p>","7","","9","new_stimuli/mp3/melody_^3_^4_v2_v7_^1_^2_^3_3_^4_.mp3"
"","null","audio-keyboard-response","244","1910017","0.0-21.0-0.2","35697","","new_stimuli/mp3/melody_^5_^6_v5_v4_v3_v2_v1_^2_^3_buffer.mp3","","null","",""
"","2545","html-button-response","245","1912562","0.0-21.0-1.2","35697","","<p>Which tone was played first after the cadence?</p><p>Please respond as quickly and as accurately as possible!</p>","11","","1","new_stimuli/mp3/melody_^5_^6_v5_v4_v3_v2_v1_^2_^3_buffer.mp3"
"","645","html-button-response","246","1913208","0.0-21.0-2.2","35697","","<p>Which tone was played second after the cadence?</p><p>Please respond as quickly and as accurately as possible!</p>","12","","2","new_stimuli/mp3/melody_^5_^6_v5_v4_v3_v2_v1_^2_^3_buffer.mp3"
"","748","html-button-response","247","1913956","0.0-21.0-3.2","35697","","<p>Which tone was played third after the cadence?</p><p>Please respond as quickly and as accurately as possible!</p>","11","","3","new_stimuli/mp3/melody_^5_^6_v5_v4_v3_v2_v1_^2_^3_buffer.mp3"
"","602","html-button-response","248","1914560","0.0-21.0-4.2","35697","","<p>Which tone was played fourth after the cadence?</p><p>Please respond as quickly and as accurately as possible!</p>","9","","4","new_stimuli/mp3/melody_^5_^6_v5_v4_v3_v2_v1_^2_^3_buffer.mp3"
"","706","html-button-response","249","1915268","0.0-21.0-5.2","35697","","<p>Which tone was played fifth after the cadence?</p><p>Please respond as quickly and as accurately as possible!</p>","7","","5","new_stimuli/mp3/melody_^5_^6_v5_v4_v3_v2_v1_^2_^3_buffer.mp3"
"","2128","html-button-response","250","1917397","0.0-21.0-6.2","35697","","<p>Which tone was played sixth after the cadence?</p><p>Please respond as quickly and as accurately as possible!</p>","9","","6","new_stimuli/mp3/melody_^5_^6_v5_v4_v3_v2_v1_^2_^3_buffer.mp3"
"","600","html-button-response","251","1917999","0.0-21.0-7.2","35697","","<p>Which tone was played seventh after the cadence?</p><p>Please respond as quickly and as accurately as possible!</p>","7","","7","new_stimuli/mp3/melody_^5_^6_v5_v4_v3_v2_v1_^2_^3_buffer.mp3"
"","603","html-button-response","252","1918603","0.0-21.0-8.2","35697","","<p>Which tone was played eight after the cadence?</p><p>Please respond as quickly and as accurately as possible!</p>","4","","8","new_stimuli/mp3/melody_^5_^6_v5_v4_v3_v2_v1_^2_^3_buffer.mp3"
"","573","html-button-response","253","1919177","0.0-21.0-9.2","35697","","<p>Which tone was played nineth after the cadence?</p><p>Please respond as quickly and as accurately as possible!</p>","5","","9","new_stimuli/mp3/melody_^5_^6_v5_v4_v3_v2_v1_^2_^3_buffer.mp3"
"","null","audio-keyboard-response","254","1932106","0.0-21.0-0.3","35697","","new_stimuli/mp3/melody_^2_^4_v3_v2_v1_v3_v2+_^3_^5+_.mp3","","null","",""
"","7574","html-button-response","255","1939682","0.0-21.0-1.3","35697","","<p>Which tone was played first after the cadence?</p><p>Please respond as quickly and as accurately as possible!</p>","7","","1","new_stimuli/mp3/melody_^2_^4_v3_v2_v1_v3_v2+_^3_^5+_.mp3"
"","488","html-button-response","256","1940172","0.0-21.0-2.3","35697","","<p>Which tone was played second after the cadence?</p><p>Please respond as quickly and as accurately as possible!</p>","8","","2","new_stimuli/mp3/melody_^2_^4_v3_v2_v1_v3_v2+_^3_^5+_.mp3"
"","688","html-button-response","257","1940860","0.0-21.0-3.3","35697","","<p>Which tone was played third after the cadence?</p><p>Please respond as quickly and as accurately as possible!</p>","7","","3","new_stimuli/mp3/melody_^2_^4_v3_v2_v1_v3_v2+_^3_^5+_.mp3"
"","873","html-button-response","258","1941735","0.0-21.0-4.3","35697","","<p>Which tone was played fourth after the cadence?</p><p>Please respond as quickly and as accurately as possible!</p>","5","","4","new_stimuli/mp3/melody_^2_^4_v3_v2_v1_v3_v2+_^3_^5+_.mp3"
"","1787","html-button-response","259","1943524","0.0-21.0-5.3","35697","","<p>Which tone was played fifth after the cadence?</p><p>Please respond as quickly and as accurately as possible!</p>","3","","5","new_stimuli/mp3/melody_^2_^4_v3_v2_v1_v3_v2+_^3_^5+_.mp3"
"","995","html-button-response","260","1944521","0.0-21.0-6.3","35697","","<p>Which tone was played sixth after the cadence?</p><p>Please respond as quickly and as accurately as possible!</p>","4","","6","new_stimuli/mp3/melody_^2_^4_v3_v2_v1_v3_v2+_^3_^5+_.mp3"
"","853","html-button-response","261","1945375","0.0-21.0-7.3","35697","","<p>Which tone was played seventh after the cadence?</p><p>Please respond as quickly and as accurately as possible!</p>","6","","7","new_stimuli/mp3/melody_^2_^4_v3_v2_v1_v3_v2+_^3_^5+_.mp3"
"","2849","html-button-response","262","1948226","0.0-21.0-8.3","35697","","<p>Which tone was played eight after the cadence?</p><p>Please respond as quickly and as accurately as possible!</p>","3","","8","new_stimuli/mp3/melody_^2_^4_v3_v2_v1_v3_v2+_^3_^5+_.mp3"
"","895","html-button-response","263","1949124","0.0-21.0-9.3","35697","","<p>Which tone was played nineth after the cadence?</p><p>Please respond as quickly and as accurately as possible!</p>","2","","9","new_stimuli/mp3/melody_^2_^4_v3_v2_v1_v3_v2+_^3_^5+_.mp3"
"","null","audio-keyboard-response","264","1961687","0.0-21.0-0.4","35697","","new_stimuli/mp3/melody_^3_^4_^5 _^6_v5_v4_v3_v2_v1_.mp3","","null","",""
"","1957","html-button-response","265","1963645","0.0-21.0-1.4","35697","","<p>Which tone was played first after the cadence?</p><p>Please respond as quickly and as accurately as possible!</p>","4","","1","new_stimuli/mp3/melody_^3_^4_^5 _^6_v5_v4_v3_v2_v1_.mp3"
"","774","html-button-response","266","1964421","0.0-21.0-2.4","35697","","<p>Which tone was played second after the cadence?</p><p>Please respond as quickly and as accurately as possible!</p>","5","","2","new_stimuli/mp3/melody_^3_^4_^5 _^6_v5_v4_v3_v2_v1_.mp3"
"","588","html-button-response","267","1965010","0.0-21.0-3.4","35697","","<p>Which tone was played third after the cadence?</p><p>Please respond as quickly and as accurately as possible!</p>","4","","3","new_stimuli/mp3/melody_^3_^4_^5 _^6_v5_v4_v3_v2_v1_.mp3"
"","3041","html-button-response","268","1968053","0.0-21.0-4.4","35697","","<p>Which tone was played fourth after the cadence?</p><p>Please respond as quickly and as accurately as possible!</p>","9","","4","new_stimuli/mp3/melody_^3_^4_^5 _^6_v5_v4_v3_v2_v1_.mp3"
"","600","html-button-response","269","1968654","0.0-21.0-5.4","35697","","<p>Which tone was played fifth after the cadence?</p><p>Please respond as quickly and as accurately as possible!</p>","11","","5","new_stimuli/mp3/melody_^3_^4_^5 _^6_v5_v4_v3_v2_v1_.mp3"
"","705","html-button-response","270","1969359","0.0-21.0-6.4","35697","","<p>Which tone was played sixth after the cadence?</p><p>Please respond as quickly and as accurately as possible!</p>","7","","6","new_stimuli/mp3/melody_^3_^4_^5 _^6_v5_v4_v3_v2_v1_.mp3"
"","1507","html-button-response","271","1970868","0.0-21.0-7.4","35697","","<p>Which tone was played seventh after the cadence?</p><p>Please respond as quickly and as accurately as possible!</p>","5","","7","new_stimuli/mp3/melody_^3_^4_^5 _^6_v5_v4_v3_v2_v1_.mp3"
"","727","html-button-response","272","1971596","0.0-21.0-8.4","35697","","<p>Which tone was played eight after the cadence?</p><p>Please respond as quickly and as accurately as possible!</p>","4","","8","new_stimuli/mp3/melody_^3_^4_^5 _^6_v5_v4_v3_v2_v1_.mp3"
"","1396","html-button-response","273","1972993","0.0-21.0-9.4","35697","","<p>Which tone was played nineth after the cadence?</p><p>Please respond as quickly and as accurately as possible!</p>","5","","9","new_stimuli/mp3/melody_^3_^4_^5 _^6_v5_v4_v3_v2_v1_.mp3"
"","null","audio-keyboard-response","274","1985697","0.0-21.0-0.5","35697","","new_stimuli/mp3/melody_^2_^3_^4_^5_^6_v5_v4_v3_v2_buffer.mp3","","null","",""
"","2991","html-button-response","275","1988689","0.0-21.0-1.5","35697","","<p>Which tone was played first after the cadence?</p><p>Please respond as quickly and as accurately as possible!</p>","4","","1","new_stimuli/mp3/melody_^2_^3_^4_^5_^6_v5_v4_v3_v2_buffer.mp3"
"","732","html-button-response","276","1989422","0.0-21.0-2.5","35697","","<p>Which tone was played second after the cadence?</p><p>Please respond as quickly and as accurately as possible!</p>","5","","2","new_stimuli/mp3/melody_^2_^3_^4_^5_^6_v5_v4_v3_v2_buffer.mp3"
"","675","html-button-response","277","1990098","0.0-21.0-3.5","35697","","<p>Which tone was played third after the cadence?</p><p>Please respond as quickly and as accurately as possible!</p>","7","","3","new_stimuli/mp3/melody_^2_^3_^4_^5_^6_v5_v4_v3_v2_buffer.mp3"
"","610","html-button-response","278","1990710","0.0-21.0-4.5","35697","","<p>Which tone was played fourth after the cadence?</p><p>Please respond as quickly and as accurately as possible!</p>","9","","4","new_stimuli/mp3/melody_^2_^3_^4_^5_^6_v5_v4_v3_v2_buffer.mp3"
"","558","html-button-response","279","1991269","0.0-21.0-5.5","35697","","<p>Which tone was played fifth after the cadence?</p><p>Please respond as quickly and as accurately as possible!</p>","11","","5","new_stimuli/mp3/melody_^2_^3_^4_^5_^6_v5_v4_v3_v2_buffer.mp3"
"","548","html-button-response","280","1991818","0.0-21.0-6.5","35697","","<p>Which tone was played sixth after the cadence?</p><p>Please respond as quickly and as accurately as possible!</p>","9","","6","new_stimuli/mp3/melody_^2_^3_^4_^5_^6_v5_v4_v3_v2_buffer.mp3"
"","753","html-button-response","281","1992574","0.0-21.0-7.5","35697","","<p>Which tone was played seventh after the cadence?</p><p>Please respond as quickly and as accurately as possible!</p>","7","","7","new_stimuli/mp3/melody_^2_^3_^4_^5_^6_v5_v4_v3_v2_buffer.mp3"
"","916","html-button-response","282","1993492","0.0-21.0-8.5","35697","","<p>Which tone was played eight after the cadence?</p><p>Please respond as quickly and as accurately as possible!</p>","5","","8","new_stimuli/mp3/melody_^2_^3_^4_^5_^6_v5_v4_v3_v2_buffer.mp3"
"","849","html-button-response","283","1994342","0.0-21.0-9.5","35697","","<p>Which tone was played nineth after the cadence?</p><p>Please respond as quickly and as accurately as possible!</p>","7","","9","new_stimuli/mp3/melody_^2_^3_^4_^5_^6_v5_v4_v3_v2_buffer.mp3"
"","null","audio-keyboard-response","284","2006986","0.0-21.0-0.6","35697","","new_stimuli/mp3/melody_v7_v6_v5_^6_v5_v4_^5_^6_v5_.mp3","","null","",""
"","1256","html-button-response","285","2008244","0.0-21.0-1.6","35697","","<p>Which tone was played first after the cadence?</p><p>Please respond as quickly and as accurately as possible!</p>","11","","1","new_stimuli/mp3/melody_v7_v6_v5_^6_v5_v4_^5_^6_v5_.mp3"
"","706","html-button-response","286","2008951","0.0-21.0-2.6","35697","","<p>Which tone was played second after the cadence?</p><p>Please respond as quickly and as accurately as possible!</p>","9","","2","new_stimuli/mp3/melody_v7_v6_v5_^6_v5_v4_^5_^6_v5_.mp3"
"","705","html-button-response","287","2009658","0.0-21.0-3.6","35697","","<p>Which tone was played third after the cadence?</p><p>Please respond as quickly and as accurately as possible!</p>","7","","3","new_stimuli/mp3/melody_v7_v6_v5_^6_v5_v4_^5_^6_v5_.mp3"
"","1069","html-button-response","288","2010728","0.0-21.0-4.6","35697","","<p>Which tone was played fourth after the cadence?</p><p>Please respond as quickly and as accurately as possible!</p>","9","","4","new_stimuli/mp3/melody_v7_v6_v5_^6_v5_v4_^5_^6_v5_.mp3"
"","583","html-button-response","289","2011312","0.0-21.0-5.6","35697","","<p>Which tone was played fifth after the cadence?</p><p>Please respond as quickly and as accurately as possible!</p>","7","","5","new_stimuli/mp3/melody_v7_v6_v5_^6_v5_v4_^5_^6_v5_.mp3"
"","813","html-button-response","290","2012125","0.0-21.0-6.6","35697","","<p>Which tone was played sixth after the cadence?</p><p>Please respond as quickly and as accurately as possible!</p>","5","","6","new_stimuli/mp3/melody_v7_v6_v5_^6_v5_v4_^5_^6_v5_.mp3"
"","1269","html-button-response","291","2013396","0.0-21.0-7.6","35697","","<p>Which tone was played seventh after the cadence?</p><p>Please respond as quickly and as accurately as possible!</p>","7","","7","new_stimuli/mp3/melody_v7_v6_v5_^6_v5_v4_^5_^6_v5_.mp3"
"","509","html-button-response","292","2013907","0.0-21.0-8.6","35697","","<p>Which tone was played eight after the cadence?</p><p>Please respond as quickly and as accurately as possible!</p>","9","","8","new_stimuli/mp3/melody_v7_v6_v5_^6_v5_v4_^5_^6_v5_.mp3"
"","509","html-button-response","293","2014418","0.0-21.0-9.6","35697","","<p>Which tone was played nineth after the cadence?</p><p>Please respond as quickly and as accurately as possible!</p>","7","","9","new_stimuli/mp3/melody_v7_v6_v5_^6_v5_v4_^5_^6_v5_.mp3"
"","236595","survey-text","294","2251015","0.0-22.0","35697","{""Q0"":""Sing the root of the last chord of the cadence while the first note is playing. then do my best at remember the melody as the trials began to be more difficult. Specially the last one.""}","","","","",""
"","219314","survey-text","295","2470332","0.0-23.0","35697","{""Q0"":""It made me realize how off I am sometimes at getting intervals right. There are pitches that are easier for me to relate intervals with, and others posses more of a challenge. Maybe because I'm less used to listen or used them in the music that I make.""}","","","","",""
"","180711","survey-text","296","2651047","0.0-24.0","35697","{""Q0"":""No, I thought that was cheating in way. I would have graved my guitar. I didn't undestand that it was a possibility""}","","","","",""
"","83572","survey-text","297","2734622","0.0-25.0","35697","{""Q0"":""Through semi professional speakers""}","","","","",""
"","13111","survey-text","298","2747737","0.0-26.0","35697","{""Q0"":""Cis Male""}","","","","",""
"","15400","survey-text","299","2763139","0.0-27.0","35697","{""Q0"":""Yes""}","","","","",""
"[{""page_index"":0,""viewing_time"":5091}]","5091","instructions","300","2768233","0.0-28.0","35697","","","","","",""
