"view_history","rt","trial_type","trial_index","time_elapsed","internal_node_id","subject","responses","stimulus","button_pressed","key_press","response_sequence","melody"
"[{""page_index"":0,""viewing_time"":1684.9500000025728},{""page_index"":1,""viewing_time"":4647.7949999971315},{""page_index"":2,""viewing_time"":1802.93000000529}]","8136.494999998831","instructions","0","8138","0.0-0.0","38531","","","","","",""
"","3378.8649999987683","survey-text","1","11520","0.0-1.0","38531","{""Q0"":""39""}","","","","",""
"","9654.074999998556","survey-text","2","21175","0.0-2.0","38531","{""Q0"":""Finished Terminal Degree""}","","","","",""
"","7798.694999997679","survey-text","3","28975","0.0-3.0","38531","{""Q0"":""Moveable-Do""}","","","","",""
"","2806.7099999971106","survey-text","4","31783","0.0-4.0","38531","{""Q0"":""No""}","","","","",""
"","25166.3400000034","survey-text","5","56950","0.0-5.0","38531","{""Q0"":""Many years, impossible to count weeks""}","","","","",""
"","16959.39499999804","survey-text","6","73910","0.0-6.0","38531","{""Q0"":""8""}","","","","",""
"[{""page_index"":0,""viewing_time"":7038.010000003851},{""page_index"":1,""viewing_time"":14520.189999995637},{""page_index"":2,""viewing_time"":2367.9249999986496}]","23926.47500000021","instructions","7","97837","0.0-7.0","38531","","","","","",""
"","8077.030000000377","audio-button-response","8","105917","0.0-8.0","38531","","stimuli/long/c-do.mp3","0","","",""
"","9381.764999998268","audio-button-response","9","115301","0.0-9.0","38531","","stimuli/long/a-le.mp3","8","","",""
"[{""page_index"":0,""viewing_time"":3822.7499999993597},{""page_index"":1,""viewing_time"":13615.630000000237}]","17438.640000000305","instructions","10","132739","0.0-10.0","38531","","","","","",""
"","8070.485000003828","audio-button-response","11","140812","0.0-11.0-0.0","38531","","stimuli/long/e-fi.mp3","6","","",""
"","7166.219999999157","audio-button-response","12","147980","0.0-11.0-0.1","38531","","stimuli/long/e-do.mp3","0","","",""
"","8198.010000000068","audio-button-response","13","156179","0.0-11.0-0.2","38531","","stimuli/long/a-la.mp3","9","","",""
"","9702.529999995022","audio-button-response","14","165883","0.0-11.0-0.3","38531","","stimuli/long/e-te.mp3","5","","",""
"","7262.439999998605","audio-button-response","15","173147","0.0-11.0-0.4","38531","","stimuli/long/a-sol.mp3","7","","",""
"","10014.835000001767","audio-button-response","16","183163","0.0-11.0-0.5","38531","","stimuli/long/c-la.mp3","2","","",""
"","7598.180000000866","audio-button-response","17","190763","0.0-11.0-0.6","38531","","stimuli/long/a-do.mp3","0","","",""
"","12158.730000002834","audio-button-response","18","202923","0.0-11.0-0.7","38531","","stimuli/long/a-me.mp3","5","","",""
"","7789.974999999686","audio-button-response","19","210714","0.0-11.0-0.8","38531","","stimuli/long/a-do8.mp3","0","","",""
"","7742.5250000014785","audio-button-response","20","218458","0.0-11.0-0.9","38531","","stimuli/long/c-sol.mp3","7","","",""
"","9254.604999994626","audio-button-response","21","227714","0.0-11.0-0.10","38531","","stimuli/long/c-fa.mp3","5","","",""
"","12886.384999997972","audio-button-response","22","240603","0.0-11.0-0.11","38531","","stimuli/long/e-le.mp3","10","","",""
"","9053.870000003371","audio-button-response","23","249658","0.0-11.0-0.12","38531","","stimuli/long/e-la.mp3","9","","",""
"","7302.254999995057","audio-button-response","24","256962","0.0-11.0-0.13","38531","","stimuli/long/e-do8.mp3","0","","",""
"","9726.399999999558","audio-button-response","25","266689","0.0-11.0-0.14","38531","","stimuli/long/c-ra.mp3","8","","",""
"","7286.314999997558","audio-button-response","26","273977","0.0-11.0-0.15","38531","","stimuli/long/c-do8.mp3","0","","",""
"","7629.939999998896","audio-button-response","27","281609","0.0-11.0-0.16","38531","","stimuli/long/c-do.mp3","0","","",""
"","13694.295000001148","audio-button-response","28","295304","0.0-11.0-0.17","38531","","stimuli/long/c-mi.mp3","5","","",""
"","7798.699999999371","audio-button-response","29","303105","0.0-11.0-0.18","38531","","stimuli/long/e-ti.mp3","11","","",""
"","10669.905000002473","audio-button-response","30","313776","0.0-11.0-0.19","38531","","stimuli/long/c-le.mp3","8","","",""
"","9006.470000000263","audio-button-response","31","322784","0.0-11.0-0.20","38531","","stimuli/long/a-mi.mp3","4","","",""
"","7486.864999998943","audio-button-response","32","330272","0.0-11.0-0.21","38531","","stimuli/long/e-fa.mp3","5","","",""
"","12222.654999997758","audio-button-response","33","342496","0.0-11.0-0.22","38531","","stimuli/long/e-me.mp3","3","","",""
"","9286.605000001146","audio-button-response","34","351784","0.0-11.0-0.23","38531","","stimuli/long/a-fi.mp3","6","","",""
"","7974.294999999984","audio-button-response","35","359759","0.0-11.0-0.24","38531","","stimuli/long/a-le.mp3","8","","",""
"","12198.459999999614","audio-button-response","36","371959","0.0-11.0-0.25","38531","","stimuli/long/e-re.mp3","9","","",""
"","7814.064999998664","audio-button-response","37","379775","0.0-11.0-0.26","38531","","stimuli/long/a-ti.mp3","11","","",""
"","8190.110000003187","audio-button-response","38","387966","0.0-11.0-0.27","38531","","stimuli/long/e-sol.mp3","7","","",""
"","8070.739999995567","audio-button-response","39","396038","0.0-11.0-0.28","38531","","stimuli/long/a-re.mp3","2","","",""
"","10838.30499999749","audio-button-response","40","406878","0.0-11.0-0.29","38531","","stimuli/long/c-me.mp3","9","","",""
"","8462.614999996731","audio-button-response","41","415342","0.0-11.0-0.30","38531","","stimuli/long/a-te.mp3","3","","",""
"","7854.415000001609","audio-button-response","42","423198","0.0-11.0-0.31","38531","","stimuli/long/c-re.mp3","2","","",""
"","8622.544999998354","audio-button-response","43","431822","0.0-11.0-0.32","38531","","stimuli/long/c-fi.mp3","6","","",""
"","8022.694999999658","audio-button-response","44","439846","0.0-11.0-0.33","38531","","stimuli/long/a-ra.mp3","8","","",""
"","9253.994999999122","audio-button-response","45","449102","0.0-11.0-0.34","38531","","stimuli/long/e-mi.mp3","4","","",""
"","7718.3399999994435","audio-button-response","46","456822","0.0-11.0-0.35","38531","","stimuli/long/a-fa.mp3","5","","",""
"","7461.8849999969825","audio-button-response","47","464285","0.0-11.0-0.36","38531","","stimuli/long/e-ra.mp3","8","","",""
"","11790.754999994533","audio-button-response","48","476077","0.0-11.0-0.37","38531","","stimuli/long/c-ti.mp3","11","","",""
"[{""page_index"":0,""viewing_time"":12742.399999995541},{""page_index"":1,""viewing_time"":2288.1500000003143}]","15030.794999998761","instructions","49","491108","0.0-12.0","38531","","","","","",""
"","null","audio-keyboard-response","50","500278","0.0-13.0-0.0","38531","","new_stimuli/mp3/melody_v5_v1+_.mp3","","null","",""
"","2948.899999995774","html-button-response","51","503228","0.0-13.0-1.0","38531","","<p>Which tone was played first after the cadence?</p><p>Please respond as quickly and as accurately as possible!</p>","7","","1","new_stimuli/mp3/melody_v5_v1+_.mp3"
"","2126.7099999968195","html-button-response","52","505356","0.0-13.0-2.0","38531","","<p>Which tone was played second after the cadence?</p><p>Please respond as quickly and as accurately as possible!</p>","1","","2","new_stimuli/mp3/melody_v5_v1+_.mp3"
"","null","audio-keyboard-response","53","514424","0.0-13.0-0.1","38531","","new_stimuli/mp3/melody_v2_v1_.mp3","","null","",""
"","795.140000001993","html-button-response","54","515220","0.0-13.0-1.1","38531","","<p>Which tone was played first after the cadence?</p><p>Please respond as quickly and as accurately as possible!</p>","2","","1","new_stimuli/mp3/melody_v2_v1_.mp3"
"","478.90499999630265","html-button-response","55","515700","0.0-13.0-2.1","38531","","<p>Which tone was played second after the cadence?</p><p>Please respond as quickly and as accurately as possible!</p>","0","","2","new_stimuli/mp3/melody_v2_v1_.mp3"
"","null","audio-keyboard-response","56","524716","0.0-13.0-0.2","38531","","new_stimuli/mp3/melody_^1_^2+_.mp3","","null","",""
"","1126.4050000027055","html-button-response","57","525843","0.0-13.0-1.2","38531","","<p>Which tone was played first after the cadence?</p><p>Please respond as quickly and as accurately as possible!</p>","0","","1","new_stimuli/mp3/melody_^1_^2+_.mp3"
"","631.3050000027288","html-button-response","58","526476","0.0-13.0-2.2","38531","","<p>Which tone was played second after the cadence?</p><p>Please respond as quickly and as accurately as possible!</p>","3","","2","new_stimuli/mp3/melody_^1_^2+_.mp3"
"","null","audio-keyboard-response","59","535908","0.0-13.0-0.3","38531","","new_stimuli/mp3/melody_v4_v3_buffer.mp3","","null","",""
"","734.8399999974063","html-button-response","60","536644","0.0-13.0-1.3","38531","","<p>Which tone was played first after the cadence?</p><p>Please respond as quickly and as accurately as possible!</p>","5","","1","new_stimuli/mp3/melody_v4_v3_buffer.mp3"
"","430.39999999757856","html-button-response","61","537075","0.0-13.0-2.3","38531","","<p>Which tone was played second after the cadence?</p><p>Please respond as quickly and as accurately as possible!</p>","4","","2","new_stimuli/mp3/melody_v4_v3_buffer.mp3"
"","null","audio-keyboard-response","62","546269","0.0-13.0-0.4","38531","","new_stimuli/mp3/melody_v3_v2_buffer.mp3","","null","",""
"","852.8900000018766","html-button-response","63","547123","0.0-13.0-1.4","38531","","<p>Which tone was played first after the cadence?</p><p>Please respond as quickly and as accurately as possible!</p>","4","","1","new_stimuli/mp3/melody_v3_v2_buffer.mp3"
"","590.9600000013597","html-button-response","64","547716","0.0-13.0-2.4","38531","","<p>Which tone was played second after the cadence?</p><p>Please respond as quickly and as accurately as possible!</p>","2","","2","new_stimuli/mp3/melody_v3_v2_buffer.mp3"
"","null","audio-keyboard-response","65","556886","0.0-13.0-0.5","38531","","new_stimuli/mp3/melody_^5_^1+_.mp3","","null","",""
"","1147.7449999947567","html-button-response","66","558036","0.0-13.0-1.5","38531","","<p>Which tone was played first after the cadence?</p><p>Please respond as quickly and as accurately as possible!</p>","7","","1","new_stimuli/mp3/melody_^5_^1+_.mp3"
"","1007.1049999969546","html-button-response","67","559044","0.0-13.0-2.5","38531","","<p>Which tone was played second after the cadence?</p><p>Please respond as quickly and as accurately as possible!</p>","1","","2","new_stimuli/mp3/melody_^5_^1+_.mp3"
"","null","audio-keyboard-response","68","568212","0.0-13.0-0.6","38531","","new_stimuli/mp3/melody_^2_v7-_.mp3","","null","",""
"","1853.6299999977928","html-button-response","69","570067","0.0-13.0-1.6","38531","","<p>Which tone was played first after the cadence?</p><p>Please respond as quickly and as accurately as possible!</p>","2","","1","new_stimuli/mp3/melody_^2_v7-_.mp3"
"","10167.324999994831","html-button-response","70","580235","0.0-13.0-2.6","38531","","<p>Which tone was played second after the cadence?</p><p>Please respond as quickly and as accurately as possible!</p>","5","","2","new_stimuli/mp3/melody_^2_v7-_.mp3"
"","null","audio-keyboard-response","71","589690","0.0-13.0-0.7","38531","","new_stimuli/mp3/melody_v7_v3_buffer.mp3","","null","",""
"","2041.2500000020955","html-button-response","72","591732","0.0-13.0-1.7","38531","","<p>Which tone was played first after the cadence?</p><p>Please respond as quickly and as accurately as possible!</p>","7","","1","new_stimuli/mp3/melody_v7_v3_buffer.mp3"
"","924.6099999946309","html-button-response","73","592658","0.0-13.0-2.7","38531","","<p>Which tone was played second after the cadence?</p><p>Please respond as quickly and as accurately as possible!</p>","0","","2","new_stimuli/mp3/melody_v7_v3_buffer.mp3"
"","null","audio-keyboard-response","74","602112","0.0-13.0-0.8","38531","","new_stimuli/mp3/melody_^3_v4+_buffer.mp3","","null","",""
"","816.95500000217","html-button-response","75","602931","0.0-13.0-1.8","38531","","<p>Which tone was played first after the cadence?</p><p>Please respond as quickly and as accurately as possible!</p>","3","","1","new_stimuli/mp3/melody_^3_v4+_buffer.mp3"
"","2238.3249999985565","html-button-response","76","605170","0.0-13.0-2.8","38531","","<p>Which tone was played second after the cadence?</p><p>Please respond as quickly and as accurately as possible!</p>","6","","2","new_stimuli/mp3/melody_^3_v4+_buffer.mp3"
"","null","audio-keyboard-response","77","614465","0.0-13.0-0.9","38531","","new_stimuli/mp3/melody_3_^6_buffer.mp3","","null","",""
"","2408.0600000015693","html-button-response","78","616874","0.0-13.0-1.9","38531","","<p>Which tone was played first after the cadence?</p><p>Please respond as quickly and as accurately as possible!</p>","2","","1","new_stimuli/mp3/melody_3_^6_buffer.mp3"
"","2061.5350000008475","html-button-response","79","618938","0.0-13.0-2.9","38531","","<p>Which tone was played second after the cadence?</p><p>Please respond as quickly and as accurately as possible!</p>","9","","2","new_stimuli/mp3/melody_3_^6_buffer.mp3"
"[{""page_index"":0,""viewing_time"":3398.769999999786},{""page_index"":1,""viewing_time"":1648.3299999963492},{""page_index"":2,""viewing_time"":2191.585000000545}]","7238.904999998282","instructions","80","626177","0.0-14.0","38531","","","","","",""
"","null","audio-keyboard-response","81","636152","0.0-15.0-0.0","38531","","new_stimuli/mp3/melody_v2_v5_^3_buffer.mp3","","null","",""
"","1496.950000000652","html-button-response","82","637649","0.0-15.0-1.0","38531","","<p>Which tone was played first after the cadence?</p><p>Please respond as quickly and as accurately as possible!</p>","2","","1","new_stimuli/mp3/melody_v2_v5_^3_buffer.mp3"
"","7086.439999999129","html-button-response","83","644732","0.0-15.0-2.0","38531","","<p>Which tone was played second after the cadence?</p><p>Please respond as quickly and as accurately as possible!</p>","7","","2","new_stimuli/mp3/melody_v2_v5_^3_buffer.mp3"
"","974.5350000013132","html-button-response","84","645707","0.0-15.0-3.0","38531","","<p>Which tone was played third after the cadence?</p><p>Please respond as quickly and as accurately as possible!</p>","4","","3","new_stimuli/mp3/melody_v2_v5_^3_buffer.mp3"
"","null","audio-keyboard-response","85","655292","0.0-15.0-0.1","38531","","new_stimuli/mp3/melody_v1_v7-_7-_buffer.mp3","","null","",""
"","8441.59500000393","html-button-response","86","663732","0.0-15.0-1.1","38531","","<p>Which tone was played first after the cadence?</p><p>Please respond as quickly and as accurately as possible!</p>","7","","1","new_stimuli/mp3/melody_v1_v7-_7-_buffer.mp3"
"","710.9500000005355","html-button-response","87","664444","0.0-15.0-2.1","38531","","<p>Which tone was played second after the cadence?</p><p>Please respond as quickly and as accurately as possible!</p>","5","","2","new_stimuli/mp3/melody_v1_v7-_7-_buffer.mp3"
"","414.7400000002235","html-button-response","88","664860","0.0-15.0-3.1","38531","","<p>Which tone was played third after the cadence?</p><p>Please respond as quickly and as accurately as possible!</p>","5","","3","new_stimuli/mp3/melody_v1_v7-_7-_buffer.mp3"
"","null","audio-keyboard-response","89","674415","0.0-15.0-0.2","38531","","new_stimuli/mp3/melody_v3_v2_v1_.mp3","","null","",""
"","1026.5849999996135","html-button-response","90","675443","0.0-15.0-1.2","38531","","<p>Which tone was played first after the cadence?</p><p>Please respond as quickly and as accurately as possible!</p>","4","","1","new_stimuli/mp3/melody_v3_v2_v1_.mp3"
"","630.7749999978114","html-button-response","91","676075","0.0-15.0-2.2","38531","","<p>Which tone was played second after the cadence?</p><p>Please respond as quickly and as accurately as possible!</p>","2","","2","new_stimuli/mp3/melody_v3_v2_v1_.mp3"
"","558.0349999945611","html-button-response","92","676634","0.0-15.0-3.2","38531","","<p>Which tone was played third after the cadence?</p><p>Please respond as quickly and as accurately as possible!</p>","0","","3","new_stimuli/mp3/melody_v3_v2_v1_.mp3"
"","null","audio-keyboard-response","93","686326","0.0-15.0-0.3","38531","","new_stimuli/mp3/melody_v4_v3_v2_buffer.mp3","","null","",""
"","978.5199999969918","html-button-response","94","687306","0.0-15.0-1.3","38531","","<p>Which tone was played first after the cadence?</p><p>Please respond as quickly and as accurately as possible!</p>","5","","1","new_stimuli/mp3/melody_v4_v3_v2_buffer.mp3"
"","454.2349999973085","html-button-response","95","687761","0.0-15.0-2.3","38531","","<p>Which tone was played second after the cadence?</p><p>Please respond as quickly and as accurately as possible!</p>","4","","2","new_stimuli/mp3/melody_v4_v3_v2_buffer.mp3"
"","711.2100000012433","html-button-response","96","688474","0.0-15.0-3.3","38531","","<p>Which tone was played third after the cadence?</p><p>Please respond as quickly and as accurately as possible!</p>","2","","3","new_stimuli/mp3/melody_v4_v3_v2_buffer.mp3"
"","null","audio-keyboard-response","97","697982","0.0-15.0-0.4","38531","","new_stimuli/mp3/melody_1_v1+_^2_.mp3","","null","",""
"","873.8850000009406","html-button-response","98","698857","0.0-15.0-1.4","38531","","<p>Which tone was played first after the cadence?</p><p>Please respond as quickly and as accurately as possible!</p>","0","","1","new_stimuli/mp3/melody_1_v1+_^2_.mp3"
"","454.69999999471474","html-button-response","99","699313","0.0-15.0-2.4","38531","","<p>Which tone was played second after the cadence?</p><p>Please respond as quickly and as accurately as possible!</p>","1","","2","new_stimuli/mp3/melody_1_v1+_^2_.mp3"
"","670.4000000027008","html-button-response","100","699985","0.0-15.0-3.4","38531","","<p>Which tone was played third after the cadence?</p><p>Please respond as quickly and as accurately as possible!</p>","2","","3","new_stimuli/mp3/melody_1_v1+_^2_.mp3"
"","null","audio-keyboard-response","101","709887","0.0-15.0-0.5","38531","","new_stimuli/mp3/melody_^1_v6_v5+_.mp3","","null","",""
"","880.505000000936","html-button-response","102","710769","0.0-15.0-1.5","38531","","<p>Which tone was played first after the cadence?</p><p>Please respond as quickly and as accurately as possible!</p>","12","","1","new_stimuli/mp3/melody_^1_v6_v5+_.mp3"
"","670.0999999957858","html-button-response","103","711440","0.0-15.0-2.5","38531","","<p>Which tone was played second after the cadence?</p><p>Please respond as quickly and as accurately as possible!</p>","9","","2","new_stimuli/mp3/melody_^1_v6_v5+_.mp3"
"","438.2949999999255","html-button-response","104","711880","0.0-15.0-3.5","38531","","<p>Which tone was played third after the cadence?</p><p>Please respond as quickly and as accurately as possible!</p>","8","","3","new_stimuli/mp3/melody_^1_v6_v5+_.mp3"
"","null","audio-keyboard-response","105","721439","0.0-15.0-0.6","38531","","new_stimuli/mp3/melody_v1_v7-_^7_.mp3","","null","",""
"","992.1200000025565","html-button-response","106","722432","0.0-15.0-1.6","38531","","<p>Which tone was played first after the cadence?</p><p>Please respond as quickly and as accurately as possible!</p>","12","","1","new_stimuli/mp3/melody_v1_v7-_^7_.mp3"
"","574.3650000003399","html-button-response","107","723008","0.0-15.0-2.6","38531","","<p>Which tone was played second after the cadence?</p><p>Please respond as quickly and as accurately as possible!</p>","10","","2","new_stimuli/mp3/melody_v1_v7-_^7_.mp3"
"","663.459999996121","html-button-response","108","723672","0.0-15.0-3.6","38531","","<p>Which tone was played third after the cadence?</p><p>Please respond as quickly and as accurately as possible!</p>","11","","3","new_stimuli/mp3/melody_v1_v7-_^7_.mp3"
"","null","audio-keyboard-response","109","733623","0.0-15.0-0.7","38531","","new_stimuli/mp3/melody_v5_v4_v3_buffer.mp3","","null","",""
"","919.3450000020675","html-button-response","110","734544","0.0-15.0-1.7","38531","","<p>Which tone was played first after the cadence?</p><p>Please respond as quickly and as accurately as possible!</p>","7","","1","new_stimuli/mp3/melody_v5_v4_v3_buffer.mp3"
"","551.2650000018766","html-button-response","111","735096","0.0-15.0-2.7","38531","","<p>Which tone was played second after the cadence?</p><p>Please respond as quickly and as accurately as possible!</p>","5","","2","new_stimuli/mp3/melody_v5_v4_v3_buffer.mp3"
"","366.9350000055274","html-button-response","112","735464","0.0-15.0-3.7","38531","","<p>Which tone was played third after the cadence?</p><p>Please respond as quickly and as accurately as possible!</p>","4","","3","new_stimuli/mp3/melody_v5_v4_v3_buffer.mp3"
"","null","audio-keyboard-response","113","745105","0.0-15.0-0.8","38531","","new_stimuli/mp3/melody_6_^1_v5_.mp3","","null","",""
"","2468.6950000032084","html-button-response","114","747575","0.0-15.0-1.8","38531","","<p>Which tone was played first after the cadence?</p><p>Please respond as quickly and as accurately as possible!</p>","9","","1","new_stimuli/mp3/melody_6_^1_v5_.mp3"
"","727.3400000048568","html-button-response","115","748304","0.0-15.0-2.8","38531","","<p>Which tone was played second after the cadence?</p><p>Please respond as quickly and as accurately as possible!</p>","12","","2","new_stimuli/mp3/melody_6_^1_v5_.mp3"
"","4678.520000001299","html-button-response","116","752983","0.0-15.0-3.8","38531","","<p>Which tone was played third after the cadence?</p><p>Please respond as quickly and as accurately as possible!</p>","7","","3","new_stimuli/mp3/melody_6_^1_v5_.mp3"
"[{""page_index"":0,""viewing_time"":2087.2499999967404},{""page_index"":1,""viewing_time"":1951.8949999983888},{""page_index"":2,""viewing_time"":1496.2100000048522}]","5535.629999998491","instructions","117","758519","0.0-16.0","38531","","","","","",""
"","null","audio-keyboard-response","118","769154","0.0-17.0-0.0","38531","","new_stimuli/mp3/melody_^6_v4_v3_^4_^5_.mp3","","null","",""
"","1043.3350000020582","html-button-response","119","770199","0.0-17.0-1.0","38531","","<p>Which tone was played first after the cadence?</p><p>Please respond as quickly and as accurately as possible!</p>","9","","1","new_stimuli/mp3/melody_^6_v4_v3_^4_^5_.mp3"
"","1062.0850000049686","html-button-response","120","771262","0.0-17.0-2.0","38531","","<p>Which tone was played second after the cadence?</p><p>Please respond as quickly and as accurately as possible!</p>","7","","2","new_stimuli/mp3/melody_^6_v4_v3_^4_^5_.mp3"
"","830.9099999968894","html-button-response","121","772094","0.0-17.0-3.0","38531","","<p>Which tone was played third after the cadence?</p><p>Please respond as quickly and as accurately as possible!</p>","5","","3","new_stimuli/mp3/melody_^6_v4_v3_^4_^5_.mp3"
"","6830.775000002235","html-button-response","122","778926","0.0-17.0-4.0","38531","","<p>Which tone was played fourth after the cadence?</p><p>Please respond as quickly and as accurately as possible!</p>","5","","4","new_stimuli/mp3/melody_^6_v4_v3_^4_^5_.mp3"
"","734.7050000025192","html-button-response","123","779662","0.0-17.0-5.0","38531","","<p>Which tone was played fifth after the cadence?</p><p>Please respond as quickly and as accurately as possible!</p>","7","","5","new_stimuli/mp3/melody_^6_v4_v3_^4_^5_.mp3"
"","null","audio-keyboard-response","124","790243","0.0-17.0-0.1","38531","","new_stimuli/mp3/melody_v5_v4_v3_v2_v1 _buffer.mp3","","null","",""
"","841.629999995348","html-button-response","125","791086","0.0-17.0-1.1","38531","","<p>Which tone was played first after the cadence?</p><p>Please respond as quickly and as accurately as possible!</p>","7","","1","new_stimuli/mp3/melody_v5_v4_v3_v2_v1 _buffer.mp3"
"","614.7049999999581","html-button-response","126","791702","0.0-17.0-2.1","38531","","<p>Which tone was played second after the cadence?</p><p>Please respond as quickly and as accurately as possible!</p>","5","","2","new_stimuli/mp3/melody_v5_v4_v3_v2_v1 _buffer.mp3"
"","486.4750000052154","html-button-response","127","792189","0.0-17.0-3.1","38531","","<p>Which tone was played third after the cadence?</p><p>Please respond as quickly and as accurately as possible!</p>","4","","3","new_stimuli/mp3/melody_v5_v4_v3_v2_v1 _buffer.mp3"
"","559.8450000034645","html-button-response","128","792750","0.0-17.0-4.1","38531","","<p>Which tone was played fourth after the cadence?</p><p>Please respond as quickly and as accurately as possible!</p>","2","","4","new_stimuli/mp3/melody_v5_v4_v3_v2_v1 _buffer.mp3"
"","526.4150000002701","html-button-response","129","793278","0.0-17.0-5.1","38531","","<p>Which tone was played fifth after the cadence?</p><p>Please respond as quickly and as accurately as possible!</p>","0","","5","new_stimuli/mp3/melody_v5_v4_v3_v2_v1 _buffer.mp3"
"","null","audio-keyboard-response","130","803855","0.0-17.0-0.2","38531","","new_stimuli/mp3/melody_v2_2_^3_^4_v2_.mp3","","null","",""
"","900.6800000062212","html-button-response","131","804757","0.0-17.0-1.2","38531","","<p>Which tone was played first after the cadence?</p><p>Please respond as quickly and as accurately as possible!</p>","2","","1","new_stimuli/mp3/melody_v2_2_^3_^4_v2_.mp3"
"","519.6350000042003","html-button-response","132","805278","0.0-17.0-2.2","38531","","<p>Which tone was played second after the cadence?</p><p>Please respond as quickly and as accurately as possible!</p>","2","","2","new_stimuli/mp3/melody_v2_2_^3_^4_v2_.mp3"
"","1694.15000000305","html-button-response","133","806973","0.0-17.0-3.2","38531","","<p>Which tone was played third after the cadence?</p><p>Please respond as quickly and as accurately as possible!</p>","4","","3","new_stimuli/mp3/melody_v2_2_^3_^4_v2_.mp3"
"","1022.609999999986","html-button-response","134","807997","0.0-17.0-4.2","38531","","<p>Which tone was played fourth after the cadence?</p><p>Please respond as quickly and as accurately as possible!</p>","5","","4","new_stimuli/mp3/melody_v2_2_^3_^4_v2_.mp3"
"","1206.7649999953574","html-button-response","135","809205","0.0-17.0-5.2","38531","","<p>Which tone was played fifth after the cadence?</p><p>Please respond as quickly and as accurately as possible!</p>","2","","5","new_stimuli/mp3/melody_v2_2_^3_^4_v2_.mp3"
"","null","audio-keyboard-response","136","819784","0.0-17.0-0.3","38531","","new_stimuli/mp3/melody_v5_v4_v3_v2_v1_.mp3","","null","",""
"","923.5800000024028","html-button-response","137","820708","0.0-17.0-1.3","38531","","<p>Which tone was played first after the cadence?</p><p>Please respond as quickly and as accurately as possible!</p>","7","","1","new_stimuli/mp3/melody_v5_v4_v3_v2_v1_.mp3"
"","537.465000001248","html-button-response","138","821247","0.0-17.0-2.3","38531","","<p>Which tone was played second after the cadence?</p><p>Please respond as quickly and as accurately as possible!</p>","5","","2","new_stimuli/mp3/melody_v5_v4_v3_v2_v1_.mp3"
"","452.5050000011688","html-button-response","139","821700","0.0-17.0-3.3","38531","","<p>Which tone was played third after the cadence?</p><p>Please respond as quickly and as accurately as possible!</p>","4","","3","new_stimuli/mp3/melody_v5_v4_v3_v2_v1_.mp3"
"","631.5000000031432","html-button-response","140","822333","0.0-17.0-4.3","38531","","<p>Which tone was played fourth after the cadence?</p><p>Please respond as quickly and as accurately as possible!</p>","2","","4","new_stimuli/mp3/melody_v5_v4_v3_v2_v1_.mp3"
"","550.7999999972526","html-button-response","141","822885","0.0-17.0-5.3","38531","","<p>Which tone was played fifth after the cadence?</p><p>Please respond as quickly and as accurately as possible!</p>","0","","5","new_stimuli/mp3/melody_v5_v4_v3_v2_v1_.mp3"
"","null","audio-keyboard-response","142","833831","0.0-17.0-0.4","38531","","new_stimuli/mp3/melody_v5-_v3_3_^4+_v3_.mp3","","null","",""
"","7250.855000005686","html-button-response","143","841084","0.0-17.0-1.4","38531","","<p>Which tone was played first after the cadence?</p><p>Please respond as quickly and as accurately as possible!</p>","6","","1","new_stimuli/mp3/melody_v5-_v3_3_^4+_v3_.mp3"
"","598.9449999979697","html-button-response","144","841685","0.0-17.0-2.4","38531","","<p>Which tone was played second after the cadence?</p><p>Please respond as quickly and as accurately as possible!</p>","4","","2","new_stimuli/mp3/melody_v5-_v3_3_^4+_v3_.mp3"
"","430.325000001234","html-button-response","145","842116","0.0-17.0-3.4","38531","","<p>Which tone was played third after the cadence?</p><p>Please respond as quickly and as accurately as possible!</p>","4","","3","new_stimuli/mp3/melody_v5-_v3_3_^4+_v3_.mp3"
"","519.1249999989523","html-button-response","146","842636","0.0-17.0-4.4","38531","","<p>Which tone was played fourth after the cadence?</p><p>Please respond as quickly and as accurately as possible!</p>","6","","4","new_stimuli/mp3/melody_v5-_v3_3_^4+_v3_.mp3"
"","558.3100000004051","html-button-response","147","843196","0.0-17.0-5.4","38531","","<p>Which tone was played fifth after the cadence?</p><p>Please respond as quickly and as accurately as possible!</p>","4","","5","new_stimuli/mp3/melody_v5-_v3_3_^4+_v3_.mp3"
"","null","audio-keyboard-response","148","853829","0.0-17.0-0.5","38531","","new_stimuli/mp3/melody_v5_^6+_^7_^1_5_.mp3","","null","",""
"","974.0149999997811","html-button-response","149","854804","0.0-17.0-1.5","38531","","<p>Which tone was played first after the cadence?</p><p>Please respond as quickly and as accurately as possible!</p>","7","","1","new_stimuli/mp3/melody_v5_^6+_^7_^1_5_.mp3"
"","718.7200000043958","html-button-response","150","855524","0.0-17.0-2.5","38531","","<p>Which tone was played second after the cadence?</p><p>Please respond as quickly and as accurately as possible!</p>","9","","2","new_stimuli/mp3/melody_v5_^6+_^7_^1_5_.mp3"
"","622.350000005099","html-button-response","151","856148","0.0-17.0-3.5","38531","","<p>Which tone was played third after the cadence?</p><p>Please respond as quickly and as accurately as possible!</p>","11","","3","new_stimuli/mp3/melody_v5_^6+_^7_^1_5_.mp3"
"","590.6949999990175","html-button-response","152","856740","0.0-17.0-4.5","38531","","<p>Which tone was played fourth after the cadence?</p><p>Please respond as quickly and as accurately as possible!</p>","12","","4","new_stimuli/mp3/melody_v5_^6+_^7_^1_5_.mp3"
"","735.030000003404","html-button-response","153","857476","0.0-17.0-5.5","38531","","<p>Which tone was played fifth after the cadence?</p><p>Please respond as quickly and as accurately as possible!</p>","7","","5","new_stimuli/mp3/melody_v5_^6+_^7_^1_5_.mp3"
"","null","audio-keyboard-response","154","868184","0.0-17.0-0.6","38531","","new_stimuli/mp3/melody_^6_v5_v4_v3_v2_buffer.mp3","","null","",""
"","1097.9749999968335","html-button-response","155","869284","0.0-17.0-1.6","38531","","<p>Which tone was played first after the cadence?</p><p>Please respond as quickly and as accurately as possible!</p>","9","","1","new_stimuli/mp3/melody_^6_v5_v4_v3_v2_buffer.mp3"
"","550.0400000018999","html-button-response","156","869835","0.0-17.0-2.6","38531","","<p>Which tone was played second after the cadence?</p><p>Please respond as quickly and as accurately as possible!</p>","7","","2","new_stimuli/mp3/melody_^6_v5_v4_v3_v2_buffer.mp3"
"","775.3549999978859","html-button-response","157","870612","0.0-17.0-3.6","38531","","<p>Which tone was played third after the cadence?</p><p>Please respond as quickly and as accurately as possible!</p>","5","","3","new_stimuli/mp3/melody_^6_v5_v4_v3_v2_buffer.mp3"
"","406.6050000038231","html-button-response","158","871019","0.0-17.0-4.6","38531","","<p>Which tone was played fourth after the cadence?</p><p>Please respond as quickly and as accurately as possible!</p>","4","","4","new_stimuli/mp3/melody_^6_v5_v4_v3_v2_buffer.mp3"
"","647.2100000027567","html-button-response","159","871668","0.0-17.0-5.6","38531","","<p>Which tone was played fifth after the cadence?</p><p>Please respond as quickly and as accurately as possible!</p>","2","","5","new_stimuli/mp3/melody_^6_v5_v4_v3_v2_buffer.mp3"
"","null","audio-keyboard-response","160","882615","0.0-17.0-0.7","38531","","new_stimuli/mp3/melody_^5_^6_v5_v4_v3_buffer.mp3","","null","",""
"","802.6500000051456","html-button-response","161","883419","0.0-17.0-1.7","38531","","<p>Which tone was played first after the cadence?</p><p>Please respond as quickly and as accurately as possible!</p>","7","","1","new_stimuli/mp3/melody_^5_^6_v5_v4_v3_buffer.mp3"
"","598.9599999957718","html-button-response","162","884019","0.0-17.0-2.7","38531","","<p>Which tone was played second after the cadence?</p><p>Please respond as quickly and as accurately as possible!</p>","9","","2","new_stimuli/mp3/melody_^5_^6_v5_v4_v3_buffer.mp3"
"","591.0650000005262","html-button-response","163","884611","0.0-17.0-3.7","38531","","<p>Which tone was played third after the cadence?</p><p>Please respond as quickly and as accurately as possible!</p>","7","","3","new_stimuli/mp3/melody_^5_^6_v5_v4_v3_buffer.mp3"
"","518.3400000022957","html-button-response","164","885131","0.0-17.0-4.7","38531","","<p>Which tone was played fourth after the cadence?</p><p>Please respond as quickly and as accurately as possible!</p>","5","","4","new_stimuli/mp3/melody_^5_^6_v5_v4_v3_buffer.mp3"
"","415.15500000247266","html-button-response","165","885547","0.0-17.0-5.7","38531","","<p>Which tone was played fifth after the cadence?</p><p>Please respond as quickly and as accurately as possible!</p>","4","","5","new_stimuli/mp3/melody_^5_^6_v5_v4_v3_buffer.mp3"
"[{""page_index"":0,""viewing_time"":2102.6550000024727},{""page_index"":1,""viewing_time"":1168.3899999988498},{""page_index"":2,""viewing_time"":863.5399999985239}]","4134.8100000033155","instructions","166","889682","0.0-18.0","38531","","","","","",""
"","null","audio-keyboard-response","167","901643","0.0-19.0-0.0","38531","","new_stimuli/mp3/melody_1_^3_v1_^5_v3_v2_^3_.mp3","","null","",""
"","934.3749999970896","html-button-response","168","902579","0.0-19.0-1.0","38531","","<p>Which tone was played first after the cadence?</p><p>Please respond as quickly and as accurately as possible!</p>","0","","1","new_stimuli/mp3/melody_1_^3_v1_^5_v3_v2_^3_.mp3"
"","1102.2799999990966","html-button-response","169","903682","0.0-19.0-2.0","38531","","<p>Which tone was played second after the cadence?</p><p>Please respond as quickly and as accurately as possible!</p>","4","","2","new_stimuli/mp3/melody_1_^3_v1_^5_v3_v2_^3_.mp3"
"","951.0250000021188","html-button-response","170","904634","0.0-19.0-3.0","38531","","<p>Which tone was played third after the cadence?</p><p>Please respond as quickly and as accurately as possible!</p>","0","","3","new_stimuli/mp3/melody_1_^3_v1_^5_v3_v2_^3_.mp3"
"","1367.4099999988684","html-button-response","171","906003","0.0-19.0-4.0","38531","","<p>Which tone was played fourth after the cadence?</p><p>Please respond as quickly and as accurately as possible!</p>","4","","4","new_stimuli/mp3/melody_1_^3_v1_^5_v3_v2_^3_.mp3"
"","6134.660000003292","html-button-response","172","912138","0.0-19.0-5.0","38531","","<p>Which tone was played fifth after the cadence?</p><p>Please respond as quickly and as accurately as possible!</p>","5","","5","new_stimuli/mp3/melody_1_^3_v1_^5_v3_v2_^3_.mp3"
"","486.42000000108965","html-button-response","173","912626","0.0-19.0-6.0","38531","","<p>Which tone was played sixth after the cadence?</p><p>Please respond as quickly and as accurately as possible!</p>","4","","6","new_stimuli/mp3/melody_1_^3_v1_^5_v3_v2_^3_.mp3"
"","494.2049999954179","html-button-response","174","913122","0.0-19.0-7.0","38531","","<p>Which tone was played seventh after the cadence?</p><p>Please respond as quickly and as accurately as possible!</p>","5","","7","new_stimuli/mp3/melody_1_^3_v1_^5_v3_v2_^3_.mp3"
"","null","audio-keyboard-response","175","924822","0.0-19.0-0.1","38531","","new_stimuli/mp3/melody_v1_^2_v1_v7_^1_^3_v2_.mp3","","null","",""
"","1034.7200000032317","html-button-response","176","925858","0.0-19.0-1.1","38531","","<p>Which tone was played first after the cadence?</p><p>Please respond as quickly and as accurately as possible!</p>","0","","1","new_stimuli/mp3/melody_v1_^2_v1_v7_^1_^3_v2_.mp3"
"","774.8499999943888","html-button-response","177","926634","0.0-19.0-2.1","38531","","<p>Which tone was played second after the cadence?</p><p>Please respond as quickly and as accurately as possible!</p>","2","","2","new_stimuli/mp3/melody_v1_^2_v1_v7_^1_^3_v2_.mp3"
"","734.8350000029895","html-button-response","178","927370","0.0-19.0-3.1","38531","","<p>Which tone was played third after the cadence?</p><p>Please respond as quickly and as accurately as possible!</p>","0","","3","new_stimuli/mp3/melody_v1_^2_v1_v7_^1_^3_v2_.mp3"
"","1086.2849999975879","html-button-response","179","928457","0.0-19.0-4.1","38531","","<p>Which tone was played fourth after the cadence?</p><p>Please respond as quickly and as accurately as possible!</p>","11","","4","new_stimuli/mp3/melody_v1_^2_v1_v7_^1_^3_v2_.mp3"
"","903.4749999991618","html-button-response","180","929362","0.0-19.0-5.1","38531","","<p>Which tone was played fifth after the cadence?</p><p>Please respond as quickly and as accurately as possible!</p>","12","","5","new_stimuli/mp3/melody_v1_^2_v1_v7_^1_^3_v2_.mp3"
"","4253.664999996545","html-button-response","181","933617","0.0-19.0-6.1","38531","","<p>Which tone was played sixth after the cadence?</p><p>Please respond as quickly and as accurately as possible!</p>","4","","6","new_stimuli/mp3/melody_v1_^2_v1_v7_^1_^3_v2_.mp3"
"","566.7700000049081","html-button-response","182","934185","0.0-19.0-7.1","38531","","<p>Which tone was played seventh after the cadence?</p><p>Please respond as quickly and as accurately as possible!</p>","2","","7","new_stimuli/mp3/melody_v1_^2_v1_v7_^1_^3_v2_.mp3"
"","null","audio-keyboard-response","183","945759","0.0-19.0-0.2","38531","","new_stimuli/mp3/melody_^5_^6_v5_v4_v3_v2_v1_buffer.mp3","","null","",""
"","791.8549999957904","html-button-response","184","946553","0.0-19.0-1.2","38531","","<p>Which tone was played first after the cadence?</p><p>Please respond as quickly and as accurately as possible!</p>","7","","1","new_stimuli/mp3/melody_^5_^6_v5_v4_v3_v2_v1_buffer.mp3"
"","639.2750000014203","html-button-response","185","947193","0.0-19.0-2.2","38531","","<p>Which tone was played second after the cadence?</p><p>Please respond as quickly and as accurately as possible!</p>","9","","2","new_stimuli/mp3/melody_^5_^6_v5_v4_v3_v2_v1_buffer.mp3"
"","550.8300000000745","html-button-response","186","947745","0.0-19.0-3.2","38531","","<p>Which tone was played third after the cadence?</p><p>Please respond as quickly and as accurately as possible!</p>","7","","3","new_stimuli/mp3/melody_^5_^6_v5_v4_v3_v2_v1_buffer.mp3"
"","670.5149999980349","html-button-response","187","948417","0.0-19.0-4.2","38531","","<p>Which tone was played fourth after the cadence?</p><p>Please respond as quickly and as accurately as possible!</p>","5","","4","new_stimuli/mp3/melody_^5_^6_v5_v4_v3_v2_v1_buffer.mp3"
"","511.11500000115484","html-button-response","188","948929","0.0-19.0-5.2","38531","","<p>Which tone was played fifth after the cadence?</p><p>Please respond as quickly and as accurately as possible!</p>","4","","5","new_stimuli/mp3/melody_^5_^6_v5_v4_v3_v2_v1_buffer.mp3"
"","534.2949999975972","html-button-response","189","949465","0.0-19.0-6.2","38531","","<p>Which tone was played sixth after the cadence?</p><p>Please respond as quickly and as accurately as possible!</p>","2","","6","new_stimuli/mp3/melody_^5_^6_v5_v4_v3_v2_v1_buffer.mp3"
"","1071.4650000007823","html-button-response","190","950537","0.0-19.0-7.2","38531","","<p>Which tone was played seventh after the cadence?</p><p>Please respond as quickly and as accurately as possible!</p>","0","","7","new_stimuli/mp3/melody_^5_^6_v5_v4_v3_v2_v1_buffer.mp3"
"","null","audio-keyboard-response","191","962216","0.0-19.0-0.3","38531","","new_stimuli/mp3/melody_^4_v6-_v5-_^6-_^4_v2-_2-_.mp3","","null","",""
"","4430.869999996503","html-button-response","192","966648","0.0-19.0-1.3","38531","","<p>Which tone was played first after the cadence?</p><p>Please respond as quickly and as accurately as possible!</p>","1","","1","new_stimuli/mp3/melody_^4_v6-_v5-_^6-_^4_v2-_2-_.mp3"
"","2126.9150000007357","html-button-response","193","968777","0.0-19.0-2.3","38531","","<p>Which tone was played second after the cadence?</p><p>Please respond as quickly and as accurately as possible!</p>","9","","2","new_stimuli/mp3/melody_^4_v6-_v5-_^6-_^4_v2-_2-_.mp3"
"","414.2950000023702","html-button-response","194","969193","0.0-19.0-3.3","38531","","<p>Which tone was played third after the cadence?</p><p>Please respond as quickly and as accurately as possible!</p>","8","","3","new_stimuli/mp3/melody_^4_v6-_v5-_^6-_^4_v2-_2-_.mp3"
"","518.3599999945145","html-button-response","195","969712","0.0-19.0-4.3","38531","","<p>Which tone was played fourth after the cadence?</p><p>Please respond as quickly and as accurately as possible!</p>","9","","4","new_stimuli/mp3/melody_^4_v6-_v5-_^6-_^4_v2-_2-_.mp3"
"","942.835000001709","html-button-response","196","970657","0.0-19.0-5.3","38531","","<p>Which tone was played fifth after the cadence?</p><p>Please respond as quickly and as accurately as possible!</p>","3","","5","new_stimuli/mp3/melody_^4_v6-_v5-_^6-_^4_v2-_2-_.mp3"
"","1758.5350000008475","html-button-response","197","972416","0.0-19.0-6.3","38531","","<p>Which tone was played sixth after the cadence?</p><p>Please respond as quickly and as accurately as possible!</p>","1","","6","new_stimuli/mp3/melody_^4_v6-_v5-_^6-_^4_v2-_2-_.mp3"
"","318.7350000006845","html-button-response","198","972736","0.0-19.0-7.3","38531","","<p>Which tone was played seventh after the cadence?</p><p>Please respond as quickly and as accurately as possible!</p>","1","","7","new_stimuli/mp3/melody_^4_v6-_v5-_^6-_^4_v2-_2-_.mp3"
"","null","audio-keyboard-response","199","984437","0.0-19.0-0.4","38531","","new_stimuli/mp3/melody_^4_^5_^6_v5_v4_v3_v2_.mp3","","null","",""
"","905.4149999937508","html-button-response","200","985344","0.0-19.0-1.4","38531","","<p>Which tone was played first after the cadence?</p><p>Please respond as quickly and as accurately as possible!</p>","5","","1","new_stimuli/mp3/melody_^4_^5_^6_v5_v4_v3_v2_.mp3"
"","583.224999994738","html-button-response","201","985928","0.0-19.0-2.4","38531","","<p>Which tone was played second after the cadence?</p><p>Please respond as quickly and as accurately as possible!</p>","7","","2","new_stimuli/mp3/melody_^4_^5_^6_v5_v4_v3_v2_.mp3"
"","646.0899999947287","html-button-response","202","986575","0.0-19.0-3.4","38531","","<p>Which tone was played third after the cadence?</p><p>Please respond as quickly and as accurately as possible!</p>","9","","3","new_stimuli/mp3/melody_^4_^5_^6_v5_v4_v3_v2_.mp3"
"","455.45499999576714","html-button-response","203","987032","0.0-19.0-4.4","38531","","<p>Which tone was played fourth after the cadence?</p><p>Please respond as quickly and as accurately as possible!</p>","7","","4","new_stimuli/mp3/melody_^4_^5_^6_v5_v4_v3_v2_.mp3"
"","566.6550000023562","html-button-response","204","987600","0.0-19.0-5.4","38531","","<p>Which tone was played fifth after the cadence?</p><p>Please respond as quickly and as accurately as possible!</p>","5","","5","new_stimuli/mp3/melody_^4_^5_^6_v5_v4_v3_v2_.mp3"
"","710.3399999977555","html-button-response","205","988311","0.0-19.0-6.4","38531","","<p>Which tone was played sixth after the cadence?</p><p>Please respond as quickly and as accurately as possible!</p>","4","","6","new_stimuli/mp3/melody_^4_^5_^6_v5_v4_v3_v2_.mp3"
"","727.5300000037532","html-button-response","206","989040","0.0-19.0-7.4","38531","","<p>Which tone was played seventh after the cadence?</p><p>Please respond as quickly and as accurately as possible!</p>","2","","7","new_stimuli/mp3/melody_^4_^5_^6_v5_v4_v3_v2_.mp3"
"","null","audio-keyboard-response","207","1000690","0.0-19.0-0.5","38531","","new_stimuli/mp3/melody_^6_v5+_v4_^5+_v3_v1_v7-_.mp3","","null","",""
"","1429.4300000037765","html-button-response","208","1002121","0.0-19.0-1.5","38531","","<p>Which tone was played first after the cadence?</p><p>Please respond as quickly and as accurately as possible!</p>","9","","1","new_stimuli/mp3/melody_^6_v5+_v4_^5+_v3_v1_v7-_.mp3"
"","1276.87999999756","html-button-response","209","1003399","0.0-19.0-2.5","38531","","<p>Which tone was played second after the cadence?</p><p>Please respond as quickly and as accurately as possible!</p>","7","","2","new_stimuli/mp3/melody_^6_v5+_v4_^5+_v3_v1_v7-_.mp3"
"","1974.9700000028824","html-button-response","210","1005375","0.0-19.0-3.5","38531","","<p>Which tone was played third after the cadence?</p><p>Please respond as quickly and as accurately as possible!</p>","3","","3","new_stimuli/mp3/melody_^6_v5+_v4_^5+_v3_v1_v7-_.mp3"
"","2407.1849999963306","html-button-response","211","1007784","0.0-19.0-4.5","38531","","<p>Which tone was played fourth after the cadence?</p><p>Please respond as quickly and as accurately as possible!</p>","6","","4","new_stimuli/mp3/melody_^6_v5+_v4_^5+_v3_v1_v7-_.mp3"
"","3470.4950000013923","html-button-response","212","1011255","0.0-19.0-5.5","38531","","<p>Which tone was played fifth after the cadence?</p><p>Please respond as quickly and as accurately as possible!</p>","2","","5","new_stimuli/mp3/melody_^6_v5+_v4_^5+_v3_v1_v7-_.mp3"
"","1549.9000000054948","html-button-response","213","1012806","0.0-19.0-6.5","38531","","<p>Which tone was played sixth after the cadence?</p><p>Please respond as quickly and as accurately as possible!</p>","0","","6","new_stimuli/mp3/melody_^6_v5+_v4_^5+_v3_v1_v7-_.mp3"
"","839.5900000033434","html-button-response","214","1013647","0.0-19.0-7.5","38531","","<p>Which tone was played seventh after the cadence?</p><p>Please respond as quickly and as accurately as possible!</p>","10","","7","new_stimuli/mp3/melody_^6_v5+_v4_^5+_v3_v1_v7-_.mp3"
"","null","audio-keyboard-response","215","1025349","0.0-19.0-0.6","38531","","new_stimuli/mp3/melody_^1_v7_v6_v5_v4_v3_v2_buffer.mp3","","null","",""
"","823.420000000624","html-button-response","216","1026175","0.0-19.0-1.6","38531","","<p>Which tone was played first after the cadence?</p><p>Please respond as quickly and as accurately as possible!</p>","12","","1","new_stimuli/mp3/melody_^1_v7_v6_v5_v4_v3_v2_buffer.mp3"
"","454.06999999983236","html-button-response","217","1026630","0.0-19.0-2.6","38531","","<p>Which tone was played second after the cadence?</p><p>Please respond as quickly and as accurately as possible!</p>","11","","2","new_stimuli/mp3/melody_^1_v7_v6_v5_v4_v3_v2_buffer.mp3"
"","519.5349999994505","html-button-response","218","1027150","0.0-19.0-3.6","38531","","<p>Which tone was played third after the cadence?</p><p>Please respond as quickly and as accurately as possible!</p>","9","","3","new_stimuli/mp3/melody_^1_v7_v6_v5_v4_v3_v2_buffer.mp3"
"","607.174999997369","html-button-response","219","1027759","0.0-19.0-4.6","38531","","<p>Which tone was played fourth after the cadence?</p><p>Please respond as quickly and as accurately as possible!</p>","7","","4","new_stimuli/mp3/melody_^1_v7_v6_v5_v4_v3_v2_buffer.mp3"
"","782.8949999966426","html-button-response","220","1028543","0.0-19.0-5.6","38531","","<p>Which tone was played fifth after the cadence?</p><p>Please respond as quickly and as accurately as possible!</p>","5","","5","new_stimuli/mp3/melody_^1_v7_v6_v5_v4_v3_v2_buffer.mp3"
"","438.9850000006845","html-button-response","221","1028983","0.0-19.0-6.6","38531","","<p>Which tone was played sixth after the cadence?</p><p>Please respond as quickly and as accurately as possible!</p>","4","","6","new_stimuli/mp3/melody_^1_v7_v6_v5_v4_v3_v2_buffer.mp3"
"","598.1499999980442","html-button-response","222","1029582","0.0-19.0-7.6","38531","","<p>Which tone was played seventh after the cadence?</p><p>Please respond as quickly and as accurately as possible!</p>","2","","7","new_stimuli/mp3/melody_^1_v7_v6_v5_v4_v3_v2_buffer.mp3"
"[{""page_index"":0,""viewing_time"":1975.109999999404},{""page_index"":1,""viewing_time"":976.3999999995576},{""page_index"":2,""viewing_time"":1823.965000003227}]","4775.704999999958","instructions","223","1034358","0.0-20.0","38531","","","","","",""
"","null","audio-keyboard-response","224","1047053","0.0-21.0-0.0","38531","","new_stimuli/mp3/melody_^2_^3_^4_^5_^6_v5_v4_v3_v2_buffer.mp3","","null","",""
"","1278.8250000011176","html-button-response","225","1048334","0.0-21.0-1.0","38531","","<p>Which tone was played first after the cadence?</p><p>Please respond as quickly and as accurately as possible!</p>","2","","1","new_stimuli/mp3/melody_^2_^3_^4_^5_^6_v5_v4_v3_v2_buffer.mp3"
"","678.6150000041816","html-button-response","226","1049013","0.0-21.0-2.0","38531","","<p>Which tone was played second after the cadence?</p><p>Please respond as quickly and as accurately as possible!</p>","4","","2","new_stimuli/mp3/melody_^2_^3_^4_^5_^6_v5_v4_v3_v2_buffer.mp3"
"","535.5799999961164","html-button-response","227","1049550","0.0-21.0-3.0","38531","","<p>Which tone was played third after the cadence?</p><p>Please respond as quickly and as accurately as possible!</p>","5","","3","new_stimuli/mp3/melody_^2_^3_^4_^5_^6_v5_v4_v3_v2_buffer.mp3"
"","622.5249999987427","html-button-response","228","1050174","0.0-21.0-4.0","38531","","<p>Which tone was played fourth after the cadence?</p><p>Please respond as quickly and as accurately as possible!</p>","7","","4","new_stimuli/mp3/melody_^2_^3_^4_^5_^6_v5_v4_v3_v2_buffer.mp3"
"","798.5349999943282","html-button-response","229","1050973","0.0-21.0-5.0","38531","","<p>Which tone was played fifth after the cadence?</p><p>Please respond as quickly and as accurately as possible!</p>","9","","5","new_stimuli/mp3/melody_^2_^3_^4_^5_^6_v5_v4_v3_v2_buffer.mp3"
"","703.0149999991991","html-button-response","230","1051677","0.0-21.0-6.0","38531","","<p>Which tone was played sixth after the cadence?</p><p>Please respond as quickly and as accurately as possible!</p>","7","","6","new_stimuli/mp3/melody_^2_^3_^4_^5_^6_v5_v4_v3_v2_buffer.mp3"
"","575.4149999993388","html-button-response","231","1052254","0.0-21.0-7.0","38531","","<p>Which tone was played seventh after the cadence?</p><p>Please respond as quickly and as accurately as possible!</p>","5","","7","new_stimuli/mp3/melody_^2_^3_^4_^5_^6_v5_v4_v3_v2_buffer.mp3"
"","598.429999998305","html-button-response","232","1052854","0.0-21.0-8.0","38531","","<p>Which tone was played eight after the cadence?</p><p>Please respond as quickly and as accurately as possible!</p>","3","","8","new_stimuli/mp3/melody_^2_^3_^4_^5_^6_v5_v4_v3_v2_buffer.mp3"
"","1703.130000001751","html-button-response","233","1054558","0.0-21.0-9.0","38531","","<p>Which tone was played nineth after the cadence?</p><p>Please respond as quickly and as accurately as possible!</p>","2","","9","new_stimuli/mp3/melody_^2_^3_^4_^5_^6_v5_v4_v3_v2_buffer.mp3"
"","null","audio-keyboard-response","234","1067196","0.0-21.0-0.1","38531","","new_stimuli/mp3/melody_^3_^4_v2_v7_^1_^2_^3_3_^4_.mp3","","null","",""
"","1408.3299999982119","html-button-response","235","1068606","0.0-21.0-1.1","38531","","<p>Which tone was played first after the cadence?</p><p>Please respond as quickly and as accurately as possible!</p>","5","","1","new_stimuli/mp3/melody_^3_^4_v2_v7_^1_^2_^3_3_^4_.mp3"
"","526.275000003865","html-button-response","236","1069133","0.0-21.0-2.1","38531","","<p>Which tone was played second after the cadence?</p><p>Please respond as quickly and as accurately as possible!</p>","4","","2","new_stimuli/mp3/melody_^3_^4_v2_v7_^1_^2_^3_3_^4_.mp3"
"","575.2849999989849","html-button-response","237","1069709","0.0-21.0-3.1","38531","","<p>Which tone was played third after the cadence?</p><p>Please respond as quickly and as accurately as possible!</p>","2","","3","new_stimuli/mp3/melody_^3_^4_v2_v7_^1_^2_^3_3_^4_.mp3"
"","3758.25999999512","html-button-response","238","1073469","0.0-21.0-4.1","38531","","<p>Which tone was played fourth after the cadence?</p><p>Please respond as quickly and as accurately as possible!</p>","11","","4","new_stimuli/mp3/melody_^3_^4_v2_v7_^1_^2_^3_3_^4_.mp3"
"","2351.090000003809","html-button-response","239","1075821","0.0-21.0-5.1","38531","","<p>Which tone was played fifth after the cadence?</p><p>Please respond as quickly and as accurately as possible!</p>","0","","5","new_stimuli/mp3/melody_^3_^4_v2_v7_^1_^2_^3_3_^4_.mp3"
"","590.6099999991711","html-button-response","240","1076413","0.0-21.0-6.1","38531","","<p>Which tone was played sixth after the cadence?</p><p>Please respond as quickly and as accurately as possible!</p>","2","","6","new_stimuli/mp3/melody_^3_^4_v2_v7_^1_^2_^3_3_^4_.mp3"
"","502.53499999968335","html-button-response","241","1076917","0.0-21.0-7.1","38531","","<p>Which tone was played seventh after the cadence?</p><p>Please respond as quickly and as accurately as possible!</p>","4","","7","new_stimuli/mp3/melody_^3_^4_v2_v7_^1_^2_^3_3_^4_.mp3"
"","2262.8200000035577","html-button-response","242","1079181","0.0-21.0-8.1","38531","","<p>Which tone was played eight after the cadence?</p><p>Please respond as quickly and as accurately as possible!</p>","5","","8","new_stimuli/mp3/melody_^3_^4_v2_v7_^1_^2_^3_3_^4_.mp3"
"","374.85000000009313","html-button-response","243","1079557","0.0-21.0-9.1","38531","","<p>Which tone was played nineth after the cadence?</p><p>Please respond as quickly and as accurately as possible!</p>","4","","9","new_stimuli/mp3/melody_^3_^4_v2_v7_^1_^2_^3_3_^4_.mp3"
"","null","audio-keyboard-response","244","1092197","0.0-21.0-0.2","38531","","new_stimuli/mp3/melody_v7_v6_v5_^6_v5_v4_^5_^6_v5_.mp3","","null","",""
"","1197.6550000037532","html-button-response","245","1093396","0.0-21.0-1.2","38531","","<p>Which tone was played first after the cadence?</p><p>Please respond as quickly and as accurately as possible!</p>","11","","1","new_stimuli/mp3/melody_v7_v6_v5_^6_v5_v4_^5_^6_v5_.mp3"
"","582.8499999986961","html-button-response","246","1093980","0.0-21.0-2.2","38531","","<p>Which tone was played second after the cadence?</p><p>Please respond as quickly and as accurately as possible!</p>","9","","2","new_stimuli/mp3/melody_v7_v6_v5_^6_v5_v4_^5_^6_v5_.mp3"
"","583.2550000050105","html-button-response","247","1094565","0.0-21.0-3.2","38531","","<p>Which tone was played third after the cadence?</p><p>Please respond as quickly and as accurately as possible!</p>","7","","3","new_stimuli/mp3/melody_v7_v6_v5_^6_v5_v4_^5_^6_v5_.mp3"
"","2662.060000002384","html-button-response","248","1097228","0.0-21.0-4.2","38531","","<p>Which tone was played fourth after the cadence?</p><p>Please respond as quickly and as accurately as possible!</p>","9","","4","new_stimuli/mp3/melody_v7_v6_v5_^6_v5_v4_^5_^6_v5_.mp3"
"","831.3449999988079","html-button-response","249","1098061","0.0-21.0-5.2","38531","","<p>Which tone was played fifth after the cadence?</p><p>Please respond as quickly and as accurately as possible!</p>","7","","5","new_stimuli/mp3/melody_v7_v6_v5_^6_v5_v4_^5_^6_v5_.mp3"
"","766.2899999995716","html-button-response","250","1098828","0.0-21.0-6.2","38531","","<p>Which tone was played sixth after the cadence?</p><p>Please respond as quickly and as accurately as possible!</p>","5","","6","new_stimuli/mp3/melody_v7_v6_v5_^6_v5_v4_^5_^6_v5_.mp3"
"","495.38500000187196","html-button-response","251","1099325","0.0-21.0-7.2","38531","","<p>Which tone was played seventh after the cadence?</p><p>Please respond as quickly and as accurately as possible!</p>","7","","7","new_stimuli/mp3/melody_v7_v6_v5_^6_v5_v4_^5_^6_v5_.mp3"
"","518.1149999988265","html-button-response","252","1099844","0.0-21.0-8.2","38531","","<p>Which tone was played eight after the cadence?</p><p>Please respond as quickly and as accurately as possible!</p>","9","","8","new_stimuli/mp3/melody_v7_v6_v5_^6_v5_v4_^5_^6_v5_.mp3"
"","462.97999999672174","html-button-response","253","1100308","0.0-21.0-9.2","38531","","<p>Which tone was played nineth after the cadence?</p><p>Please respond as quickly and as accurately as possible!</p>","7","","9","new_stimuli/mp3/melody_v7_v6_v5_^6_v5_v4_^5_^6_v5_.mp3"
"","null","audio-keyboard-response","254","1113263","0.0-21.0-0.3","38531","","new_stimuli/mp3/melody_^5_^6_v5_v4_v3_v2_v1_^2_^3_buffer.mp3","","null","",""
"","922.9300000006333","html-button-response","255","1114188","0.0-21.0-1.3","38531","","<p>Which tone was played first after the cadence?</p><p>Please respond as quickly and as accurately as possible!</p>","7","","1","new_stimuli/mp3/melody_^5_^6_v5_v4_v3_v2_v1_^2_^3_buffer.mp3"
"","567.3649999953341","html-button-response","256","1114756","0.0-21.0-2.3","38531","","<p>Which tone was played second after the cadence?</p><p>Please respond as quickly and as accurately as possible!</p>","9","","2","new_stimuli/mp3/melody_^5_^6_v5_v4_v3_v2_v1_^2_^3_buffer.mp3"
"","510.1000000068452","html-button-response","257","1115267","0.0-21.0-3.3","38531","","<p>Which tone was played third after the cadence?</p><p>Please respond as quickly and as accurately as possible!</p>","7","","3","new_stimuli/mp3/melody_^5_^6_v5_v4_v3_v2_v1_^2_^3_buffer.mp3"
"","855.5449999985285","html-button-response","258","1116124","0.0-21.0-4.3","38531","","<p>Which tone was played fourth after the cadence?</p><p>Please respond as quickly and as accurately as possible!</p>","5","","4","new_stimuli/mp3/melody_^5_^6_v5_v4_v3_v2_v1_^2_^3_buffer.mp3"
"","606.2349999991711","html-button-response","259","1116732","0.0-21.0-5.3","38531","","<p>Which tone was played fifth after the cadence?</p><p>Please respond as quickly and as accurately as possible!</p>","4","","5","new_stimuli/mp3/melody_^5_^6_v5_v4_v3_v2_v1_^2_^3_buffer.mp3"
"","2270.385000003269","html-button-response","260","1119003","0.0-21.0-6.3","38531","","<p>Which tone was played sixth after the cadence?</p><p>Please respond as quickly and as accurately as possible!</p>","2","","6","new_stimuli/mp3/melody_^5_^6_v5_v4_v3_v2_v1_^2_^3_buffer.mp3"
"","838.855000001844","html-button-response","261","1119844","0.0-21.0-7.3","38531","","<p>Which tone was played seventh after the cadence?</p><p>Please respond as quickly and as accurately as possible!</p>","0","","7","new_stimuli/mp3/melody_^5_^6_v5_v4_v3_v2_v1_^2_^3_buffer.mp3"
"","438.5900000052061","html-button-response","262","1120283","0.0-21.0-8.3","38531","","<p>Which tone was played eight after the cadence?</p><p>Please respond as quickly and as accurately as possible!</p>","2","","8","new_stimuli/mp3/melody_^5_^6_v5_v4_v3_v2_v1_^2_^3_buffer.mp3"
"","431.1200000010431","html-button-response","263","1120716","0.0-21.0-9.3","38531","","<p>Which tone was played nineth after the cadence?</p><p>Please respond as quickly and as accurately as possible!</p>","4","","9","new_stimuli/mp3/melody_^5_^6_v5_v4_v3_v2_v1_^2_^3_buffer.mp3"
"","null","audio-keyboard-response","264","1133284","0.0-21.0-0.4","38531","","new_stimuli/mp3/melody_^3_^4_^5 _^6_v5_v4_v3_v2_v1_.mp3","","null","",""
"","1221.740000000922","html-button-response","265","1134507","0.0-21.0-1.4","38531","","<p>Which tone was played first after the cadence?</p><p>Please respond as quickly and as accurately as possible!</p>","4","","1","new_stimuli/mp3/melody_^3_^4_^5 _^6_v5_v4_v3_v2_v1_.mp3"
"","487.0000000009313","html-button-response","266","1134995","0.0-21.0-2.4","38531","","<p>Which tone was played second after the cadence?</p><p>Please respond as quickly and as accurately as possible!</p>","5","","2","new_stimuli/mp3/melody_^3_^4_^5 _^6_v5_v4_v3_v2_v1_.mp3"
"","559.9299999959767","html-button-response","267","1135556","0.0-21.0-3.4","38531","","<p>Which tone was played third after the cadence?</p><p>Please respond as quickly and as accurately as possible!</p>","7","","3","new_stimuli/mp3/melody_^3_^4_^5 _^6_v5_v4_v3_v2_v1_.mp3"
"","533.8049999992363","html-button-response","268","1136091","0.0-21.0-4.4","38531","","<p>Which tone was played fourth after the cadence?</p><p>Please respond as quickly and as accurately as possible!</p>","9","","4","new_stimuli/mp3/melody_^3_^4_^5 _^6_v5_v4_v3_v2_v1_.mp3"
"","470.95999999856576","html-button-response","269","1136563","0.0-21.0-5.4","38531","","<p>Which tone was played fifth after the cadence?</p><p>Please respond as quickly and as accurately as possible!</p>","7","","5","new_stimuli/mp3/melody_^3_^4_^5 _^6_v5_v4_v3_v2_v1_.mp3"
"","719.0299999928102","html-button-response","270","1137283","0.0-21.0-6.4","38531","","<p>Which tone was played sixth after the cadence?</p><p>Please respond as quickly and as accurately as possible!</p>","5","","6","new_stimuli/mp3/melody_^3_^4_^5 _^6_v5_v4_v3_v2_v1_.mp3"
"","446.72999999602325","html-button-response","271","1137731","0.0-21.0-7.4","38531","","<p>Which tone was played seventh after the cadence?</p><p>Please respond as quickly and as accurately as possible!</p>","4","","7","new_stimuli/mp3/melody_^3_^4_^5 _^6_v5_v4_v3_v2_v1_.mp3"
"","566.9799999957904","html-button-response","272","1138299","0.0-21.0-8.4","38531","","<p>Which tone was played eight after the cadence?</p><p>Please respond as quickly and as accurately as possible!</p>","2","","8","new_stimuli/mp3/melody_^3_^4_^5 _^6_v5_v4_v3_v2_v1_.mp3"
"","870.5600000030827","html-button-response","273","1139171","0.0-21.0-9.4","38531","","<p>Which tone was played nineth after the cadence?</p><p>Please respond as quickly and as accurately as possible!</p>","0","","9","new_stimuli/mp3/melody_^3_^4_^5 _^6_v5_v4_v3_v2_v1_.mp3"
"","null","audio-keyboard-response","274","1151813","0.0-21.0-0.5","38531","","new_stimuli/mp3/melody_v5_v4_v6+_^7_^3+_v3_v2_v5_^4_.mp3","","null","",""
"","1036.7249999979977","html-button-response","275","1152851","0.0-21.0-1.5","38531","","<p>Which tone was played first after the cadence?</p><p>Please respond as quickly and as accurately as possible!</p>","7","","1","new_stimuli/mp3/melody_v5_v4_v6+_^7_^3+_v3_v2_v5_^4_.mp3"
"","694.3200000023935","html-button-response","276","1153546","0.0-21.0-2.5","38531","","<p>Which tone was played second after the cadence?</p><p>Please respond as quickly and as accurately as possible!</p>","5","","2","new_stimuli/mp3/melody_v5_v4_v6+_^7_^3+_v3_v2_v5_^4_.mp3"
"","2070.7800000018906","html-button-response","277","1155618","0.0-21.0-3.5","38531","","<p>Which tone was played third after the cadence?</p><p>Please respond as quickly and as accurately as possible!</p>","9","","3","new_stimuli/mp3/melody_v5_v4_v6+_^7_^3+_v3_v2_v5_^4_.mp3"
"","631.2849999957252","html-button-response","278","1156251","0.0-21.0-4.5","38531","","<p>Which tone was played fourth after the cadence?</p><p>Please respond as quickly and as accurately as possible!</p>","11","","4","new_stimuli/mp3/melody_v5_v4_v6+_^7_^3+_v3_v2_v5_^4_.mp3"
"","957.7299999946263","html-button-response","279","1157210","0.0-21.0-5.5","38531","","<p>Which tone was played fifth after the cadence?</p><p>Please respond as quickly and as accurately as possible!</p>","12","","5","new_stimuli/mp3/melody_v5_v4_v6+_^7_^3+_v3_v2_v5_^4_.mp3"
"","1039.299999996787","html-button-response","280","1158251","0.0-21.0-6.5","38531","","<p>Which tone was played sixth after the cadence?</p><p>Please respond as quickly and as accurately as possible!</p>","6","","6","new_stimuli/mp3/melody_v5_v4_v6+_^7_^3+_v3_v2_v5_^4_.mp3"
"","503.0200000037439","html-button-response","281","1158755","0.0-21.0-7.5","38531","","<p>Which tone was played seventh after the cadence?</p><p>Please respond as quickly and as accurately as possible!</p>","5","","7","new_stimuli/mp3/melody_v5_v4_v6+_^7_^3+_v3_v2_v5_^4_.mp3"
"","2061.7899999995716","html-button-response","282","1160818","0.0-21.0-8.5","38531","","<p>Which tone was played eight after the cadence?</p><p>Please respond as quickly and as accurately as possible!</p>","2","","8","new_stimuli/mp3/melody_v5_v4_v6+_^7_^3+_v3_v2_v5_^4_.mp3"
"","655.0500000012107","html-button-response","283","1161474","0.0-21.0-9.5","38531","","<p>Which tone was played nineth after the cadence?</p><p>Please respond as quickly and as accurately as possible!</p>","4","","9","new_stimuli/mp3/melody_v5_v4_v6+_^7_^3+_v3_v2_v5_^4_.mp3"
"","null","audio-keyboard-response","284","1174405","0.0-21.0-0.6","38531","","new_stimuli/mp3/melody_^2_^4_v3_v2_v1_v3_v2+_^3_^5+_.mp3","","null","",""
"","2539.579999996815","html-button-response","285","1176946","0.0-21.0-1.6","38531","","<p>Which tone was played first after the cadence?</p><p>Please respond as quickly and as accurately as possible!</p>","2","","1","new_stimuli/mp3/melody_^2_^4_v3_v2_v1_v3_v2+_^3_^5+_.mp3"
"","3334.195000003092","html-button-response","286","1180281","0.0-21.0-2.6","38531","","<p>Which tone was played second after the cadence?</p><p>Please respond as quickly and as accurately as possible!</p>","4","","2","new_stimuli/mp3/melody_^2_^4_v3_v2_v1_v3_v2+_^3_^5+_.mp3"
"","1447.4550000014715","html-button-response","287","1181730","0.0-21.0-3.6","38531","","<p>Which tone was played third after the cadence?</p><p>Please respond as quickly and as accurately as possible!</p>","5","","3","new_stimuli/mp3/melody_^2_^4_v3_v2_v1_v3_v2+_^3_^5+_.mp3"
"","342.5349999961909","html-button-response","288","1182074","0.0-21.0-4.6","38531","","<p>Which tone was played fourth after the cadence?</p><p>Please respond as quickly and as accurately as possible!</p>","4","","4","new_stimuli/mp3/melody_^2_^4_v3_v2_v1_v3_v2+_^3_^5+_.mp3"
"","863.0199999969918","html-button-response","289","1182938","0.0-21.0-5.6","38531","","<p>Which tone was played fifth after the cadence?</p><p>Please respond as quickly and as accurately as possible!</p>","0","","5","new_stimuli/mp3/melody_^2_^4_v3_v2_v1_v3_v2+_^3_^5+_.mp3"
"","646.2299999985844","html-button-response","290","1183585","0.0-21.0-6.6","38531","","<p>Which tone was played sixth after the cadence?</p><p>Please respond as quickly and as accurately as possible!</p>","6","","6","new_stimuli/mp3/melody_^2_^4_v3_v2_v1_v3_v2+_^3_^5+_.mp3"
"","623.285000001546","html-button-response","291","1184210","0.0-21.0-7.6","38531","","<p>Which tone was played seventh after the cadence?</p><p>Please respond as quickly and as accurately as possible!</p>","7","","7","new_stimuli/mp3/melody_^2_^4_v3_v2_v1_v3_v2+_^3_^5+_.mp3"
"","2670.8350000043865","html-button-response","292","1186882","0.0-21.0-8.6","38531","","<p>Which tone was played eight after the cadence?</p><p>Please respond as quickly and as accurately as possible!</p>","4","","8","new_stimuli/mp3/melody_^2_^4_v3_v2_v1_v3_v2+_^3_^5+_.mp3"
"","925.9749999984633","html-button-response","293","1187809","0.0-21.0-9.6","38531","","<p>Which tone was played nineth after the cadence?</p><p>Please respond as quickly and as accurately as possible!</p>","9","","9","new_stimuli/mp3/melody_^2_^4_v3_v2_v1_v3_v2+_^3_^5+_.mp3"
"","21150.67499999702","survey-text","294","1208961","0.0-22.0","38531","{""Q0"":""humming along with 'do', humming back the melodies""}","","","","",""
"","44023.59499999881","survey-text","295","1252985","0.0-23.0","38531","{""Q0"":""Even just a second listen to each example would have made this dramatically easier  curious to know the research questions and the results!""}","","","","",""
"","3118.490000000689","survey-text","296","1256104","0.0-24.0","38531","{""Q0"":""No""}","","","","",""
"","7326.825000003679","survey-text","297","1263432","0.0-25.0","38531","{""Q0"":""Laptop speakers""}","","","","",""
"","3686.8800000010524","survey-text","298","1267120","0.0-26.0","38531","{""Q0"":""Male""}","","","","",""
"","2190.2799999951385","survey-text","299","1269311","0.0-27.0","38531","{""Q0"":""Yes""}","","","","",""
"[{""page_index"":0,""viewing_time"":9424.760000001872}]","9425.049999998184","instructions","300","1278737","0.0-28.0","38531","","","","","",""
