"view_history","rt","trial_type","trial_index","time_elapsed","internal_node_id","subject","responses","stimulus","button_pressed","key_press","response_sequence","melody"
"[{""page_index"":0,""viewing_time"":1464.6150000007765},{""page_index"":1,""viewing_time"":13342.034999999669},{""page_index"":2,""viewing_time"":2591.679999999542}]","17398.7900000011","instructions","0","17411","0.0-0.0","39534","","","","","",""
"","3098.1750000009924","survey-text","1","20511","0.0-1.0","39534","{""Q0"":""33""}","","","","",""
"","5028.594999999768","survey-text","2","25540","0.0-2.0","39534","{""Q0"":""Bachelor's""}","","","","",""
"","20070.52499999918","survey-text","3","45611","0.0-3.0","39534","{""Q0"":""Numbers""}","","","","",""
"","15207.345000000714","survey-text","4","60819","0.0-4.0","39534","{""Q0"":""No""}","","","","",""
"","14415.51999999865","survey-text","5","75235","0.0-5.0","39534","{""Q0"":""60""}","","","","",""
"","9799.324999999953","survey-text","6","85035","0.0-6.0","39534","{""Q0"":""0""}","","","","",""
"[{""page_index"":0,""viewing_time"":2567.1849999998813},{""page_index"":1,""viewing_time"":36239.86500000137},{""page_index"":2,""viewing_time"":1271.7799999991257}]","40078.98000000023","instructions","7","125114","0.0-7.0","39534","","","","","",""
"","7598.830000000802","audio-button-response","8","132715","0.0-8.0","39534","","stimuli/long/c-do.mp3","0","","",""
"","14670.549999998912","audio-button-response","9","147386","0.0-9.0","39534","","stimuli/long/a-le.mp3","5","","",""
"[{""page_index"":0,""viewing_time"":3279.399999999441},{""page_index"":1,""viewing_time"":7895.850000000792}]","11175.504999999248","instructions","10","158562","0.0-10.0","39534","","","","","",""
"","7790.569999999221","audio-button-response","11","166354","0.0-11.0-0.0","39534","","stimuli/long/c-do8.mp3","0","","",""
"","13278.760000001057","audio-button-response","12","179634","0.0-11.0-0.1","39534","","stimuli/long/a-te.mp3","10","","",""
"","9039.289999998786","audio-button-response","13","188675","0.0-11.0-0.2","39534","","stimuli/long/a-ti.mp3","11","","",""
"","null","audio-button-response","14","208678","0.0-11.0-0.3","39534","","stimuli/long/c-la.mp3","null","","",""
"","17514.815000000468","audio-button-response","15","226195","0.0-11.0-0.4","39534","","stimuli/long/c-me.mp3","8","","",""
"","7710.984999999724","audio-button-response","16","233907","0.0-11.0-0.5","39534","","stimuli/long/e-fi.mp3","6","","",""
"","18054.86000000016","audio-button-response","17","251963","0.0-11.0-0.6","39534","","stimuli/long/a-ra.mp3","6","","",""
"","10238.955000000715","audio-button-response","18","262203","0.0-11.0-0.7","39534","","stimuli/long/a-fa.mp3","5","","",""
"","12399.195000000007","audio-button-response","19","274603","0.0-11.0-0.8","39534","","stimuli/long/c-ra.mp3","10","","",""
"","9766.920000000042","audio-button-response","20","284371","0.0-11.0-0.9","39534","","stimuli/long/c-ti.mp3","11","","",""
"","7718.84499999939","audio-button-response","21","292091","0.0-11.0-0.10","39534","","stimuli/long/e-do.mp3","0","","",""
"","10366.749999999243","audio-button-response","22","302459","0.0-11.0-0.11","39534","","stimuli/long/a-mi.mp3","4","","",""
"","8807.020000000193","audio-button-response","23","311266","0.0-11.0-0.12","39534","","stimuli/long/e-ra.mp3","1","","",""
"","9046.839999999036","audio-button-response","24","320314","0.0-11.0-0.13","39534","","stimuli/long/c-mi.mp3","4","","",""
"","9527.159999999625","audio-button-response","25","329843","0.0-11.0-0.14","39534","","stimuli/long/e-sol.mp3","7","","",""
"","14070.780000000028","audio-button-response","26","343915","0.0-11.0-0.15","39534","","stimuli/long/e-te.mp3","10","","",""
"","13454.900000000664","audio-button-response","27","357370","0.0-11.0-0.16","39534","","stimuli/long/a-le.mp3","5","","",""
"","12902.944999999832","audio-button-response","28","370275","0.0-11.0-0.17","39534","","stimuli/long/c-le.mp3","6","","",""
"","14342.904999999504","audio-button-response","29","384619","0.0-11.0-0.18","39534","","stimuli/long/e-la.mp3","9","","",""
"","8039.165000000154","audio-button-response","30","392659","0.0-11.0-0.19","39534","","stimuli/long/e-do8.mp3","12","","",""
"","10638.919999999402","audio-button-response","31","403299","0.0-11.0-0.20","39534","","stimuli/long/a-do8.mp3","0","","",""
"","9343.259999999602","audio-button-response","32","412643","0.0-11.0-0.21","39534","","stimuli/long/a-re.mp3","2","","",""
"","11262.520000000193","audio-button-response","33","423907","0.0-11.0-0.22","39534","","stimuli/long/e-fa.mp3","5","","",""
"","9373.915000000154","audio-button-response","34","433283","0.0-11.0-0.23","39534","","stimuli/long/c-sol.mp3","7","","",""
"","7743.015000000014","audio-button-response","35","441027","0.0-11.0-0.24","39534","","stimuli/long/e-ti.mp3","11","","",""
"","17582.62500000093","audio-button-response","36","458611","0.0-11.0-0.25","39534","","stimuli/long/e-le.mp3","8","","",""
"","9191.645000000775","audio-button-response","37","467803","0.0-11.0-0.26","39534","","stimuli/long/c-re.mp3","2","","",""
"","10766.630000000063","audio-button-response","38","478571","0.0-11.0-0.27","39534","","stimuli/long/e-me.mp3","3","","",""
"","13694.859999999579","audio-button-response","39","492267","0.0-11.0-0.28","39534","","stimuli/long/c-fi.mp3","6","","",""
"","9375.079999999783","audio-button-response","40","501643","0.0-11.0-0.29","39534","","stimuli/long/a-me.mp3","3","","",""
"","8646.754999999714","audio-button-response","41","510291","0.0-11.0-0.30","39534","","stimuli/long/c-do.mp3","0","","",""
"","15646.984999999462","audio-button-response","42","525939","0.0-11.0-0.31","39534","","stimuli/long/a-la.mp3","9","","",""
"","10206.589999999735","audio-button-response","43","536147","0.0-11.0-0.32","39534","","stimuli/long/c-fa.mp3","5","","",""
"","10423.31500000006","audio-button-response","44","546571","0.0-11.0-0.33","39534","","stimuli/long/a-sol.mp3","7","","",""
"","7790.900000000023","audio-button-response","45","554363","0.0-11.0-0.34","39534","","stimuli/long/a-do.mp3","0","","",""
"","13967.070000000647","audio-button-response","46","568331","0.0-11.0-0.35","39534","","stimuli/long/a-fi.mp3","6","","",""
"","8918.975000000559","audio-button-response","47","577251","0.0-11.0-0.36","39534","","stimuli/long/e-re.mp3","2","","",""
"","8734.784999998636","audio-button-response","48","585987","0.0-11.0-0.37","39534","","stimuli/long/e-mi.mp3","4","","",""
"[{""page_index"":0,""viewing_time"":9495.375000000466},{""page_index"":1,""viewing_time"":1088.1649999992223}]","10583.665000000154","instructions","49","596571","0.0-12.0","39534","","","","","",""
"","null","audio-keyboard-response","50","605995","0.0-13.0-0.0","39534","","new_stimuli/mp3/melody_v4_v3_buffer.mp3","","null","",""
"","1343.1499999987427","html-button-response","51","607340","0.0-13.0-1.0","39534","","<p>Which tone was played first after the cadence?</p><p>Please respond as quickly and as accurately as possible!</p>","5","","1","new_stimuli/mp3/melody_v4_v3_buffer.mp3"
"","622.8300000001909","html-button-response","52","607963","0.0-13.0-2.0","39534","","<p>Which tone was played second after the cadence?</p><p>Please respond as quickly and as accurately as possible!</p>","4","","2","new_stimuli/mp3/melody_v4_v3_buffer.mp3"
"","null","audio-keyboard-response","53","617135","0.0-13.0-0.1","39534","","new_stimuli/mp3/melody_v5_v1+_.mp3","","null","",""
"","4025.9549999992596","html-button-response","54","621163","0.0-13.0-1.1","39534","","<p>Which tone was played first after the cadence?</p><p>Please respond as quickly and as accurately as possible!</p>","12","","1","new_stimuli/mp3/melody_v5_v1+_.mp3"
"","1903.1150000010384","html-button-response","55","623067","0.0-13.0-2.1","39534","","<p>Which tone was played second after the cadence?</p><p>Please respond as quickly and as accurately as possible!</p>","1","","2","new_stimuli/mp3/melody_v5_v1+_.mp3"
"","null","audio-keyboard-response","56","632139","0.0-13.0-0.2","39534","","new_stimuli/mp3/melody_v2_v1_.mp3","","null","",""
"","3189.9850000009174","html-button-response","57","635331","0.0-13.0-1.2","39534","","<p>Which tone was played first after the cadence?</p><p>Please respond as quickly and as accurately as possible!</p>","2","","1","new_stimuli/mp3/melody_v2_v1_.mp3"
"","495.2400000001071","html-button-response","58","635827","0.0-13.0-2.2","39534","","<p>Which tone was played second after the cadence?</p><p>Please respond as quickly and as accurately as possible!</p>","0","","2","new_stimuli/mp3/melody_v2_v1_.mp3"
"","null","audio-keyboard-response","59","645283","0.0-13.0-0.3","39534","","new_stimuli/mp3/melody_v7_v3_buffer.mp3","","null","",""
"","4414.244999999995","html-button-response","60","649700","0.0-13.0-1.3","39534","","<p>Which tone was played first after the cadence?</p><p>Please respond as quickly and as accurately as possible!</p>","10","","1","new_stimuli/mp3/melody_v7_v3_buffer.mp3"
"","3574.585000000312","html-button-response","61","653276","0.0-13.0-2.3","39534","","<p>Which tone was played second after the cadence?</p><p>Please respond as quickly and as accurately as possible!</p>","4","","2","new_stimuli/mp3/melody_v7_v3_buffer.mp3"
"","null","audio-keyboard-response","62","662303","0.0-13.0-0.4","39534","","new_stimuli/mp3/melody_^1_^2+_.mp3","","null","",""
"","1026.2400000010384","html-button-response","63","663331","0.0-13.0-1.4","39534","","<p>Which tone was played first after the cadence?</p><p>Please respond as quickly and as accurately as possible!</p>","0","","1","new_stimuli/mp3/melody_^1_^2+_.mp3"
"","1599.7299999999814","html-button-response","64","664932","0.0-13.0-2.4","39534","","<p>Which tone was played second after the cadence?</p><p>Please respond as quickly and as accurately as possible!</p>","3","","2","new_stimuli/mp3/melody_^1_^2+_.mp3"
"","null","audio-keyboard-response","65","674234","0.0-13.0-0.5","39534","","new_stimuli/mp3/melody_3_^6_buffer.mp3","","null","",""
"","3551.5949999989243","html-button-response","66","677787","0.0-13.0-1.5","39534","","<p>Which tone was played first after the cadence?</p><p>Please respond as quickly and as accurately as possible!</p>","4","","1","new_stimuli/mp3/melody_3_^6_buffer.mp3"
"","638.9500000004191","html-button-response","67","678427","0.0-13.0-2.5","39534","","<p>Which tone was played second after the cadence?</p><p>Please respond as quickly and as accurately as possible!</p>","9","","2","new_stimuli/mp3/melody_3_^6_buffer.mp3"
"","null","audio-keyboard-response","68","687598","0.0-13.0-0.6","39534","","new_stimuli/mp3/melody_^2_v7-_.mp3","","null","",""
"","7738.475000000093","html-button-response","69","695339","0.0-13.0-1.6","39534","","<p>Which tone was played first after the cadence?</p><p>Please respond as quickly and as accurately as possible!</p>","2","","1","new_stimuli/mp3/melody_^2_v7-_.mp3"
"","3998.8250000005355","html-button-response","70","699339","0.0-13.0-2.6","39534","","<p>Which tone was played second after the cadence?</p><p>Please respond as quickly and as accurately as possible!</p>","8","","2","new_stimuli/mp3/melody_^2_v7-_.mp3"
"","null","audio-keyboard-response","71","708530","0.0-13.0-0.7","39534","","new_stimuli/mp3/melody_v3_v2_buffer.mp3","","null","",""
"","1381.949999999022","html-button-response","72","709915","0.0-13.0-1.7","39534","","<p>Which tone was played first after the cadence?</p><p>Please respond as quickly and as accurately as possible!</p>","4","","1","new_stimuli/mp3/melody_v3_v2_buffer.mp3"
"","686.9700000006706","html-button-response","73","710603","0.0-13.0-2.7","39534","","<p>Which tone was played second after the cadence?</p><p>Please respond as quickly and as accurately as possible!</p>","2","","2","new_stimuli/mp3/melody_v3_v2_buffer.mp3"
"","null","audio-keyboard-response","74","720066","0.0-13.0-0.8","39534","","new_stimuli/mp3/melody_^3_v4+_buffer.mp3","","null","",""
"","5902.089999999618","html-button-response","75","725971","0.0-13.0-1.8","39534","","<p>Which tone was played first after the cadence?</p><p>Please respond as quickly and as accurately as possible!</p>","4","","1","new_stimuli/mp3/melody_^3_v4+_buffer.mp3"
"","486.86499999894295","html-button-response","76","726459","0.0-13.0-2.8","39534","","<p>Which tone was played second after the cadence?</p><p>Please respond as quickly and as accurately as possible!</p>","6","","2","new_stimuli/mp3/melody_^3_v4+_buffer.mp3"
"","null","audio-keyboard-response","77","735638","0.0-13.0-0.9","39534","","new_stimuli/mp3/melody_^5_^1+_.mp3","","null","",""
"","8451.105000000098","html-button-response","78","744091","0.0-13.0-1.9","39534","","<p>Which tone was played first after the cadence?</p><p>Please respond as quickly and as accurately as possible!</p>","2","","1","new_stimuli/mp3/melody_^5_^1+_.mp3"
"","678.4399999997113","html-button-response","79","744772","0.0-13.0-2.9","39534","","<p>Which tone was played second after the cadence?</p><p>Please respond as quickly and as accurately as possible!</p>","8","","2","new_stimuli/mp3/melody_^5_^1+_.mp3"
"[{""page_index"":0,""viewing_time"":4463.354999999865},{""page_index"":1,""viewing_time"":1647.8000000006286},{""page_index"":2,""viewing_time"":1584.0800000005402}]","7695.354999999865","instructions","80","752467","0.0-14.0","39534","","","","","",""
"","null","audio-keyboard-response","81","761971","0.0-15.0-0.0","39534","","new_stimuli/mp3/melody_1_v1+_^2_.mp3","","null","",""
"","2989.9800000003306","html-button-response","82","764963","0.0-15.0-1.0","39534","","<p>Which tone was played first after the cadence?</p><p>Please respond as quickly and as accurately as possible!</p>","0","","1","new_stimuli/mp3/melody_1_v1+_^2_.mp3"
"","623.5799999994924","html-button-response","83","765588","0.0-15.0-2.0","39534","","<p>Which tone was played second after the cadence?</p><p>Please respond as quickly and as accurately as possible!</p>","1","","2","new_stimuli/mp3/melody_1_v1+_^2_.mp3"
"","446.92000000027474","html-button-response","84","766035","0.0-15.0-3.0","39534","","<p>Which tone was played third after the cadence?</p><p>Please respond as quickly and as accurately as possible!</p>","2","","3","new_stimuli/mp3/melody_1_v1+_^2_.mp3"
"","null","audio-keyboard-response","85","776014","0.0-15.0-0.1","39534","","new_stimuli/mp3/melody_v2_v5_^3_buffer.mp3","","null","",""
"","1292.6650000008522","html-button-response","86","777307","0.0-15.0-1.1","39534","","<p>Which tone was played first after the cadence?</p><p>Please respond as quickly and as accurately as possible!</p>","2","","1","new_stimuli/mp3/melody_v2_v5_^3_buffer.mp3"
"","3847.060000000056","html-button-response","87","781155","0.0-15.0-2.1","39534","","<p>Which tone was played second after the cadence?</p><p>Please respond as quickly and as accurately as possible!</p>","7","","2","new_stimuli/mp3/melody_v2_v5_^3_buffer.mp3"
"","1527.0449999988778","html-button-response","88","782683","0.0-15.0-3.1","39534","","<p>Which tone was played third after the cadence?</p><p>Please respond as quickly and as accurately as possible!</p>","4","","3","new_stimuli/mp3/melody_v2_v5_^3_buffer.mp3"
"","null","audio-keyboard-response","89","792318","0.0-15.0-0.2","39534","","new_stimuli/mp3/melody_6_^1_v5_.mp3","","null","",""
"","14699.199999999139","html-button-response","90","807020","0.0-15.0-1.2","39534","","<p>Which tone was played first after the cadence?</p><p>Please respond as quickly and as accurately as possible!</p>","9","","1","new_stimuli/mp3/melody_6_^1_v5_.mp3"
"","1406.279999999213","html-button-response","91","808427","0.0-15.0-2.2","39534","","<p>Which tone was played second after the cadence?</p><p>Please respond as quickly and as accurately as possible!</p>","12","","2","new_stimuli/mp3/melody_6_^1_v5_.mp3"
"","622.9450000009965","html-button-response","92","809051","0.0-15.0-3.2","39534","","<p>Which tone was played third after the cadence?</p><p>Please respond as quickly and as accurately as possible!</p>","7","","3","new_stimuli/mp3/melody_6_^1_v5_.mp3"
"","null","audio-keyboard-response","93","818622","0.0-15.0-0.3","39534","","new_stimuli/mp3/melody_v3_v2_v1_.mp3","","null","",""
"","1316.5949999983422","html-button-response","94","819939","0.0-15.0-1.3","39534","","<p>Which tone was played first after the cadence?</p><p>Please respond as quickly and as accurately as possible!</p>","4","","1","new_stimuli/mp3/melody_v3_v2_v1_.mp3"
"","494.6600000002654","html-button-response","95","820435","0.0-15.0-2.3","39534","","<p>Which tone was played second after the cadence?</p><p>Please respond as quickly and as accurately as possible!</p>","2","","2","new_stimuli/mp3/melody_v3_v2_v1_.mp3"
"","470.7249999991618","html-button-response","96","820907","0.0-15.0-3.3","39534","","<p>Which tone was played third after the cadence?</p><p>Please respond as quickly and as accurately as possible!</p>","0","","3","new_stimuli/mp3/melody_v3_v2_v1_.mp3"
"","null","audio-keyboard-response","97","830494","0.0-15.0-0.4","39534","","new_stimuli/mp3/melody_v1_v7-_7-_buffer.mp3","","null","",""
"","14969.930000001099","html-button-response","98","845467","0.0-15.0-1.4","39534","","<p>Which tone was played first after the cadence?</p><p>Please respond as quickly and as accurately as possible!</p>","12","","1","new_stimuli/mp3/melody_v1_v7-_7-_buffer.mp3"
"","422.6099999996368","html-button-response","99","845891","0.0-15.0-2.4","39534","","<p>Which tone was played second after the cadence?</p><p>Please respond as quickly and as accurately as possible!</p>","10","","2","new_stimuli/mp3/melody_v1_v7-_7-_buffer.mp3"
"","287.2749999987427","html-button-response","100","846179","0.0-15.0-3.4","39534","","<p>Which tone was played third after the cadence?</p><p>Please respond as quickly and as accurately as possible!</p>","10","","3","new_stimuli/mp3/melody_v1_v7-_7-_buffer.mp3"
"","null","audio-keyboard-response","101","855750","0.0-15.0-0.5","39534","","new_stimuli/mp3/melody_v1_v7-_^7_.mp3","","null","",""
"","4138.390000000014","html-button-response","102","859891","0.0-15.0-1.5","39534","","<p>Which tone was played first after the cadence?</p><p>Please respond as quickly and as accurately as possible!</p>","12","","1","new_stimuli/mp3/melody_v1_v7-_^7_.mp3"
"","518.5449999989942","html-button-response","103","860411","0.0-15.0-2.5","39534","","<p>Which tone was played second after the cadence?</p><p>Please respond as quickly and as accurately as possible!</p>","9","","2","new_stimuli/mp3/melody_v1_v7-_^7_.mp3"
"","447.304999999702","html-button-response","104","860859","0.0-15.0-3.5","39534","","<p>Which tone was played third after the cadence?</p><p>Please respond as quickly and as accurately as possible!</p>","10","","3","new_stimuli/mp3/melody_v1_v7-_^7_.mp3"
"","null","audio-keyboard-response","105","870822","0.0-15.0-0.6","39534","","new_stimuli/mp3/melody_v5_v4_v3_buffer.mp3","","null","",""
"","2794.2299999995157","html-button-response","106","873619","0.0-15.0-1.6","39534","","<p>Which tone was played first after the cadence?</p><p>Please respond as quickly and as accurately as possible!</p>","7","","1","new_stimuli/mp3/melody_v5_v4_v3_buffer.mp3"
"","550.6850000001723","html-button-response","107","874171","0.0-15.0-2.6","39534","","<p>Which tone was played second after the cadence?</p><p>Please respond as quickly and as accurately as possible!</p>","5","","2","new_stimuli/mp3/melody_v5_v4_v3_buffer.mp3"
"","623.3699999992969","html-button-response","108","874795","0.0-15.0-3.6","39534","","<p>Which tone was played third after the cadence?</p><p>Please respond as quickly and as accurately as possible!</p>","4","","3","new_stimuli/mp3/melody_v5_v4_v3_buffer.mp3"
"","null","audio-keyboard-response","109","884494","0.0-15.0-0.7","39534","","new_stimuli/mp3/melody_v4_v3_v2_buffer.mp3","","null","",""
"","2706.234999999637","html-button-response","110","887217","0.0-15.0-1.7","39534","","<p>Which tone was played first after the cadence?</p><p>Please respond as quickly and as accurately as possible!</p>","5","","1","new_stimuli/mp3/melody_v4_v3_v2_buffer.mp3"
"","737.6650000005029","html-button-response","111","887955","0.0-15.0-2.7","39534","","<p>Which tone was played second after the cadence?</p><p>Please respond as quickly and as accurately as possible!</p>","4","","2","new_stimuli/mp3/melody_v4_v3_v2_buffer.mp3"
"","583.114999999525","html-button-response","112","888539","0.0-15.0-3.7","39534","","<p>Which tone was played third after the cadence?</p><p>Please respond as quickly and as accurately as possible!</p>","2","","3","new_stimuli/mp3/melody_v4_v3_v2_buffer.mp3"
"","null","audio-keyboard-response","113","898434","0.0-15.0-0.8","39534","","new_stimuli/mp3/melody_^1_v6_v5+_.mp3","","null","",""
"","16990.260000000475","html-button-response","114","915427","0.0-15.0-1.8","39534","","<p>Which tone was played first after the cadence?</p><p>Please respond as quickly and as accurately as possible!</p>","12","","1","new_stimuli/mp3/melody_^1_v6_v5+_.mp3"
"","526.8099999993574","html-button-response","115","915956","0.0-15.0-2.8","39534","","<p>Which tone was played second after the cadence?</p><p>Please respond as quickly and as accurately as possible!</p>","9","","2","new_stimuli/mp3/melody_^1_v6_v5+_.mp3"
"","326.98999999964144","html-button-response","116","916284","0.0-15.0-3.8","39534","","<p>Which tone was played third after the cadence?</p><p>Please respond as quickly and as accurately as possible!</p>","8","","3","new_stimuli/mp3/melody_^1_v6_v5+_.mp3"
"[{""page_index"":0,""viewing_time"":4103.535000000265},{""page_index"":1,""viewing_time"":1135.795000000042},{""page_index"":2,""viewing_time"":903.9350000002887}]","6143.39500000095","instructions","117","922428","0.0-16.0","39534","","","","","",""
"","null","audio-keyboard-response","118","933051","0.0-17.0-0.0","39534","","new_stimuli/mp3/melody_v5_^6+_^7_^1_5_.mp3","","null","",""
"","1311.0000000015134","html-button-response","119","934364","0.0-17.0-1.0","39534","","<p>Which tone was played first after the cadence?</p><p>Please respond as quickly and as accurately as possible!</p>","7","","1","new_stimuli/mp3/melody_v5_^6+_^7_^1_5_.mp3"
"","607.350000000326","html-button-response","120","934972","0.0-17.0-2.0","39534","","<p>Which tone was played second after the cadence?</p><p>Please respond as quickly and as accurately as possible!</p>","9","","2","new_stimuli/mp3/melody_v5_^6+_^7_^1_5_.mp3"
"","566.1899999995949","html-button-response","121","935540","0.0-17.0-3.0","39534","","<p>Which tone was played third after the cadence?</p><p>Please respond as quickly and as accurately as possible!</p>","11","","3","new_stimuli/mp3/melody_v5_^6+_^7_^1_5_.mp3"
"","519.3450000005541","html-button-response","122","936060","0.0-17.0-4.0","39534","","<p>Which tone was played fourth after the cadence?</p><p>Please respond as quickly and as accurately as possible!</p>","12","","4","new_stimuli/mp3/melody_v5_^6+_^7_^1_5_.mp3"
"","575.1799999998184","html-button-response","123","936636","0.0-17.0-5.0","39534","","<p>Which tone was played fifth after the cadence?</p><p>Please respond as quickly and as accurately as possible!</p>","7","","5","new_stimuli/mp3/melody_v5_^6+_^7_^1_5_.mp3"
"","null","audio-keyboard-response","124","947215","0.0-17.0-0.1","39534","","new_stimuli/mp3/melody_v5_v4_v3_v2_v1_.mp3","","null","",""
"","1586.3900000004796","html-button-response","125","948804","0.0-17.0-1.1","39534","","<p>Which tone was played first after the cadence?</p><p>Please respond as quickly and as accurately as possible!</p>","7","","1","new_stimuli/mp3/melody_v5_v4_v3_v2_v1_.mp3"
"","551.1099999984726","html-button-response","126","949356","0.0-17.0-2.1","39534","","<p>Which tone was played second after the cadence?</p><p>Please respond as quickly and as accurately as possible!</p>","5","","2","new_stimuli/mp3/melody_v5_v4_v3_v2_v1_.mp3"
"","511.23499999998603","html-button-response","127","949868","0.0-17.0-3.1","39534","","<p>Which tone was played third after the cadence?</p><p>Please respond as quickly and as accurately as possible!</p>","4","","3","new_stimuli/mp3/melody_v5_v4_v3_v2_v1_.mp3"
"","431.17999999958556","html-button-response","128","950300","0.0-17.0-4.1","39534","","<p>Which tone was played fourth after the cadence?</p><p>Please respond as quickly and as accurately as possible!</p>","2","","4","new_stimuli/mp3/melody_v5_v4_v3_v2_v1_.mp3"
"","551.1400000012945","html-button-response","129","950852","0.0-17.0-5.1","39534","","<p>Which tone was played fifth after the cadence?</p><p>Please respond as quickly and as accurately as possible!</p>","0","","5","new_stimuli/mp3/melody_v5_v4_v3_v2_v1_.mp3"
"","null","audio-keyboard-response","130","961567","0.0-17.0-0.2","39534","","new_stimuli/mp3/melody_^6_v5_v4_v3_v2_buffer.mp3","","null","",""
"","1819.2799999996787","html-button-response","131","963388","0.0-17.0-1.2","39534","","<p>Which tone was played first after the cadence?</p><p>Please respond as quickly and as accurately as possible!</p>","9","","1","new_stimuli/mp3/melody_^6_v5_v4_v3_v2_buffer.mp3"
"","566.9400000006426","html-button-response","132","963956","0.0-17.0-2.2","39534","","<p>Which tone was played second after the cadence?</p><p>Please respond as quickly and as accurately as possible!</p>","7","","2","new_stimuli/mp3/melody_^6_v5_v4_v3_v2_buffer.mp3"
"","567.1399999991991","html-button-response","133","964524","0.0-17.0-3.2","39534","","<p>Which tone was played third after the cadence?</p><p>Please respond as quickly and as accurately as possible!</p>","5","","3","new_stimuli/mp3/melody_^6_v5_v4_v3_v2_buffer.mp3"
"","407.3299999999581","html-button-response","134","964932","0.0-17.0-4.2","39534","","<p>Which tone was played fourth after the cadence?</p><p>Please respond as quickly and as accurately as possible!</p>","4","","4","new_stimuli/mp3/melody_^6_v5_v4_v3_v2_buffer.mp3"
"","519.3550000003306","html-button-response","135","965452","0.0-17.0-5.2","39534","","<p>Which tone was played fifth after the cadence?</p><p>Please respond as quickly and as accurately as possible!</p>","2","","5","new_stimuli/mp3/melody_^6_v5_v4_v3_v2_buffer.mp3"
"","null","audio-keyboard-response","136","976091","0.0-17.0-0.3","39534","","new_stimuli/mp3/melody_^6_v4_v3_^4_^5_.mp3","","null","",""
"","5614.455000000889","html-button-response","137","981708","0.0-17.0-1.3","39534","","<p>Which tone was played first after the cadence?</p><p>Please respond as quickly and as accurately as possible!</p>","7","","1","new_stimuli/mp3/melody_^6_v4_v3_^4_^5_.mp3"
"","535.149999999674","html-button-response","138","982244","0.0-17.0-2.3","39534","","<p>Which tone was played second after the cadence?</p><p>Please respond as quickly and as accurately as possible!</p>","4","","2","new_stimuli/mp3/melody_^6_v4_v3_^4_^5_.mp3"
"","1679.269999998738","html-button-response","139","983924","0.0-17.0-3.3","39534","","<p>Which tone was played third after the cadence?</p><p>Please respond as quickly and as accurately as possible!</p>","2","","3","new_stimuli/mp3/melody_^6_v4_v3_^4_^5_.mp3"
"","472.4299999998184","html-button-response","140","984397","0.0-17.0-4.3","39534","","<p>Which tone was played fourth after the cadence?</p><p>Please respond as quickly and as accurately as possible!</p>","4","","4","new_stimuli/mp3/melody_^6_v4_v3_^4_^5_.mp3"
"","326.0650000011083","html-button-response","141","984724","0.0-17.0-5.3","39534","","<p>Which tone was played fifth after the cadence?</p><p>Please respond as quickly and as accurately as possible!</p>","5","","5","new_stimuli/mp3/melody_^6_v4_v3_^4_^5_.mp3"
"","null","audio-keyboard-response","142","995303","0.0-17.0-0.4","39534","","new_stimuli/mp3/melody_v5_v4_v3_v2_v1 _buffer.mp3","","null","",""
"","1282.3300000000745","html-button-response","143","996588","0.0-17.0-1.4","39534","","<p>Which tone was played first after the cadence?</p><p>Please respond as quickly and as accurately as possible!</p>","7","","1","new_stimuli/mp3/melody_v5_v4_v3_v2_v1 _buffer.mp3"
"","519.1899999990128","html-button-response","144","997108","0.0-17.0-2.4","39534","","<p>Which tone was played second after the cadence?</p><p>Please respond as quickly and as accurately as possible!</p>","5","","2","new_stimuli/mp3/melody_v5_v4_v3_v2_v1 _buffer.mp3"
"","407.2250000007916","html-button-response","145","997516","0.0-17.0-3.4","39534","","<p>Which tone was played third after the cadence?</p><p>Please respond as quickly and as accurately as possible!</p>","4","","3","new_stimuli/mp3/melody_v5_v4_v3_v2_v1 _buffer.mp3"
"","591.1350000005914","html-button-response","146","998108","0.0-17.0-4.4","39534","","<p>Which tone was played fourth after the cadence?</p><p>Please respond as quickly and as accurately as possible!</p>","2","","4","new_stimuli/mp3/melody_v5_v4_v3_v2_v1 _buffer.mp3"
"","431.3750000001164","html-button-response","147","998540","0.0-17.0-5.4","39534","","<p>Which tone was played fifth after the cadence?</p><p>Please respond as quickly and as accurately as possible!</p>","0","","5","new_stimuli/mp3/melody_v5_v4_v3_v2_v1 _buffer.mp3"
"","null","audio-keyboard-response","148","1009127","0.0-17.0-0.5","39534","","new_stimuli/mp3/melody_v2_2_^3_^4_v2_.mp3","","null","",""
"","2962.2999999992317","html-button-response","149","1012092","0.0-17.0-1.5","39534","","<p>Which tone was played first after the cadence?</p><p>Please respond as quickly and as accurately as possible!</p>","2","","1","new_stimuli/mp3/melody_v2_2_^3_^4_v2_.mp3"
"","486.9350000008708","html-button-response","150","1012580","0.0-17.0-2.5","39534","","<p>Which tone was played second after the cadence?</p><p>Please respond as quickly and as accurately as possible!</p>","2","","2","new_stimuli/mp3/melody_v2_2_^3_^4_v2_.mp3"
"","623.5599999999395","html-button-response","151","1013204","0.0-17.0-3.5","39534","","<p>Which tone was played third after the cadence?</p><p>Please respond as quickly and as accurately as possible!</p>","4","","3","new_stimuli/mp3/melody_v2_2_^3_^4_v2_.mp3"
"","455.2050000001909","html-button-response","152","1013660","0.0-17.0-4.5","39534","","<p>Which tone was played fourth after the cadence?</p><p>Please respond as quickly and as accurately as possible!</p>","5","","4","new_stimuli/mp3/melody_v2_2_^3_^4_v2_.mp3"
"","959.1100000014994","html-button-response","153","1014620","0.0-17.0-5.5","39534","","<p>Which tone was played fifth after the cadence?</p><p>Please respond as quickly and as accurately as possible!</p>","2","","5","new_stimuli/mp3/melody_v2_2_^3_^4_v2_.mp3"
"","null","audio-keyboard-response","154","1025571","0.0-17.0-0.6","39534","","new_stimuli/mp3/melody_^5_^6_v5_v4_v3_buffer.mp3","","null","",""
"","3887.029999999795","html-button-response","155","1029460","0.0-17.0-1.6","39534","","<p>Which tone was played first after the cadence?</p><p>Please respond as quickly and as accurately as possible!</p>","7","","1","new_stimuli/mp3/melody_^5_^6_v5_v4_v3_buffer.mp3"
"","727.3450000011362","html-button-response","156","1030188","0.0-17.0-2.6","39534","","<p>Which tone was played second after the cadence?</p><p>Please respond as quickly and as accurately as possible!</p>","9","","2","new_stimuli/mp3/melody_^5_^6_v5_v4_v3_buffer.mp3"
"","711.4000000001397","html-button-response","157","1030900","0.0-17.0-3.6","39534","","<p>Which tone was played third after the cadence?</p><p>Please respond as quickly and as accurately as possible!</p>","7","","3","new_stimuli/mp3/melody_^5_^6_v5_v4_v3_buffer.mp3"
"","463.48500000021886","html-button-response","158","1031364","0.0-17.0-4.6","39534","","<p>Which tone was played fourth after the cadence?</p><p>Please respond as quickly and as accurately as possible!</p>","5","","4","new_stimuli/mp3/melody_^5_^6_v5_v4_v3_buffer.mp3"
"","382.84000000020023","html-button-response","159","1031748","0.0-17.0-5.6","39534","","<p>Which tone was played fifth after the cadence?</p><p>Please respond as quickly and as accurately as possible!</p>","4","","5","new_stimuli/mp3/melody_^5_^6_v5_v4_v3_buffer.mp3"
"","null","audio-keyboard-response","160","1042690","0.0-17.0-0.7","39534","","new_stimuli/mp3/melody_v5-_v3_3_^4+_v3_.mp3","","null","",""
"","7439.355000000331","html-button-response","161","1050131","0.0-17.0-1.7","39534","","<p>Which tone was played first after the cadence?</p><p>Please respond as quickly and as accurately as possible!</p>","6","","1","new_stimuli/mp3/melody_v5-_v3_3_^4+_v3_.mp3"
"","671.1599999999162","html-button-response","162","1050803","0.0-17.0-2.7","39534","","<p>Which tone was played second after the cadence?</p><p>Please respond as quickly and as accurately as possible!</p>","4","","2","new_stimuli/mp3/melody_v5-_v3_3_^4+_v3_.mp3"
"","367.1549999997951","html-button-response","163","1051171","0.0-17.0-3.7","39534","","<p>Which tone was played third after the cadence?</p><p>Please respond as quickly and as accurately as possible!</p>","4","","3","new_stimuli/mp3/melody_v5-_v3_3_^4+_v3_.mp3"
"","423.39500000164844","html-button-response","164","1051596","0.0-17.0-4.7","39534","","<p>Which tone was played fourth after the cadence?</p><p>Please respond as quickly and as accurately as possible!</p>","6","","4","new_stimuli/mp3/melody_v5-_v3_3_^4+_v3_.mp3"
"","399.31000000075437","html-button-response","165","1051996","0.0-17.0-5.7","39534","","<p>Which tone was played fifth after the cadence?</p><p>Please respond as quickly and as accurately as possible!</p>","4","","5","new_stimuli/mp3/melody_v5-_v3_3_^4+_v3_.mp3"
"[{""page_index"":0,""viewing_time"":2655.2399999999907},{""page_index"":1,""viewing_time"":1071.9250000000466},{""page_index"":2,""viewing_time"":1040.3249999999534}]","4767.610000000568","instructions","166","1056764","0.0-18.0","39534","","","","","",""
"","null","audio-keyboard-response","167","1068726","0.0-19.0-0.0","39534","","new_stimuli/mp3/melody_1_^3_v1_^5_v3_v2_^3_.mp3","","null","",""
"","1315.6950000009965","html-button-response","168","1070044","0.0-19.0-1.0","39534","","<p>Which tone was played first after the cadence?</p><p>Please respond as quickly and as accurately as possible!</p>","0","","1","new_stimuli/mp3/melody_1_^3_v1_^5_v3_v2_^3_.mp3"
"","5222.985000000335","html-button-response","169","1075267","0.0-19.0-2.0","39534","","<p>Which tone was played second after the cadence?</p><p>Please respond as quickly and as accurately as possible!</p>","5","","2","new_stimuli/mp3/melody_1_^3_v1_^5_v3_v2_^3_.mp3"
"","951.1049999999814","html-button-response","170","1076219","0.0-19.0-3.0","39534","","<p>Which tone was played third after the cadence?</p><p>Please respond as quickly and as accurately as possible!</p>","0","","3","new_stimuli/mp3/melody_1_^3_v1_^5_v3_v2_^3_.mp3"
"","1143.1850000007544","html-button-response","171","1077363","0.0-19.0-4.0","39534","","<p>Which tone was played fourth after the cadence?</p><p>Please respond as quickly and as accurately as possible!</p>","7","","4","new_stimuli/mp3/melody_1_^3_v1_^5_v3_v2_^3_.mp3"
"","735.2399999999907","html-button-response","172","1078099","0.0-19.0-5.0","39534","","<p>Which tone was played fifth after the cadence?</p><p>Please respond as quickly and as accurately as possible!</p>","5","","5","new_stimuli/mp3/melody_1_^3_v1_^5_v3_v2_^3_.mp3"
"","495.2350000003353","html-button-response","173","1078595","0.0-19.0-6.0","39534","","<p>Which tone was played sixth after the cadence?</p><p>Please respond as quickly and as accurately as possible!</p>","4","","6","new_stimuli/mp3/melody_1_^3_v1_^5_v3_v2_^3_.mp3"
"","519.2050000005402","html-button-response","174","1079115","0.0-19.0-7.0","39534","","<p>Which tone was played seventh after the cadence?</p><p>Please respond as quickly and as accurately as possible!</p>","5","","7","new_stimuli/mp3/melody_1_^3_v1_^5_v3_v2_^3_.mp3"
"","null","audio-keyboard-response","175","1090763","0.0-19.0-0.1","39534","","new_stimuli/mp3/melody_^6_v5+_v4_^5+_v3_v1_v7-_.mp3","","null","",""
"","4430.539999999339","html-button-response","176","1095196","0.0-19.0-1.1","39534","","<p>Which tone was played first after the cadence?</p><p>Please respond as quickly and as accurately as possible!</p>","10","","1","new_stimuli/mp3/melody_^6_v5+_v4_^5+_v3_v1_v7-_.mp3"
"","1238.4099999999162","html-button-response","177","1096436","0.0-19.0-2.1","39534","","<p>Which tone was played second after the cadence?</p><p>Please respond as quickly and as accurately as possible!</p>","9","","2","new_stimuli/mp3/melody_^6_v5+_v4_^5+_v3_v1_v7-_.mp3"
"","838.649999999674","html-button-response","178","1097275","0.0-19.0-3.1","39534","","<p>Which tone was played third after the cadence?</p><p>Please respond as quickly and as accurately as possible!</p>","7","","3","new_stimuli/mp3/melody_^6_v5+_v4_^5+_v3_v1_v7-_.mp3"
"","599.589999999851","html-button-response","179","1097876","0.0-19.0-4.1","39534","","<p>Which tone was played fourth after the cadence?</p><p>Please respond as quickly and as accurately as possible!</p>","9","","4","new_stimuli/mp3/melody_^6_v5+_v4_^5+_v3_v1_v7-_.mp3"
"","4119.21499999892","html-button-response","180","1101995","0.0-19.0-5.1","39534","","<p>Which tone was played fifth after the cadence?</p><p>Please respond as quickly and as accurately as possible!</p>","6","","5","new_stimuli/mp3/melody_^6_v5+_v4_^5+_v3_v1_v7-_.mp3"
"","630.7550000001211","html-button-response","181","1102627","0.0-19.0-6.1","39534","","<p>Which tone was played sixth after the cadence?</p><p>Please respond as quickly and as accurately as possible!</p>","3","","6","new_stimuli/mp3/melody_^6_v5+_v4_^5+_v3_v1_v7-_.mp3"
"","495.23499999847263","html-button-response","182","1103123","0.0-19.0-7.1","39534","","<p>Which tone was played seventh after the cadence?</p><p>Please respond as quickly and as accurately as possible!</p>","2","","7","new_stimuli/mp3/melody_^6_v5+_v4_^5+_v3_v1_v7-_.mp3"
"","null","audio-keyboard-response","183","1114807","0.0-19.0-0.2","39534","","new_stimuli/mp3/melody_^4_v6-_v5-_^6-_^4_v2-_2-_.mp3","","null","",""
"","8026.524999999441","html-button-response","184","1122835","0.0-19.0-1.2","39534","","<p>Which tone was played first after the cadence?</p><p>Please respond as quickly and as accurately as possible!</p>","3","","1","new_stimuli/mp3/melody_^4_v6-_v5-_^6-_^4_v2-_2-_.mp3"
"","2271.075000000419","html-button-response","185","1125107","0.0-19.0-2.2","39534","","<p>Which tone was played second after the cadence?</p><p>Please respond as quickly and as accurately as possible!</p>","10","","2","new_stimuli/mp3/melody_^4_v6-_v5-_^6-_^4_v2-_2-_.mp3"
"","390.99999999976717","html-button-response","186","1125499","0.0-19.0-3.2","39534","","<p>Which tone was played third after the cadence?</p><p>Please respond as quickly and as accurately as possible!</p>","10","","3","new_stimuli/mp3/melody_^4_v6-_v5-_^6-_^4_v2-_2-_.mp3"
"","727.1099999998696","html-button-response","187","1126227","0.0-19.0-4.2","39534","","<p>Which tone was played fourth after the cadence?</p><p>Please respond as quickly and as accurately as possible!</p>","3","","4","new_stimuli/mp3/melody_^4_v6-_v5-_^6-_^4_v2-_2-_.mp3"
"","1823.5849999999627","html-button-response","188","1128051","0.0-19.0-5.2","39534","","<p>Which tone was played fifth after the cadence?</p><p>Please respond as quickly and as accurately as possible!</p>","1","","5","new_stimuli/mp3/melody_^4_v6-_v5-_^6-_^4_v2-_2-_.mp3"
"","2271.2200000006706","html-button-response","189","1130323","0.0-19.0-6.2","39534","","<p>Which tone was played sixth after the cadence?</p><p>Please respond as quickly and as accurately as possible!</p>","10","","6","new_stimuli/mp3/melody_^4_v6-_v5-_^6-_^4_v2-_2-_.mp3"
"","551.1850000002887","html-button-response","190","1130875","0.0-19.0-7.2","39534","","<p>Which tone was played seventh after the cadence?</p><p>Please respond as quickly and as accurately as possible!</p>","11","","7","new_stimuli/mp3/melody_^4_v6-_v5-_^6-_^4_v2-_2-_.mp3"
"","null","audio-keyboard-response","191","1142579","0.0-19.0-0.3","39534","","new_stimuli/mp3/melody_^4_^5_^6_v5_v4_v3_v2_.mp3","","null","",""
"","3974.239999999525","html-button-response","192","1146555","0.0-19.0-1.3","39534","","<p>Which tone was played first after the cadence?</p><p>Please respond as quickly and as accurately as possible!</p>","5","","1","new_stimuli/mp3/melody_^4_^5_^6_v5_v4_v3_v2_.mp3"
"","639.159999998752","html-button-response","193","1147195","0.0-19.0-2.3","39534","","<p>Which tone was played second after the cadence?</p><p>Please respond as quickly and as accurately as possible!</p>","7","","2","new_stimuli/mp3/melody_^4_^5_^6_v5_v4_v3_v2_.mp3"
"","982.8600000001024","html-button-response","194","1148180","0.0-19.0-3.3","39534","","<p>Which tone was played third after the cadence?</p><p>Please respond as quickly and as accurately as possible!</p>","9","","3","new_stimuli/mp3/melody_^4_^5_^6_v5_v4_v3_v2_.mp3"
"","422.945000000298","html-button-response","195","1148604","0.0-19.0-4.3","39534","","<p>Which tone was played fourth after the cadence?</p><p>Please respond as quickly and as accurately as possible!</p>","7","","4","new_stimuli/mp3/melody_^4_^5_^6_v5_v4_v3_v2_.mp3"
"","478.88000000058673","html-button-response","196","1149083","0.0-19.0-5.3","39534","","<p>Which tone was played fifth after the cadence?</p><p>Please respond as quickly and as accurately as possible!</p>","5","","5","new_stimuli/mp3/melody_^4_^5_^6_v5_v4_v3_v2_.mp3"
"","439.2549999994226","html-button-response","197","1149523","0.0-19.0-6.3","39534","","<p>Which tone was played sixth after the cadence?</p><p>Please respond as quickly and as accurately as possible!</p>","4","","6","new_stimuli/mp3/melody_^4_^5_^6_v5_v4_v3_v2_.mp3"
"","527.0549999985378","html-button-response","198","1150051","0.0-19.0-7.3","39534","","<p>Which tone was played seventh after the cadence?</p><p>Please respond as quickly and as accurately as possible!</p>","2","","7","new_stimuli/mp3/melody_^4_^5_^6_v5_v4_v3_v2_.mp3"
"","null","audio-keyboard-response","199","1161762","0.0-19.0-0.4","39534","","new_stimuli/mp3/melody_v1_^2_v1_v7_^1_^3_v2_.mp3","","null","",""
"","935.6000000007916","html-button-response","200","1162700","0.0-19.0-1.4","39534","","<p>Which tone was played first after the cadence?</p><p>Please respond as quickly and as accurately as possible!</p>","0","","1","new_stimuli/mp3/melody_v1_^2_v1_v7_^1_^3_v2_.mp3"
"","447.03999999910593","html-button-response","201","1163147","0.0-19.0-2.4","39534","","<p>Which tone was played second after the cadence?</p><p>Please respond as quickly and as accurately as possible!</p>","2","","2","new_stimuli/mp3/melody_v1_^2_v1_v7_^1_^3_v2_.mp3"
"","487.18499999982305","html-button-response","202","1163635","0.0-19.0-3.4","39534","","<p>Which tone was played third after the cadence?</p><p>Please respond as quickly and as accurately as possible!</p>","0","","3","new_stimuli/mp3/melody_v1_^2_v1_v7_^1_^3_v2_.mp3"
"","1136.5200000000186","html-button-response","203","1164773","0.0-19.0-4.4","39534","","<p>Which tone was played fourth after the cadence?</p><p>Please respond as quickly and as accurately as possible!</p>","11","","4","new_stimuli/mp3/melody_v1_^2_v1_v7_^1_^3_v2_.mp3"
"","821.909999998752","html-button-response","204","1165595","0.0-19.0-5.4","39534","","<p>Which tone was played fifth after the cadence?</p><p>Please respond as quickly and as accurately as possible!</p>","0","","5","new_stimuli/mp3/melody_v1_^2_v1_v7_^1_^3_v2_.mp3"
"","5919.480000000447","html-button-response","205","1171515","0.0-19.0-6.4","39534","","<p>Which tone was played sixth after the cadence?</p><p>Please respond as quickly and as accurately as possible!</p>","4","","6","new_stimuli/mp3/melody_v1_^2_v1_v7_^1_^3_v2_.mp3"
"","518.9749999991618","html-button-response","206","1172035","0.0-19.0-7.4","39534","","<p>Which tone was played seventh after the cadence?</p><p>Please respond as quickly and as accurately as possible!</p>","2","","7","new_stimuli/mp3/melody_v1_^2_v1_v7_^1_^3_v2_.mp3"
"","null","audio-keyboard-response","207","1183747","0.0-19.0-0.5","39534","","new_stimuli/mp3/melody_^1_v7_v6_v5_v4_v3_v2_buffer.mp3","","null","",""
"","1174.2349999984726","html-button-response","208","1184924","0.0-19.0-1.5","39534","","<p>Which tone was played first after the cadence?</p><p>Please respond as quickly and as accurately as possible!</p>","12","","1","new_stimuli/mp3/melody_^1_v7_v6_v5_v4_v3_v2_buffer.mp3"
"","430.93499999842606","html-button-response","209","1185355","0.0-19.0-2.5","39534","","<p>Which tone was played second after the cadence?</p><p>Please respond as quickly and as accurately as possible!</p>","11","","2","new_stimuli/mp3/melody_^1_v7_v6_v5_v4_v3_v2_buffer.mp3"
"","479.339999999851","html-button-response","210","1185835","0.0-19.0-3.5","39534","","<p>Which tone was played third after the cadence?</p><p>Please respond as quickly and as accurately as possible!</p>","9","","3","new_stimuli/mp3/melody_^1_v7_v6_v5_v4_v3_v2_buffer.mp3"
"","496.2600000000093","html-button-response","211","1186333","0.0-19.0-4.5","39534","","<p>Which tone was played fourth after the cadence?</p><p>Please respond as quickly and as accurately as possible!</p>","7","","4","new_stimuli/mp3/melody_^1_v7_v6_v5_v4_v3_v2_buffer.mp3"
"","686.4749999986961","html-button-response","212","1187020","0.0-19.0-5.5","39534","","<p>Which tone was played fifth after the cadence?</p><p>Please respond as quickly and as accurately as possible!</p>","5","","5","new_stimuli/mp3/melody_^1_v7_v6_v5_v4_v3_v2_buffer.mp3"
"","1055.0299999995623","html-button-response","213","1188076","0.0-19.0-6.5","39534","","<p>Which tone was played sixth after the cadence?</p><p>Please respond as quickly and as accurately as possible!</p>","4","","6","new_stimuli/mp3/melody_^1_v7_v6_v5_v4_v3_v2_buffer.mp3"
"","527.1900000006426","html-button-response","214","1188604","0.0-19.0-7.5","39534","","<p>Which tone was played seventh after the cadence?</p><p>Please respond as quickly and as accurately as possible!</p>","2","","7","new_stimuli/mp3/melody_^1_v7_v6_v5_v4_v3_v2_buffer.mp3"
"","null","audio-keyboard-response","215","1200179","0.0-19.0-0.6","39534","","new_stimuli/mp3/melody_^5_^6_v5_v4_v3_v2_v1_buffer.mp3","","null","",""
"","1526.8150000011083","html-button-response","216","1201708","0.0-19.0-1.6","39534","","<p>Which tone was played first after the cadence?</p><p>Please respond as quickly and as accurately as possible!</p>","7","","1","new_stimuli/mp3/melody_^5_^6_v5_v4_v3_v2_v1_buffer.mp3"
"","743.1050000013784","html-button-response","217","1202452","0.0-19.0-2.6","39534","","<p>Which tone was played second after the cadence?</p><p>Please respond as quickly and as accurately as possible!</p>","9","","2","new_stimuli/mp3/melody_^5_^6_v5_v4_v3_v2_v1_buffer.mp3"
"","631.2899999993388","html-button-response","218","1203084","0.0-19.0-3.6","39534","","<p>Which tone was played third after the cadence?</p><p>Please respond as quickly and as accurately as possible!</p>","7","","3","new_stimuli/mp3/melody_^5_^6_v5_v4_v3_v2_v1_buffer.mp3"
"","479.2849999994505","html-button-response","219","1203564","0.0-19.0-4.6","39534","","<p>Which tone was played fourth after the cadence?</p><p>Please respond as quickly and as accurately as possible!</p>","5","","4","new_stimuli/mp3/melody_^5_^6_v5_v4_v3_v2_v1_buffer.mp3"
"","318.9349999993574","html-button-response","220","1203883","0.0-19.0-5.6","39534","","<p>Which tone was played fifth after the cadence?</p><p>Please respond as quickly and as accurately as possible!</p>","4","","5","new_stimuli/mp3/melody_^5_^6_v5_v4_v3_v2_v1_buffer.mp3"
"","503.4550000000745","html-button-response","221","1204388","0.0-19.0-6.6","39534","","<p>Which tone was played sixth after the cadence?</p><p>Please respond as quickly and as accurately as possible!</p>","2","","6","new_stimuli/mp3/melody_^5_^6_v5_v4_v3_v2_v1_buffer.mp3"
"","471.3549999995157","html-button-response","222","1204860","0.0-19.0-7.6","39534","","<p>Which tone was played seventh after the cadence?</p><p>Please respond as quickly and as accurately as possible!</p>","0","","7","new_stimuli/mp3/melody_^5_^6_v5_v4_v3_v2_v1_buffer.mp3"
"[{""page_index"":0,""viewing_time"":2679.3400000005495},{""page_index"":1,""viewing_time"":1791.9449999991339},{""page_index"":2,""viewing_time"":1111.964999999851}]","5583.375000000233","instructions","223","1210443","0.0-20.0","39534","","","","","",""
"","null","audio-keyboard-response","224","1223143","0.0-21.0-0.0","39534","","new_stimuli/mp3/melody_^2_^3_^4_^5_^6_v5_v4_v3_v2_buffer.mp3","","null","",""
"","4563.070000000298","html-button-response","225","1227708","0.0-21.0-1.0","39534","","<p>Which tone was played first after the cadence?</p><p>Please respond as quickly and as accurately as possible!</p>","2","","1","new_stimuli/mp3/melody_^2_^3_^4_^5_^6_v5_v4_v3_v2_buffer.mp3"
"","902.9349999981932","html-button-response","226","1228612","0.0-21.0-2.0","39534","","<p>Which tone was played second after the cadence?</p><p>Please respond as quickly and as accurately as possible!</p>","4","","2","new_stimuli/mp3/melody_^2_^3_^4_^5_^6_v5_v4_v3_v2_buffer.mp3"
"","407.1899999997113","html-button-response","227","1229020","0.0-21.0-3.0","39534","","<p>Which tone was played third after the cadence?</p><p>Please respond as quickly and as accurately as possible!</p>","5","","3","new_stimuli/mp3/melody_^2_^3_^4_^5_^6_v5_v4_v3_v2_buffer.mp3"
"","471.3599999996368","html-button-response","228","1229492","0.0-21.0-4.0","39534","","<p>Which tone was played fourth after the cadence?</p><p>Please respond as quickly and as accurately as possible!</p>","7","","4","new_stimuli/mp3/melody_^2_^3_^4_^5_^6_v5_v4_v3_v2_buffer.mp3"
"","479.28999999933876","html-button-response","229","1229972","0.0-21.0-5.0","39534","","<p>Which tone was played fifth after the cadence?</p><p>Please respond as quickly and as accurately as possible!</p>","9","","5","new_stimuli/mp3/melody_^2_^3_^4_^5_^6_v5_v4_v3_v2_buffer.mp3"
"","479.0900000007823","html-button-response","230","1230452","0.0-21.0-6.0","39534","","<p>Which tone was played sixth after the cadence?</p><p>Please respond as quickly and as accurately as possible!</p>","7","","6","new_stimuli/mp3/melody_^2_^3_^4_^5_^6_v5_v4_v3_v2_buffer.mp3"
"","479.3300000000745","html-button-response","231","1230932","0.0-21.0-7.0","39534","","<p>Which tone was played seventh after the cadence?</p><p>Please respond as quickly and as accurately as possible!</p>","5","","7","new_stimuli/mp3/melody_^2_^3_^4_^5_^6_v5_v4_v3_v2_buffer.mp3"
"","439.21500000031665","html-button-response","232","1231372","0.0-21.0-8.0","39534","","<p>Which tone was played eight after the cadence?</p><p>Please respond as quickly and as accurately as possible!</p>","4","","8","new_stimuli/mp3/melody_^2_^3_^4_^5_^6_v5_v4_v3_v2_buffer.mp3"
"","463.1550000011921","html-button-response","233","1231836","0.0-21.0-9.0","39534","","<p>Which tone was played nineth after the cadence?</p><p>Please respond as quickly and as accurately as possible!</p>","2","","9","new_stimuli/mp3/melody_^2_^3_^4_^5_^6_v5_v4_v3_v2_buffer.mp3"
"","null","audio-keyboard-response","234","1244767","0.0-21.0-0.1","39534","","new_stimuli/mp3/melody_^2_^4_v3_v2_v1_v3_v2+_^3_^5+_.mp3","","null","",""
"","1153.7750000006054","html-button-response","235","1245924","0.0-21.0-1.1","39534","","<p>Which tone was played first after the cadence?</p><p>Please respond as quickly and as accurately as possible!</p>","2","","1","new_stimuli/mp3/melody_^2_^4_v3_v2_v1_v3_v2+_^3_^5+_.mp3"
"","542.4050000002608","html-button-response","236","1246468","0.0-21.0-2.1","39534","","<p>Which tone was played second after the cadence?</p><p>Please respond as quickly and as accurately as possible!</p>","5","","2","new_stimuli/mp3/melody_^2_^4_v3_v2_v1_v3_v2+_^3_^5+_.mp3"
"","511.0150000001304","html-button-response","237","1246980","0.0-21.0-3.1","39534","","<p>Which tone was played third after the cadence?</p><p>Please respond as quickly and as accurately as possible!</p>","4","","3","new_stimuli/mp3/melody_^2_^4_v3_v2_v1_v3_v2+_^3_^5+_.mp3"
"","463.57999999960884","html-button-response","238","1247444","0.0-21.0-4.1","39534","","<p>Which tone was played fourth after the cadence?</p><p>Please respond as quickly and as accurately as possible!</p>","2","","4","new_stimuli/mp3/melody_^2_^4_v3_v2_v1_v3_v2+_^3_^5+_.mp3"
"","550.7900000012014","html-button-response","239","1247996","0.0-21.0-5.1","39534","","<p>Which tone was played fifth after the cadence?</p><p>Please respond as quickly and as accurately as possible!</p>","0","","5","new_stimuli/mp3/melody_^2_^4_v3_v2_v1_v3_v2+_^3_^5+_.mp3"
"","510.9700000011362","html-button-response","240","1248516","0.0-21.0-6.1","39534","","<p>Which tone was played sixth after the cadence?</p><p>Please respond as quickly and as accurately as possible!</p>","3","","6","new_stimuli/mp3/melody_^2_^4_v3_v2_v1_v3_v2+_^3_^5+_.mp3"
"","1231.2350000010338","html-button-response","241","1249748","0.0-21.0-7.1","39534","","<p>Which tone was played seventh after the cadence?</p><p>Please respond as quickly and as accurately as possible!</p>","2","","7","new_stimuli/mp3/melody_^2_^4_v3_v2_v1_v3_v2+_^3_^5+_.mp3"
"","6735.285000000615","html-button-response","242","1256484","0.0-21.0-8.1","39534","","<p>Which tone was played eight after the cadence?</p><p>Please respond as quickly and as accurately as possible!</p>","7","","8","new_stimuli/mp3/melody_^2_^4_v3_v2_v1_v3_v2+_^3_^5+_.mp3"
"","3278.914999998873","html-button-response","243","1259764","0.0-21.0-9.1","39534","","<p>Which tone was played nineth after the cadence?</p><p>Please respond as quickly and as accurately as possible!</p>","7","","9","new_stimuli/mp3/melody_^2_^4_v3_v2_v1_v3_v2+_^3_^5+_.mp3"
"","null","audio-keyboard-response","244","1272415","0.0-21.0-0.2","39534","","new_stimuli/mp3/melody_v5_v4_v6+_^7_^3+_v3_v2_v5_^4_.mp3","","null","",""
"","946.4150000002701","html-button-response","245","1273364","0.0-21.0-1.2","39534","","<p>Which tone was played first after the cadence?</p><p>Please respond as quickly and as accurately as possible!</p>","7","","1","new_stimuli/mp3/melody_v5_v4_v6+_^7_^3+_v3_v2_v5_^4_.mp3"
"","623.7800000000279","html-button-response","246","1273989","0.0-21.0-2.2","39534","","<p>Which tone was played second after the cadence?</p><p>Please respond as quickly and as accurately as possible!</p>","5","","2","new_stimuli/mp3/melody_v5_v4_v6+_^7_^3+_v3_v2_v5_^4_.mp3"
"","1550.5350000003818","html-button-response","247","1275540","0.0-21.0-3.2","39534","","<p>Which tone was played third after the cadence?</p><p>Please respond as quickly and as accurately as possible!</p>","11","","3","new_stimuli/mp3/melody_v5_v4_v6+_^7_^3+_v3_v2_v5_^4_.mp3"
"","1119.3249999994878","html-button-response","248","1276660","0.0-21.0-4.2","39534","","<p>Which tone was played fourth after the cadence?</p><p>Please respond as quickly and as accurately as possible!</p>","0","","4","new_stimuli/mp3/melody_v5_v4_v6+_^7_^3+_v3_v2_v5_^4_.mp3"
"","1551.2500000004657","html-button-response","249","1278212","0.0-21.0-5.2","39534","","<p>Which tone was played fifth after the cadence?</p><p>Please respond as quickly and as accurately as possible!</p>","3","","5","new_stimuli/mp3/melody_v5_v4_v6+_^7_^3+_v3_v2_v5_^4_.mp3"
"","551.3500000014901","html-button-response","250","1278764","0.0-21.0-6.2","39534","","<p>Which tone was played sixth after the cadence?</p><p>Please respond as quickly and as accurately as possible!</p>","2","","6","new_stimuli/mp3/melody_v5_v4_v6+_^7_^3+_v3_v2_v5_^4_.mp3"
"","1063.2100000004284","html-button-response","251","1279828","0.0-21.0-7.2","39534","","<p>Which tone was played seventh after the cadence?</p><p>Please respond as quickly and as accurately as possible!</p>","8","","7","new_stimuli/mp3/melody_v5_v4_v6+_^7_^3+_v3_v2_v5_^4_.mp3"
"","631.5949999990407","html-button-response","252","1280461","0.0-21.0-8.2","39534","","<p>Which tone was played eight after the cadence?</p><p>Please respond as quickly and as accurately as possible!</p>","9","","8","new_stimuli/mp3/melody_v5_v4_v6+_^7_^3+_v3_v2_v5_^4_.mp3"
"","2750.595000001369","html-button-response","253","1283212","0.0-21.0-9.2","39534","","<p>Which tone was played nineth after the cadence?</p><p>Please respond as quickly and as accurately as possible!</p>","10","","9","new_stimuli/mp3/melody_v5_v4_v6+_^7_^3+_v3_v2_v5_^4_.mp3"
"","null","audio-keyboard-response","254","1295779","0.0-21.0-0.3","39534","","new_stimuli/mp3/melody_^3_^4_^5 _^6_v5_v4_v3_v2_v1_.mp3","","null","",""
"","1398.255000000121","html-button-response","255","1297180","0.0-21.0-1.3","39534","","<p>Which tone was played first after the cadence?</p><p>Please respond as quickly and as accurately as possible!</p>","4","","1","new_stimuli/mp3/melody_^3_^4_^5 _^6_v5_v4_v3_v2_v1_.mp3"
"","455.1050000009127","html-button-response","256","1297636","0.0-21.0-2.3","39534","","<p>Which tone was played second after the cadence?</p><p>Please respond as quickly and as accurately as possible!</p>","5","","2","new_stimuli/mp3/melody_^3_^4_^5 _^6_v5_v4_v3_v2_v1_.mp3"
"","1151.299999999581","html-button-response","257","1298788","0.0-21.0-3.3","39534","","<p>Which tone was played third after the cadence?</p><p>Please respond as quickly and as accurately as possible!</p>","7","","3","new_stimuli/mp3/melody_^3_^4_^5 _^6_v5_v4_v3_v2_v1_.mp3"
"","486.41499999933876","html-button-response","258","1299276","0.0-21.0-4.3","39534","","<p>Which tone was played fourth after the cadence?</p><p>Please respond as quickly and as accurately as possible!</p>","9","","4","new_stimuli/mp3/melody_^3_^4_^5 _^6_v5_v4_v3_v2_v1_.mp3"
"","471.0749999994878","html-button-response","259","1299748","0.0-21.0-5.3","39534","","<p>Which tone was played fifth after the cadence?</p><p>Please respond as quickly and as accurately as possible!</p>","7","","5","new_stimuli/mp3/melody_^3_^4_^5 _^6_v5_v4_v3_v2_v1_.mp3"
"","390.9300000013318","html-button-response","260","1300140","0.0-21.0-6.3","39534","","<p>Which tone was played sixth after the cadence?</p><p>Please respond as quickly and as accurately as possible!</p>","5","","6","new_stimuli/mp3/melody_^3_^4_^5 _^6_v5_v4_v3_v2_v1_.mp3"
"","391.2750000017695","html-button-response","261","1300532","0.0-21.0-7.3","39534","","<p>Which tone was played seventh after the cadence?</p><p>Please respond as quickly and as accurately as possible!</p>","4","","7","new_stimuli/mp3/melody_^3_^4_^5 _^6_v5_v4_v3_v2_v1_.mp3"
"","366.99000000045635","html-button-response","262","1300900","0.0-21.0-8.3","39534","","<p>Which tone was played eight after the cadence?</p><p>Please respond as quickly and as accurately as possible!</p>","2","","8","new_stimuli/mp3/melody_^3_^4_^5 _^6_v5_v4_v3_v2_v1_.mp3"
"","543.5600000000559","html-button-response","263","1301444","0.0-21.0-9.3","39534","","<p>Which tone was played nineth after the cadence?</p><p>Please respond as quickly and as accurately as possible!</p>","0","","9","new_stimuli/mp3/melody_^3_^4_^5 _^6_v5_v4_v3_v2_v1_.mp3"
"","null","audio-keyboard-response","264","1314091","0.0-21.0-0.4","39534","","new_stimuli/mp3/melody_v7_v6_v5_^6_v5_v4_^5_^6_v5_.mp3","","null","",""
"","8422.125000000931","html-button-response","265","1322526","0.0-21.0-1.4","39534","","<p>Which tone was played first after the cadence?</p><p>Please respond as quickly and as accurately as possible!</p>","9","","1","new_stimuli/mp3/melody_v7_v6_v5_^6_v5_v4_^5_^6_v5_.mp3"
"","389.00999999884516","html-button-response","266","1322916","0.0-21.0-2.4","39534","","<p>Which tone was played second after the cadence?</p><p>Please respond as quickly and as accurately as possible!</p>","7","","2","new_stimuli/mp3/melody_v7_v6_v5_^6_v5_v4_^5_^6_v5_.mp3"
"","495.1650000005029","html-button-response","267","1323412","0.0-21.0-3.4","39534","","<p>Which tone was played third after the cadence?</p><p>Please respond as quickly and as accurately as possible!</p>","5","","3","new_stimuli/mp3/melody_v7_v6_v5_^6_v5_v4_^5_^6_v5_.mp3"
"","383.3599999998696","html-button-response","268","1323796","0.0-21.0-4.4","39534","","<p>Which tone was played fourth after the cadence?</p><p>Please respond as quickly and as accurately as possible!</p>","7","","4","new_stimuli/mp3/melody_v7_v6_v5_^6_v5_v4_^5_^6_v5_.mp3"
"","343.50500000081956","html-button-response","269","1324141","0.0-21.0-5.4","39534","","<p>Which tone was played fifth after the cadence?</p><p>Please respond as quickly and as accurately as possible!</p>","5","","5","new_stimuli/mp3/melody_v7_v6_v5_^6_v5_v4_^5_^6_v5_.mp3"
"","350.7199999985751","html-button-response","270","1324492","0.0-21.0-6.4","39534","","<p>Which tone was played sixth after the cadence?</p><p>Please respond as quickly and as accurately as possible!</p>","4","","6","new_stimuli/mp3/melody_v7_v6_v5_^6_v5_v4_^5_^6_v5_.mp3"
"","303.4000000008382","html-button-response","271","1324796","0.0-21.0-7.4","39534","","<p>Which tone was played seventh after the cadence?</p><p>Please respond as quickly and as accurately as possible!</p>","5","","7","new_stimuli/mp3/melody_v7_v6_v5_^6_v5_v4_^5_^6_v5_.mp3"
"","415.2199999988079","html-button-response","272","1325212","0.0-21.0-8.4","39534","","<p>Which tone was played eight after the cadence?</p><p>Please respond as quickly and as accurately as possible!</p>","7","","8","new_stimuli/mp3/melody_v7_v6_v5_^6_v5_v4_^5_^6_v5_.mp3"
"","359.0900000000838","html-button-response","273","1325572","0.0-21.0-9.4","39534","","<p>Which tone was played nineth after the cadence?</p><p>Please respond as quickly and as accurately as possible!</p>","9","","9","new_stimuli/mp3/melody_v7_v6_v5_^6_v5_v4_^5_^6_v5_.mp3"
"","null","audio-keyboard-response","274","1338227","0.0-21.0-0.5","39534","","new_stimuli/mp3/melody_^3_^4_v2_v7_^1_^2_^3_3_^4_.mp3","","null","",""
"","1614.7599999983795","html-button-response","275","1339844","0.0-21.0-1.5","39534","","<p>Which tone was played first after the cadence?</p><p>Please respond as quickly and as accurately as possible!</p>","4","","1","new_stimuli/mp3/melody_^3_^4_v2_v7_^1_^2_^3_3_^4_.mp3"
"","527.169999999227","html-button-response","276","1340372","0.0-21.0-2.5","39534","","<p>Which tone was played second after the cadence?</p><p>Please respond as quickly and as accurately as possible!</p>","5","","2","new_stimuli/mp3/melody_^3_^4_v2_v7_^1_^2_^3_3_^4_.mp3"
"","511.2650000008289","html-button-response","277","1340884","0.0-21.0-3.5","39534","","<p>Which tone was played third after the cadence?</p><p>Please respond as quickly and as accurately as possible!</p>","4","","3","new_stimuli/mp3/melody_^3_^4_v2_v7_^1_^2_^3_3_^4_.mp3"
"","1183.1600000006147","html-button-response","278","1342068","0.0-21.0-4.5","39534","","<p>Which tone was played fourth after the cadence?</p><p>Please respond as quickly and as accurately as possible!</p>","2","","4","new_stimuli/mp3/melody_^3_^4_v2_v7_^1_^2_^3_3_^4_.mp3"
"","4864.10500000068","html-button-response","279","1346933","0.0-21.0-5.5","39534","","<p>Which tone was played fifth after the cadence?</p><p>Please respond as quickly and as accurately as possible!</p>","11","","5","new_stimuli/mp3/melody_^3_^4_v2_v7_^1_^2_^3_3_^4_.mp3"
"","382.05999999982305","html-button-response","280","1347316","0.0-21.0-6.5","39534","","<p>Which tone was played sixth after the cadence?</p><p>Please respond as quickly and as accurately as possible!</p>","11","","6","new_stimuli/mp3/melody_^3_^4_v2_v7_^1_^2_^3_3_^4_.mp3"
"","663.6100000012666","html-button-response","281","1347980","0.0-21.0-7.5","39534","","<p>Which tone was played seventh after the cadence?</p><p>Please respond as quickly and as accurately as possible!</p>","0","","7","new_stimuli/mp3/melody_^3_^4_v2_v7_^1_^2_^3_3_^4_.mp3"
"","1599.0149999998976","html-button-response","282","1349580","0.0-21.0-8.5","39534","","<p>Which tone was played eight after the cadence?</p><p>Please respond as quickly and as accurately as possible!</p>","4","","8","new_stimuli/mp3/melody_^3_^4_v2_v7_^1_^2_^3_3_^4_.mp3"
"","1327.1800000001676","html-button-response","283","1350908","0.0-21.0-9.5","39534","","<p>Which tone was played nineth after the cadence?</p><p>Please respond as quickly and as accurately as possible!</p>","4","","9","new_stimuli/mp3/melody_^3_^4_v2_v7_^1_^2_^3_3_^4_.mp3"
"","null","audio-keyboard-response","284","1363879","0.0-21.0-0.6","39534","","new_stimuli/mp3/melody_^5_^6_v5_v4_v3_v2_v1_^2_^3_buffer.mp3","","null","",""
"","2555.8149999997113","html-button-response","285","1366436","0.0-21.0-1.6","39534","","<p>Which tone was played first after the cadence?</p><p>Please respond as quickly and as accurately as possible!</p>","7","","1","new_stimuli/mp3/melody_^5_^6_v5_v4_v3_v2_v1_^2_^3_buffer.mp3"
"","983.1099999991711","html-button-response","286","1367420","0.0-21.0-2.6","39534","","<p>Which tone was played second after the cadence?</p><p>Please respond as quickly and as accurately as possible!</p>","9","","2","new_stimuli/mp3/melody_^5_^6_v5_v4_v3_v2_v1_^2_^3_buffer.mp3"
"","719.1249999997672","html-button-response","287","1368140","0.0-21.0-3.6","39534","","<p>Which tone was played third after the cadence?</p><p>Please respond as quickly and as accurately as possible!</p>","7","","3","new_stimuli/mp3/melody_^5_^6_v5_v4_v3_v2_v1_^2_^3_buffer.mp3"
"","439.11999999918044","html-button-response","288","1368580","0.0-21.0-4.6","39534","","<p>Which tone was played fourth after the cadence?</p><p>Please respond as quickly and as accurately as possible!</p>","5","","4","new_stimuli/mp3/melody_^5_^6_v5_v4_v3_v2_v1_^2_^3_buffer.mp3"
"","423.0349999999162","html-button-response","289","1369004","0.0-21.0-5.6","39534","","<p>Which tone was played fifth after the cadence?</p><p>Please respond as quickly and as accurately as possible!</p>","4","","5","new_stimuli/mp3/melody_^5_^6_v5_v4_v3_v2_v1_^2_^3_buffer.mp3"
"","503.16000000038184","html-button-response","290","1369508","0.0-21.0-6.6","39534","","<p>Which tone was played sixth after the cadence?</p><p>Please respond as quickly and as accurately as possible!</p>","2","","6","new_stimuli/mp3/melody_^5_^6_v5_v4_v3_v2_v1_^2_^3_buffer.mp3"
"","439.0650000004098","html-button-response","291","1369948","0.0-21.0-7.6","39534","","<p>Which tone was played seventh after the cadence?</p><p>Please respond as quickly and as accurately as possible!</p>","0","","7","new_stimuli/mp3/melody_^5_^6_v5_v4_v3_v2_v1_^2_^3_buffer.mp3"
"","527.6400000003632","html-button-response","292","1370476","0.0-21.0-8.6","39534","","<p>Which tone was played eight after the cadence?</p><p>Please respond as quickly and as accurately as possible!</p>","2","","8","new_stimuli/mp3/melody_^5_^6_v5_v4_v3_v2_v1_^2_^3_buffer.mp3"
"","495.419999999227","html-button-response","293","1370972","0.0-21.0-9.6","39534","","<p>Which tone was played nineth after the cadence?</p><p>Please respond as quickly and as accurately as possible!</p>","4","","9","new_stimuli/mp3/melody_^5_^6_v5_v4_v3_v2_v1_^2_^3_buffer.mp3"
"","35895.88000000012","survey-text","294","1406869","0.0-22.0","39534","{""Q0"":""Humming tonic, finding interval to first pitch, and then relative movement for subsequent pitches""}","","","","",""
"","1894.9499999999534","survey-text","295","1408764","0.0-23.0","39534","{""Q0"":""""}","","","","",""
"","15368.340000000782","survey-text","296","1424133","0.0-24.0","39534","{""Q0"":""Humming, but no instruments""}","","","","",""
"","4071.1250000004657","survey-text","297","1428205","0.0-25.0","39534","{""Q0"":""Speakers""}","","","","",""
"","2855.429999999702","survey-text","298","1431061","0.0-26.0","39534","{""Q0"":""Male""}","","","","",""
"","3111.345000001136","survey-text","299","1434173","0.0-27.0","39534","{""Q0"":""Yes""}","","","","",""
"[{""page_index"":0,""viewing_time"":5470.779999999562}]","5470.909999999916","instructions","300","1439644","0.0-28.0","39534","","","","","",""
