"view_history","rt","trial_type","trial_index","time_elapsed","internal_node_id","subject","responses","stimulus","button_pressed","key_press","response_sequence","melody"
"[{""page_index"":0,""viewing_time"":5102},{""page_index"":1,""viewing_time"":86449},{""page_index"":2,""viewing_time"":2657}]","94208","instructions","0","94236","0.0-0.0","4004","","","","","",""
"","4413","survey-text","1","98649","0.0-1.0","4004","{""Q0"":""41""}","","","","",""
"","23440","survey-text","2","122092","0.0-2.0","4004","{""Q0"":""Bachelor's""}","","","","",""
"","39397","survey-text","3","161491","0.0-3.0","4004","{""Q0"":""Moveable-Do, La-Based Minor""}","","","","",""
"","4612","survey-text","4","166104","0.0-4.0","4004","{""Q0"":""No""}","","","","",""
"","28201","survey-text","5","194306","0.0-5.0","4004","{""Q0"":""60 weeks""}","","","","",""
"","7554","survey-text","6","201860","0.0-6.0","4004","{""Q0"":""0""}","","","","",""
"[{""page_index"":0,""viewing_time"":25323},{""page_index"":1,""viewing_time"":1332119},{""page_index"":2,""viewing_time"":2100}]","1359542","instructions","7","1561404","0.0-7.0","4004","","","","","",""
"","11977","audio-button-response","8","1573385","0.0-8.0","4004","","stimuli/long/c-do.mp3","0","","",""
"","51712","audio-button-response","9","1625097","0.0-9.0","4004","","stimuli/long/a-le.mp3","8","","",""
"[{""page_index"":0,""viewing_time"":19742},{""page_index"":1,""viewing_time"":56181}]","75923","instructions","10","1701020","0.0-10.0","4004","","","","","",""
"","14228","audio-button-response","11","1715251","0.0-11.0-0.0","4004","","stimuli/long/a-te.mp3","6","","",""
"","null","audio-button-response","12","1735253","0.0-11.0-0.1","4004","","stimuli/long/e-re.mp3","null","","",""
"","11190","audio-button-response","13","1746444","0.0-11.0-0.2","4004","","stimuli/long/c-fa.mp3","4","","",""
"","10414","audio-button-response","14","1756859","0.0-11.0-0.3","4004","","stimuli/long/c-mi.mp3","5","","",""
"","11256","audio-button-response","15","1768115","0.0-11.0-0.4","4004","","stimuli/long/c-me.mp3","1","","",""
"","10256","audio-button-response","16","1778372","0.0-11.0-0.5","4004","","stimuli/long/c-la.mp3","12","","",""
"","12723","audio-button-response","17","1791096","0.0-11.0-0.6","4004","","stimuli/long/a-le.mp3","6","","",""
"","14327","audio-button-response","18","1805424","0.0-11.0-0.7","4004","","stimuli/long/a-re.mp3","3","","",""
"","9064","audio-button-response","19","1814489","0.0-11.0-0.8","4004","","stimuli/long/a-me.mp3","2","","",""
"","7816","audio-button-response","20","1822307","0.0-11.0-0.9","4004","","stimuli/long/e-ti.mp3","11","","",""
"","11211","audio-button-response","21","1833519","0.0-11.0-0.10","4004","","stimuli/long/a-fa.mp3","6","","",""
"","11845","audio-button-response","22","1845365","0.0-11.0-0.11","4004","","stimuli/long/e-fa.mp3","5","","",""
"","12703","audio-button-response","23","1858069","0.0-11.0-0.12","4004","","stimuli/long/a-ti.mp3","1","","",""
"","13189","audio-button-response","24","1871259","0.0-11.0-0.13","4004","","stimuli/long/c-fi.mp3","6","","",""
"","11813","audio-button-response","25","1883074","0.0-11.0-0.14","4004","","stimuli/long/c-re.mp3","11","","",""
"","10400","audio-button-response","26","1893473","0.0-11.0-0.15","4004","","stimuli/long/c-sol.mp3","7","","",""
"","10678","audio-button-response","27","1904152","0.0-11.0-0.16","4004","","stimuli/long/e-mi.mp3","4","","",""
"","11779","audio-button-response","28","1915930","0.0-11.0-0.17","4004","","stimuli/long/a-fi.mp3","6","","",""
"","11615","audio-button-response","29","1927545","0.0-11.0-0.18","4004","","stimuli/long/e-fi.mp3","11","","",""
"","13644","audio-button-response","30","1941190","0.0-11.0-0.19","4004","","stimuli/long/e-te.mp3","1","","",""
"","13052","audio-button-response","31","1954243","0.0-11.0-0.20","4004","","stimuli/long/a-do8.mp3","0","","",""
"","7761","audio-button-response","32","1962005","0.0-11.0-0.21","4004","","stimuli/long/a-do.mp3","0","","",""
"","11756","audio-button-response","33","1973763","0.0-11.0-0.22","4004","","stimuli/long/c-do8.mp3","12","","",""
"","10649","audio-button-response","34","1984413","0.0-11.0-0.23","4004","","stimuli/long/e-me.mp3","11","","",""
"","10424","audio-button-response","35","1994839","0.0-11.0-0.24","4004","","stimuli/long/c-ti.mp3","11","","",""
"","11161","audio-button-response","36","2006001","0.0-11.0-0.25","4004","","stimuli/long/a-mi.mp3","3","","",""
"","10115","audio-button-response","37","2016117","0.0-11.0-0.26","4004","","stimuli/long/e-le.mp3","8","","",""
"","12372","audio-button-response","38","2028490","0.0-11.0-0.27","4004","","stimuli/long/c-le.mp3","6","","",""
"","7715","audio-button-response","39","2036205","0.0-11.0-0.28","4004","","stimuli/long/e-do.mp3","0","","",""
"","11384","audio-button-response","40","2047590","0.0-11.0-0.29","4004","","stimuli/long/e-ra.mp3","1","","",""
"","14907","audio-button-response","41","2062498","0.0-11.0-0.30","4004","","stimuli/long/c-ra.mp3","6","","",""
"","9387","audio-button-response","42","2071886","0.0-11.0-0.31","4004","","stimuli/long/c-do.mp3","0","","",""
"","10361","audio-button-response","43","2082248","0.0-11.0-0.32","4004","","stimuli/long/a-la.mp3","9","","",""
"","10858","audio-button-response","44","2093105","0.0-11.0-0.33","4004","","stimuli/long/a-sol.mp3","2","","",""
"","12264","audio-button-response","45","2105371","0.0-11.0-0.34","4004","","stimuli/long/a-ra.mp3","10","","",""
"","12131","audio-button-response","46","2117503","0.0-11.0-0.35","4004","","stimuli/long/e-sol.mp3","7","","",""
"","9609","audio-button-response","47","2127113","0.0-11.0-0.36","4004","","stimuli/long/e-la.mp3","9","","",""
"","7972","audio-button-response","48","2135086","0.0-11.0-0.37","4004","","stimuli/long/e-do8.mp3","12","","",""
"[{""page_index"":0,""viewing_time"":538204},{""page_index"":1,""viewing_time"":28711}]","566915","instructions","49","2702002","0.0-12.0","4004","","","","","",""
"","null","audio-keyboard-response","50","2711199","0.0-13.0-0.0","4004","","new_stimuli/mp3/melody_v3_v2_buffer.mp3","","null","",""
"","7805","html-button-response","51","2719006","0.0-13.0-1.0","4004","","<p>Which tone was played first after the cadence?</p><p>Please respond as quickly and as accurately as possible!</p>","4","","1","new_stimuli/mp3/melody_v3_v2_buffer.mp3"
"","1965","html-button-response","52","2720971","0.0-13.0-2.0","4004","","<p>Which tone was played second after the cadence?</p><p>Please respond as quickly and as accurately as possible!</p>","2","","2","new_stimuli/mp3/melody_v3_v2_buffer.mp3"
"","null","audio-keyboard-response","53","2730040","0.0-13.0-0.1","4004","","new_stimuli/mp3/melody_v2_v1_.mp3","","null","",""
"","1554","html-button-response","54","2731594","0.0-13.0-1.1","4004","","<p>Which tone was played first after the cadence?</p><p>Please respond as quickly and as accurately as possible!</p>","2","","1","new_stimuli/mp3/melody_v2_v1_.mp3"
"","1136","html-button-response","55","2732733","0.0-13.0-2.1","4004","","<p>Which tone was played second after the cadence?</p><p>Please respond as quickly and as accurately as possible!</p>","0","","2","new_stimuli/mp3/melody_v2_v1_.mp3"
"","null","audio-keyboard-response","56","2741900","0.0-13.0-0.2","4004","","new_stimuli/mp3/melody_^2_v7-_.mp3","","null","",""
"","3349","html-button-response","57","2745251","0.0-13.0-1.2","4004","","<p>Which tone was played first after the cadence?</p><p>Please respond as quickly and as accurately as possible!</p>","2","","1","new_stimuli/mp3/melody_^2_v7-_.mp3"
"","1044","html-button-response","58","2746295","0.0-13.0-2.2","4004","","<p>Which tone was played second after the cadence?</p><p>Please respond as quickly and as accurately as possible!</p>","10","","2","new_stimuli/mp3/melody_^2_v7-_.mp3"
"","null","audio-keyboard-response","59","2755591","0.0-13.0-0.3","4004","","new_stimuli/mp3/melody_3_^6_buffer.mp3","","null","",""
"","1242","html-button-response","60","2756833","0.0-13.0-1.3","4004","","<p>Which tone was played first after the cadence?</p><p>Please respond as quickly and as accurately as possible!</p>","9","","1","new_stimuli/mp3/melody_3_^6_buffer.mp3"
"","1158","html-button-response","61","2757993","0.0-13.0-2.3","4004","","<p>Which tone was played second after the cadence?</p><p>Please respond as quickly and as accurately as possible!</p>","12","","2","new_stimuli/mp3/melody_3_^6_buffer.mp3"
"","null","audio-keyboard-response","62","2767161","0.0-13.0-0.4","4004","","new_stimuli/mp3/melody_v5_v1+_.mp3","","null","",""
"","6591","html-button-response","63","2773754","0.0-13.0-1.4","4004","","<p>Which tone was played first after the cadence?</p><p>Please respond as quickly and as accurately as possible!</p>","6","","1","new_stimuli/mp3/melody_v5_v1+_.mp3"
"","1741","html-button-response","64","2775495","0.0-13.0-2.4","4004","","<p>Which tone was played second after the cadence?</p><p>Please respond as quickly and as accurately as possible!</p>","1","","2","new_stimuli/mp3/melody_v5_v1+_.mp3"
"","null","audio-keyboard-response","65","2784662","0.0-13.0-0.5","4004","","new_stimuli/mp3/melody_^5_^1+_.mp3","","null","",""
"","7819","html-button-response","66","2792482","0.0-13.0-1.5","4004","","<p>Which tone was played first after the cadence?</p><p>Please respond as quickly and as accurately as possible!</p>","9","","1","new_stimuli/mp3/melody_^5_^1+_.mp3"
"","5778","html-button-response","67","2798261","0.0-13.0-2.5","4004","","<p>Which tone was played second after the cadence?</p><p>Please respond as quickly and as accurately as possible!</p>","4","","2","new_stimuli/mp3/melody_^5_^1+_.mp3"
"","null","audio-keyboard-response","68","2807713","0.0-13.0-0.6","4004","","new_stimuli/mp3/melody_^3_v4+_buffer.mp3","","null","",""
"","11754","html-button-response","69","2819467","0.0-13.0-1.6","4004","","<p>Which tone was played first after the cadence?</p><p>Please respond as quickly and as accurately as possible!</p>","2","","1","new_stimuli/mp3/melody_^3_v4+_buffer.mp3"
"","714","html-button-response","70","2820182","0.0-13.0-2.6","4004","","<p>Which tone was played second after the cadence?</p><p>Please respond as quickly and as accurately as possible!</p>","5","","2","new_stimuli/mp3/melody_^3_v4+_buffer.mp3"
"","null","audio-keyboard-response","71","2829634","0.0-13.0-0.7","4004","","new_stimuli/mp3/melody_v7_v3_buffer.mp3","","null","",""
"","9516","html-button-response","72","2839150","0.0-13.0-1.7","4004","","<p>Which tone was played first after the cadence?</p><p>Please respond as quickly and as accurately as possible!</p>","8","","1","new_stimuli/mp3/melody_v7_v3_buffer.mp3"
"","765","html-button-response","73","2839915","0.0-13.0-2.7","4004","","<p>Which tone was played second after the cadence?</p><p>Please respond as quickly and as accurately as possible!</p>","5","","2","new_stimuli/mp3/melody_v7_v3_buffer.mp3"
"","null","audio-keyboard-response","74","2848934","0.0-13.0-0.8","4004","","new_stimuli/mp3/melody_^1_^2+_.mp3","","null","",""
"","10785","html-button-response","75","2859720","0.0-13.0-1.8","4004","","<p>Which tone was played first after the cadence?</p><p>Please respond as quickly and as accurately as possible!</p>","11","","1","new_stimuli/mp3/melody_^1_^2+_.mp3"
"","3114","html-button-response","76","2862834","0.0-13.0-2.8","4004","","<p>Which tone was played second after the cadence?</p><p>Please respond as quickly and as accurately as possible!</p>","3","","2","new_stimuli/mp3/melody_^1_^2+_.mp3"
"","null","audio-keyboard-response","77","2872255","0.0-13.0-0.9","4004","","new_stimuli/mp3/melody_v4_v3_buffer.mp3","","null","",""
"","4538","html-button-response","78","2876793","0.0-13.0-1.9","4004","","<p>Which tone was played first after the cadence?</p><p>Please respond as quickly and as accurately as possible!</p>","5","","1","new_stimuli/mp3/melody_v4_v3_buffer.mp3"
"","702","html-button-response","79","2877496","0.0-13.0-2.9","4004","","<p>Which tone was played second after the cadence?</p><p>Please respond as quickly and as accurately as possible!</p>","4","","2","new_stimuli/mp3/melody_v4_v3_buffer.mp3"
"[{""page_index"":0,""viewing_time"":296316},{""page_index"":1,""viewing_time"":1771},{""page_index"":2,""viewing_time"":1748}]","299836","instructions","80","3177332","0.0-14.0","4004","","","","","",""
"","null","audio-keyboard-response","81","3186888","0.0-15.0-0.0","4004","","new_stimuli/mp3/melody_v3_v2_v1_.mp3","","null","",""
"","3119","html-button-response","82","3190007","0.0-15.0-1.0","4004","","<p>Which tone was played first after the cadence?</p><p>Please respond as quickly and as accurately as possible!</p>","4","","1","new_stimuli/mp3/melody_v3_v2_v1_.mp3"
"","1034","html-button-response","83","3191043","0.0-15.0-2.0","4004","","<p>Which tone was played second after the cadence?</p><p>Please respond as quickly and as accurately as possible!</p>","2","","2","new_stimuli/mp3/melody_v3_v2_v1_.mp3"
"","949","html-button-response","84","3191992","0.0-15.0-3.0","4004","","<p>Which tone was played third after the cadence?</p><p>Please respond as quickly and as accurately as possible!</p>","0","","3","new_stimuli/mp3/melody_v3_v2_v1_.mp3"
"","null","audio-keyboard-response","85","3201889","0.0-15.0-0.1","4004","","new_stimuli/mp3/melody_^1_v6_v5+_.mp3","","null","",""
"","7840","html-button-response","86","3209729","0.0-15.0-1.1","4004","","<p>Which tone was played first after the cadence?</p><p>Please respond as quickly and as accurately as possible!</p>","7","","1","new_stimuli/mp3/melody_^1_v6_v5+_.mp3"
"","629","html-button-response","87","3210357","0.0-15.0-2.1","4004","","<p>Which tone was played second after the cadence?</p><p>Please respond as quickly and as accurately as possible!</p>","6","","2","new_stimuli/mp3/melody_^1_v6_v5+_.mp3"
"","1865","html-button-response","88","3212223","0.0-15.0-3.1","4004","","<p>Which tone was played third after the cadence?</p><p>Please respond as quickly and as accurately as possible!</p>","4","","3","new_stimuli/mp3/melody_^1_v6_v5+_.mp3"
"","null","audio-keyboard-response","89","3221779","0.0-15.0-0.2","4004","","new_stimuli/mp3/melody_v1_v7-_^7_.mp3","","null","",""
"","8920","html-button-response","90","3230700","0.0-15.0-1.2","4004","","<p>Which tone was played first after the cadence?</p><p>Please respond as quickly and as accurately as possible!</p>","8","","1","new_stimuli/mp3/melody_v1_v7-_^7_.mp3"
"","602","html-button-response","91","3231302","0.0-15.0-2.2","4004","","<p>Which tone was played second after the cadence?</p><p>Please respond as quickly and as accurately as possible!</p>","6","","2","new_stimuli/mp3/melody_v1_v7-_^7_.mp3"
"","563","html-button-response","92","3231867","0.0-15.0-3.2","4004","","<p>Which tone was played third after the cadence?</p><p>Please respond as quickly and as accurately as possible!</p>","7","","3","new_stimuli/mp3/melody_v1_v7-_^7_.mp3"
"","null","audio-keyboard-response","93","3241550","0.0-15.0-0.3","4004","","new_stimuli/mp3/melody_v4_v3_v2_buffer.mp3","","null","",""
"","2746","html-button-response","94","3244298","0.0-15.0-1.3","4004","","<p>Which tone was played first after the cadence?</p><p>Please respond as quickly and as accurately as possible!</p>","5","","1","new_stimuli/mp3/melody_v4_v3_v2_buffer.mp3"
"","480","html-button-response","95","3244778","0.0-15.0-2.3","4004","","<p>Which tone was played second after the cadence?</p><p>Please respond as quickly and as accurately as possible!</p>","4","","2","new_stimuli/mp3/melody_v4_v3_v2_buffer.mp3"
"","600","html-button-response","96","3245379","0.0-15.0-3.3","4004","","<p>Which tone was played third after the cadence?</p><p>Please respond as quickly and as accurately as possible!</p>","2","","3","new_stimuli/mp3/melody_v4_v3_v2_buffer.mp3"
"","null","audio-keyboard-response","97","3255320","0.0-15.0-0.4","4004","","new_stimuli/mp3/melody_v5_v4_v3_buffer.mp3","","null","",""
"","5187","html-button-response","98","3260508","0.0-15.0-1.4","4004","","<p>Which tone was played first after the cadence?</p><p>Please respond as quickly and as accurately as possible!</p>","7","","1","new_stimuli/mp3/melody_v5_v4_v3_buffer.mp3"
"","711","html-button-response","99","3261219","0.0-15.0-2.4","4004","","<p>Which tone was played second after the cadence?</p><p>Please respond as quickly and as accurately as possible!</p>","5","","2","new_stimuli/mp3/melody_v5_v4_v3_buffer.mp3"
"","1062","html-button-response","100","3262284","0.0-15.0-3.4","4004","","<p>Which tone was played third after the cadence?</p><p>Please respond as quickly and as accurately as possible!</p>","4","","3","new_stimuli/mp3/melody_v5_v4_v3_buffer.mp3"
"","null","audio-keyboard-response","101","3271871","0.0-15.0-0.5","4004","","new_stimuli/mp3/melody_v1_v7-_7-_buffer.mp3","","null","",""
"","6994","html-button-response","102","3278865","0.0-15.0-1.5","4004","","<p>Which tone was played first after the cadence?</p><p>Please respond as quickly and as accurately as possible!</p>","12","","1","new_stimuli/mp3/melody_v1_v7-_7-_buffer.mp3"
"","2383","html-button-response","103","3281249","0.0-15.0-2.5","4004","","<p>Which tone was played second after the cadence?</p><p>Please respond as quickly and as accurately as possible!</p>","10","","2","new_stimuli/mp3/melody_v1_v7-_7-_buffer.mp3"
"","551","html-button-response","104","3281801","0.0-15.0-3.5","4004","","<p>Which tone was played third after the cadence?</p><p>Please respond as quickly and as accurately as possible!</p>","10","","3","new_stimuli/mp3/melody_v1_v7-_7-_buffer.mp3"
"","null","audio-keyboard-response","105","3291782","0.0-15.0-0.6","4004","","new_stimuli/mp3/melody_v2_v5_^3_buffer.mp3","","null","",""
"","7257","html-button-response","106","3299039","0.0-15.0-1.6","4004","","<p>Which tone was played first after the cadence?</p><p>Please respond as quickly and as accurately as possible!</p>","2","","1","new_stimuli/mp3/melody_v2_v5_^3_buffer.mp3"
"","3696","html-button-response","107","3302736","0.0-15.0-2.6","4004","","<p>Which tone was played second after the cadence?</p><p>Please respond as quickly and as accurately as possible!</p>","7","","2","new_stimuli/mp3/melody_v2_v5_^3_buffer.mp3"
"","4093","html-button-response","108","3306830","0.0-15.0-3.6","4004","","<p>Which tone was played third after the cadence?</p><p>Please respond as quickly and as accurately as possible!</p>","4","","3","new_stimuli/mp3/melody_v2_v5_^3_buffer.mp3"
"","null","audio-keyboard-response","109","3316463","0.0-15.0-0.7","4004","","new_stimuli/mp3/melody_6_^1_v5_.mp3","","null","",""
"","7457","html-button-response","110","3323921","0.0-15.0-1.7","4004","","<p>Which tone was played first after the cadence?</p><p>Please respond as quickly and as accurately as possible!</p>","9","","1","new_stimuli/mp3/melody_6_^1_v5_.mp3"
"","10174","html-button-response","111","3334096","0.0-15.0-2.7","4004","","<p>Which tone was played second after the cadence?</p><p>Please respond as quickly and as accurately as possible!</p>","11","","2","new_stimuli/mp3/melody_6_^1_v5_.mp3"
"","1916","html-button-response","112","3336013","0.0-15.0-3.7","4004","","<p>Which tone was played third after the cadence?</p><p>Please respond as quickly and as accurately as possible!</p>","7","","3","new_stimuli/mp3/melody_6_^1_v5_.mp3"
"","null","audio-keyboard-response","113","3345514","0.0-15.0-0.8","4004","","new_stimuli/mp3/melody_1_v1+_^2_.mp3","","null","",""
"","3544","html-button-response","114","3349059","0.0-15.0-1.8","4004","","<p>Which tone was played first after the cadence?</p><p>Please respond as quickly and as accurately as possible!</p>","1","","1","new_stimuli/mp3/melody_1_v1+_^2_.mp3"
"","825","html-button-response","115","3349884","0.0-15.0-2.8","4004","","<p>Which tone was played second after the cadence?</p><p>Please respond as quickly and as accurately as possible!</p>","2","","2","new_stimuli/mp3/melody_1_v1+_^2_.mp3"
"","777","html-button-response","116","3350662","0.0-15.0-3.8","4004","","<p>Which tone was played third after the cadence?</p><p>Please respond as quickly and as accurately as possible!</p>","3","","3","new_stimuli/mp3/melody_1_v1+_^2_.mp3"
"[{""page_index"":0,""viewing_time"":271054},{""page_index"":1,""viewing_time"":2876},{""page_index"":2,""viewing_time"":2026}]","275956","instructions","117","3626619","0.0-16.0","4004","","","","","",""
"","null","audio-keyboard-response","118","3637196","0.0-17.0-0.0","4004","","new_stimuli/mp3/melody_v2_2_^3_^4_v2_.mp3","","null","",""
"","6791","html-button-response","119","3643987","0.0-17.0-1.0","4004","","<p>Which tone was played first after the cadence?</p><p>Please respond as quickly and as accurately as possible!</p>","2","","1","new_stimuli/mp3/melody_v2_2_^3_^4_v2_.mp3"
"","991","html-button-response","120","3644979","0.0-17.0-2.0","4004","","<p>Which tone was played second after the cadence?</p><p>Please respond as quickly and as accurately as possible!</p>","2","","2","new_stimuli/mp3/melody_v2_2_^3_^4_v2_.mp3"
"","11197","html-button-response","121","3656176","0.0-17.0-3.0","4004","","<p>Which tone was played third after the cadence?</p><p>Please respond as quickly and as accurately as possible!</p>","4","","3","new_stimuli/mp3/melody_v2_2_^3_^4_v2_.mp3"
"","3130","html-button-response","122","3659307","0.0-17.0-4.0","4004","","<p>Which tone was played fourth after the cadence?</p><p>Please respond as quickly and as accurately as possible!</p>","5","","4","new_stimuli/mp3/melody_v2_2_^3_^4_v2_.mp3"
"","634","html-button-response","123","3659942","0.0-17.0-5.0","4004","","<p>Which tone was played fifth after the cadence?</p><p>Please respond as quickly and as accurately as possible!</p>","4","","5","new_stimuli/mp3/melody_v2_2_^3_^4_v2_.mp3"
"","null","audio-keyboard-response","124","3670518","0.0-17.0-0.1","4004","","new_stimuli/mp3/melody_v5_v4_v3_v2_v1_.mp3","","null","",""
"","1500","html-button-response","125","3672018","0.0-17.0-1.1","4004","","<p>Which tone was played first after the cadence?</p><p>Please respond as quickly and as accurately as possible!</p>","7","","1","new_stimuli/mp3/melody_v5_v4_v3_v2_v1_.mp3"
"","866","html-button-response","126","3672884","0.0-17.0-2.1","4004","","<p>Which tone was played second after the cadence?</p><p>Please respond as quickly and as accurately as possible!</p>","5","","2","new_stimuli/mp3/melody_v5_v4_v3_v2_v1_.mp3"
"","716","html-button-response","127","3673601","0.0-17.0-3.1","4004","","<p>Which tone was played third after the cadence?</p><p>Please respond as quickly and as accurately as possible!</p>","4","","3","new_stimuli/mp3/melody_v5_v4_v3_v2_v1_.mp3"
"","798","html-button-response","128","3674400","0.0-17.0-4.1","4004","","<p>Which tone was played fourth after the cadence?</p><p>Please respond as quickly and as accurately as possible!</p>","2","","4","new_stimuli/mp3/melody_v5_v4_v3_v2_v1_.mp3"
"","792","html-button-response","129","3675192","0.0-17.0-5.1","4004","","<p>Which tone was played fifth after the cadence?</p><p>Please respond as quickly and as accurately as possible!</p>","0","","5","new_stimuli/mp3/melody_v5_v4_v3_v2_v1_.mp3"
"","null","audio-keyboard-response","130","3685818","0.0-17.0-0.2","4004","","new_stimuli/mp3/melody_v5_^6+_^7_^1_5_.mp3","","null","",""
"","3028","html-button-response","131","3688845","0.0-17.0-1.2","4004","","<p>Which tone was played first after the cadence?</p><p>Please respond as quickly and as accurately as possible!</p>","7","","1","new_stimuli/mp3/melody_v5_^6+_^7_^1_5_.mp3"
"","789","html-button-response","132","3689634","0.0-17.0-2.2","4004","","<p>Which tone was played second after the cadence?</p><p>Please respond as quickly and as accurately as possible!</p>","9","","2","new_stimuli/mp3/melody_v5_^6+_^7_^1_5_.mp3"
"","712","html-button-response","133","3690346","0.0-17.0-3.2","4004","","<p>Which tone was played third after the cadence?</p><p>Please respond as quickly and as accurately as possible!</p>","11","","3","new_stimuli/mp3/melody_v5_^6+_^7_^1_5_.mp3"
"","958","html-button-response","134","3691306","0.0-17.0-4.2","4004","","<p>Which tone was played fourth after the cadence?</p><p>Please respond as quickly and as accurately as possible!</p>","12","","4","new_stimuli/mp3/melody_v5_^6+_^7_^1_5_.mp3"
"","3134","html-button-response","135","3694441","0.0-17.0-5.2","4004","","<p>Which tone was played fifth after the cadence?</p><p>Please respond as quickly and as accurately as possible!</p>","7","","5","new_stimuli/mp3/melody_v5_^6+_^7_^1_5_.mp3"
"","null","audio-keyboard-response","136","3705388","0.0-17.0-0.3","4004","","new_stimuli/mp3/melody_v5-_v3_3_^4+_v3_.mp3","","null","",""
"","4882","html-button-response","137","3710271","0.0-17.0-1.3","4004","","<p>Which tone was played first after the cadence?</p><p>Please respond as quickly and as accurately as possible!</p>","10","","1","new_stimuli/mp3/melody_v5-_v3_3_^4+_v3_.mp3"
"","4288","html-button-response","138","3714560","0.0-17.0-2.3","4004","","<p>Which tone was played second after the cadence?</p><p>Please respond as quickly and as accurately as possible!</p>","8","","2","new_stimuli/mp3/melody_v5-_v3_3_^4+_v3_.mp3"
"","826","html-button-response","139","3715387","0.0-17.0-3.3","4004","","<p>Which tone was played third after the cadence?</p><p>Please respond as quickly and as accurately as possible!</p>","8","","3","new_stimuli/mp3/melody_v5-_v3_3_^4+_v3_.mp3"
"","1389","html-button-response","140","3716776","0.0-17.0-4.3","4004","","<p>Which tone was played fourth after the cadence?</p><p>Please respond as quickly and as accurately as possible!</p>","10","","4","new_stimuli/mp3/melody_v5-_v3_3_^4+_v3_.mp3"
"","1489","html-button-response","141","3718267","0.0-17.0-5.3","4004","","<p>Which tone was played fifth after the cadence?</p><p>Please respond as quickly and as accurately as possible!</p>","9","","5","new_stimuli/mp3/melody_v5-_v3_3_^4+_v3_.mp3"
"","null","audio-keyboard-response","142","3728969","0.0-17.0-0.4","4004","","new_stimuli/mp3/melody_^6_v5_v4_v3_v2_buffer.mp3","","null","",""
"","8757","html-button-response","143","3737728","0.0-17.0-1.4","4004","","<p>Which tone was played first after the cadence?</p><p>Please respond as quickly and as accurately as possible!</p>","4","","1","new_stimuli/mp3/melody_^6_v5_v4_v3_v2_buffer.mp3"
"","855","html-button-response","144","3738584","0.0-17.0-2.4","4004","","<p>Which tone was played second after the cadence?</p><p>Please respond as quickly and as accurately as possible!</p>","2","","2","new_stimuli/mp3/melody_^6_v5_v4_v3_v2_buffer.mp3"
"","696","html-button-response","145","3739281","0.0-17.0-3.4","4004","","<p>Which tone was played third after the cadence?</p><p>Please respond as quickly and as accurately as possible!</p>","0","","3","new_stimuli/mp3/melody_^6_v5_v4_v3_v2_buffer.mp3"
"","868","html-button-response","146","3740148","0.0-17.0-4.4","4004","","<p>Which tone was played fourth after the cadence?</p><p>Please respond as quickly and as accurately as possible!</p>","11","","4","new_stimuli/mp3/melody_^6_v5_v4_v3_v2_buffer.mp3"
"","942","html-button-response","147","3741091","0.0-17.0-5.4","4004","","<p>Which tone was played fifth after the cadence?</p><p>Please respond as quickly and as accurately as possible!</p>","9","","5","new_stimuli/mp3/melody_^6_v5_v4_v3_v2_buffer.mp3"
"","null","audio-keyboard-response","148","3752040","0.0-17.0-0.5","4004","","new_stimuli/mp3/melody_^5_^6_v5_v4_v3_buffer.mp3","","null","",""
"","4370","html-button-response","149","3756411","0.0-17.0-1.5","4004","","<p>Which tone was played first after the cadence?</p><p>Please respond as quickly and as accurately as possible!</p>","7","","1","new_stimuli/mp3/melody_^5_^6_v5_v4_v3_buffer.mp3"
"","1023","html-button-response","150","3757435","0.0-17.0-2.5","4004","","<p>Which tone was played second after the cadence?</p><p>Please respond as quickly and as accurately as possible!</p>","9","","2","new_stimuli/mp3/melody_^5_^6_v5_v4_v3_buffer.mp3"
"","703","html-button-response","151","3758139","0.0-17.0-3.5","4004","","<p>Which tone was played third after the cadence?</p><p>Please respond as quickly and as accurately as possible!</p>","7","","3","new_stimuli/mp3/melody_^5_^6_v5_v4_v3_buffer.mp3"
"","5483","html-button-response","152","3763623","0.0-17.0-4.5","4004","","<p>Which tone was played fourth after the cadence?</p><p>Please respond as quickly and as accurately as possible!</p>","5","","4","new_stimuli/mp3/melody_^5_^6_v5_v4_v3_buffer.mp3"
"","1120","html-button-response","153","3764743","0.0-17.0-5.5","4004","","<p>Which tone was played fifth after the cadence?</p><p>Please respond as quickly and as accurately as possible!</p>","4","","5","new_stimuli/mp3/melody_^5_^6_v5_v4_v3_buffer.mp3"
"","null","audio-keyboard-response","154","3775321","0.0-17.0-0.6","4004","","new_stimuli/mp3/melody_v5_v4_v3_v2_v1 _buffer.mp3","","null","",""
"","8707","html-button-response","155","3784028","0.0-17.0-1.6","4004","","<p>Which tone was played first after the cadence?</p><p>Please respond as quickly and as accurately as possible!</p>","7","","1","new_stimuli/mp3/melody_v5_v4_v3_v2_v1 _buffer.mp3"
"","593","html-button-response","156","3784623","0.0-17.0-2.6","4004","","<p>Which tone was played second after the cadence?</p><p>Please respond as quickly and as accurately as possible!</p>","5","","2","new_stimuli/mp3/melody_v5_v4_v3_v2_v1 _buffer.mp3"
"","906","html-button-response","157","3785529","0.0-17.0-3.6","4004","","<p>Which tone was played third after the cadence?</p><p>Please respond as quickly and as accurately as possible!</p>","4","","3","new_stimuli/mp3/melody_v5_v4_v3_v2_v1 _buffer.mp3"
"","646","html-button-response","158","3786177","0.0-17.0-4.6","4004","","<p>Which tone was played fourth after the cadence?</p><p>Please respond as quickly and as accurately as possible!</p>","2","","4","new_stimuli/mp3/melody_v5_v4_v3_v2_v1 _buffer.mp3"
"","501","html-button-response","159","3786679","0.0-17.0-5.6","4004","","<p>Which tone was played fifth after the cadence?</p><p>Please respond as quickly and as accurately as possible!</p>","0","","5","new_stimuli/mp3/melody_v5_v4_v3_v2_v1 _buffer.mp3"
"","null","audio-keyboard-response","160","3797302","0.0-17.0-0.7","4004","","new_stimuli/mp3/melody_^6_v4_v3_^4_^5_.mp3","","null","",""
"","8110","html-button-response","161","3805412","0.0-17.0-1.7","4004","","<p>Which tone was played first after the cadence?</p><p>Please respond as quickly and as accurately as possible!</p>","7","","1","new_stimuli/mp3/melody_^6_v4_v3_^4_^5_.mp3"
"","4066","html-button-response","162","3809480","0.0-17.0-2.7","4004","","<p>Which tone was played second after the cadence?</p><p>Please respond as quickly and as accurately as possible!</p>","4","","2","new_stimuli/mp3/melody_^6_v4_v3_^4_^5_.mp3"
"","5213","html-button-response","163","3814694","0.0-17.0-3.7","4004","","<p>Which tone was played third after the cadence?</p><p>Please respond as quickly and as accurately as possible!</p>","2","","3","new_stimuli/mp3/melody_^6_v4_v3_^4_^5_.mp3"
"","4404","html-button-response","164","3819099","0.0-17.0-4.7","4004","","<p>Which tone was played fourth after the cadence?</p><p>Please respond as quickly and as accurately as possible!</p>","5","","4","new_stimuli/mp3/melody_^6_v4_v3_^4_^5_.mp3"
"","3667","html-button-response","165","3822767","0.0-17.0-5.7","4004","","<p>Which tone was played fifth after the cadence?</p><p>Please respond as quickly and as accurately as possible!</p>","7","","5","new_stimuli/mp3/melody_^6_v4_v3_^4_^5_.mp3"
"[{""page_index"":0,""viewing_time"":238256},{""page_index"":1,""viewing_time"":4309},{""page_index"":2,""viewing_time"":3257}]","245822","instructions","166","4068591","0.0-18.0","4004","","","","","",""
"","null","audio-keyboard-response","167","4080234","0.0-19.0-0.0","4004","","new_stimuli/mp3/melody_^6_v5+_v4_^5+_v3_v1_v7-_.mp3","","null","",""
"","14293","html-button-response","168","4094526","0.0-19.0-1.0","4004","","<p>Which tone was played first after the cadence?</p><p>Please respond as quickly and as accurately as possible!</p>","6","","1","new_stimuli/mp3/melody_^6_v5+_v4_^5+_v3_v1_v7-_.mp3"
"","5117","html-button-response","169","4099643","0.0-19.0-2.0","4004","","<p>Which tone was played second after the cadence?</p><p>Please respond as quickly and as accurately as possible!</p>","3","","2","new_stimuli/mp3/melody_^6_v5+_v4_^5+_v3_v1_v7-_.mp3"
"","554","html-button-response","170","4100198","0.0-19.0-3.0","4004","","<p>Which tone was played third after the cadence?</p><p>Please respond as quickly and as accurately as possible!</p>","1","","3","new_stimuli/mp3/melody_^6_v5+_v4_^5+_v3_v1_v7-_.mp3"
"","9354","html-button-response","171","4109553","0.0-19.0-4.0","4004","","<p>Which tone was played fourth after the cadence?</p><p>Please respond as quickly and as accurately as possible!</p>","6","","4","new_stimuli/mp3/melody_^6_v5+_v4_^5+_v3_v1_v7-_.mp3"
"","951","html-button-response","172","4110504","0.0-19.0-5.0","4004","","<p>Which tone was played fifth after the cadence?</p><p>Please respond as quickly and as accurately as possible!</p>","4","","5","new_stimuli/mp3/melody_^6_v5+_v4_^5+_v3_v1_v7-_.mp3"
"","3573","html-button-response","173","4114077","0.0-19.0-6.0","4004","","<p>Which tone was played sixth after the cadence?</p><p>Please respond as quickly and as accurately as possible!</p>","3","","6","new_stimuli/mp3/melody_^6_v5+_v4_^5+_v3_v1_v7-_.mp3"
"","427","html-button-response","174","4114505","0.0-19.0-7.0","4004","","<p>Which tone was played seventh after the cadence?</p><p>Please respond as quickly and as accurately as possible!</p>","2","","7","new_stimuli/mp3/melody_^6_v5+_v4_^5+_v3_v1_v7-_.mp3"
"","null","audio-keyboard-response","175","4126185","0.0-19.0-0.1","4004","","new_stimuli/mp3/melody_^4_v6-_v5-_^6-_^4_v2-_2-_.mp3","","null","",""
"","8782","html-button-response","176","4134968","0.0-19.0-1.1","4004","","<p>Which tone was played first after the cadence?</p><p>Please respond as quickly and as accurately as possible!</p>","5","","1","new_stimuli/mp3/melody_^4_v6-_v5-_^6-_^4_v2-_2-_.mp3"
"","3260","html-button-response","177","4138229","0.0-19.0-2.1","4004","","<p>Which tone was played second after the cadence?</p><p>Please respond as quickly and as accurately as possible!</p>","7","","2","new_stimuli/mp3/melody_^4_v6-_v5-_^6-_^4_v2-_2-_.mp3"
"","4846","html-button-response","178","4143075","0.0-19.0-3.1","4004","","<p>Which tone was played third after the cadence?</p><p>Please respond as quickly and as accurately as possible!</p>","5","","3","new_stimuli/mp3/melody_^4_v6-_v5-_^6-_^4_v2-_2-_.mp3"
"","592","html-button-response","179","4143668","0.0-19.0-4.1","4004","","<p>Which tone was played fourth after the cadence?</p><p>Please respond as quickly and as accurately as possible!</p>","7","","4","new_stimuli/mp3/melody_^4_v6-_v5-_^6-_^4_v2-_2-_.mp3"
"","2614","html-button-response","180","4146283","0.0-19.0-5.1","4004","","<p>Which tone was played fifth after the cadence?</p><p>Please respond as quickly and as accurately as possible!</p>","2","","5","new_stimuli/mp3/melody_^4_v6-_v5-_^6-_^4_v2-_2-_.mp3"
"","989","html-button-response","181","4147273","0.0-19.0-6.1","4004","","<p>Which tone was played sixth after the cadence?</p><p>Please respond as quickly and as accurately as possible!</p>","0","","6","new_stimuli/mp3/melody_^4_v6-_v5-_^6-_^4_v2-_2-_.mp3"
"","1168","html-button-response","182","4148442","0.0-19.0-7.1","4004","","<p>Which tone was played seventh after the cadence?</p><p>Please respond as quickly and as accurately as possible!</p>","0","","7","new_stimuli/mp3/melody_^4_v6-_v5-_^6-_^4_v2-_2-_.mp3"
"","null","audio-keyboard-response","183","4160406","0.0-19.0-0.2","4004","","new_stimuli/mp3/melody_1_^3_v1_^5_v3_v2_^3_.mp3","","null","",""
"","1289","html-button-response","184","4161696","0.0-19.0-1.2","4004","","<p>Which tone was played first after the cadence?</p><p>Please respond as quickly and as accurately as possible!</p>","0","","1","new_stimuli/mp3/melody_1_^3_v1_^5_v3_v2_^3_.mp3"
"","566","html-button-response","185","4162263","0.0-19.0-2.2","4004","","<p>Which tone was played second after the cadence?</p><p>Please respond as quickly and as accurately as possible!</p>","2","","2","new_stimuli/mp3/melody_1_^3_v1_^5_v3_v2_^3_.mp3"
"","644","html-button-response","186","4162908","0.0-19.0-3.2","4004","","<p>Which tone was played third after the cadence?</p><p>Please respond as quickly and as accurately as possible!</p>","0","","3","new_stimuli/mp3/melody_1_^3_v1_^5_v3_v2_^3_.mp3"
"","3394","html-button-response","187","4166303","0.0-19.0-4.2","4004","","<p>Which tone was played fourth after the cadence?</p><p>Please respond as quickly and as accurately as possible!</p>","5","","4","new_stimuli/mp3/melody_1_^3_v1_^5_v3_v2_^3_.mp3"
"","6732","html-button-response","188","4173036","0.0-19.0-5.2","4004","","<p>Which tone was played fifth after the cadence?</p><p>Please respond as quickly and as accurately as possible!</p>","2","","5","new_stimuli/mp3/melody_1_^3_v1_^5_v3_v2_^3_.mp3"
"","16357","html-button-response","189","4189393","0.0-19.0-6.2","4004","","<p>Which tone was played sixth after the cadence?</p><p>Please respond as quickly and as accurately as possible!</p>","4","","6","new_stimuli/mp3/melody_1_^3_v1_^5_v3_v2_^3_.mp3"
"","405","html-button-response","190","4189798","0.0-19.0-7.2","4004","","<p>Which tone was played seventh after the cadence?</p><p>Please respond as quickly and as accurately as possible!</p>","5","","7","new_stimuli/mp3/melody_1_^3_v1_^5_v3_v2_^3_.mp3"
"","null","audio-keyboard-response","191","4201508","0.0-19.0-0.3","4004","","new_stimuli/mp3/melody_^1_v7_v6_v5_v4_v3_v2_buffer.mp3","","null","",""
"","1237","html-button-response","192","4202745","0.0-19.0-1.3","4004","","<p>Which tone was played first after the cadence?</p><p>Please respond as quickly and as accurately as possible!</p>","12","","1","new_stimuli/mp3/melody_^1_v7_v6_v5_v4_v3_v2_buffer.mp3"
"","500","html-button-response","193","4203246","0.0-19.0-2.3","4004","","<p>Which tone was played second after the cadence?</p><p>Please respond as quickly and as accurately as possible!</p>","11","","2","new_stimuli/mp3/melody_^1_v7_v6_v5_v4_v3_v2_buffer.mp3"
"","550","html-button-response","194","4203797","0.0-19.0-3.3","4004","","<p>Which tone was played third after the cadence?</p><p>Please respond as quickly and as accurately as possible!</p>","9","","3","new_stimuli/mp3/melody_^1_v7_v6_v5_v4_v3_v2_buffer.mp3"
"","686","html-button-response","195","4204484","0.0-19.0-4.3","4004","","<p>Which tone was played fourth after the cadence?</p><p>Please respond as quickly and as accurately as possible!</p>","7","","4","new_stimuli/mp3/melody_^1_v7_v6_v5_v4_v3_v2_buffer.mp3"
"","858","html-button-response","196","4205343","0.0-19.0-5.3","4004","","<p>Which tone was played fifth after the cadence?</p><p>Please respond as quickly and as accurately as possible!</p>","5","","5","new_stimuli/mp3/melody_^1_v7_v6_v5_v4_v3_v2_buffer.mp3"
"","792","html-button-response","197","4206136","0.0-19.0-6.3","4004","","<p>Which tone was played sixth after the cadence?</p><p>Please respond as quickly and as accurately as possible!</p>","3","","6","new_stimuli/mp3/melody_^1_v7_v6_v5_v4_v3_v2_buffer.mp3"
"","819","html-button-response","198","4206956","0.0-19.0-7.3","4004","","<p>Which tone was played seventh after the cadence?</p><p>Please respond as quickly and as accurately as possible!</p>","2","","7","new_stimuli/mp3/melody_^1_v7_v6_v5_v4_v3_v2_buffer.mp3"
"","null","audio-keyboard-response","199","4218659","0.0-19.0-0.4","4004","","new_stimuli/mp3/melody_v1_^2_v1_v7_^1_^3_v2_.mp3","","null","",""
"","1498","html-button-response","200","4220158","0.0-19.0-1.4","4004","","<p>Which tone was played first after the cadence?</p><p>Please respond as quickly and as accurately as possible!</p>","0","","1","new_stimuli/mp3/melody_v1_^2_v1_v7_^1_^3_v2_.mp3"
"","553","html-button-response","201","4220712","0.0-19.0-2.4","4004","","<p>Which tone was played second after the cadence?</p><p>Please respond as quickly and as accurately as possible!</p>","2","","2","new_stimuli/mp3/melody_v1_^2_v1_v7_^1_^3_v2_.mp3"
"","635","html-button-response","202","4221346","0.0-19.0-3.4","4004","","<p>Which tone was played third after the cadence?</p><p>Please respond as quickly and as accurately as possible!</p>","0","","3","new_stimuli/mp3/melody_v1_^2_v1_v7_^1_^3_v2_.mp3"
"","1795","html-button-response","203","4223142","0.0-19.0-4.4","4004","","<p>Which tone was played fourth after the cadence?</p><p>Please respond as quickly and as accurately as possible!</p>","11","","4","new_stimuli/mp3/melody_v1_^2_v1_v7_^1_^3_v2_.mp3"
"","6480","html-button-response","204","4229624","0.0-19.0-5.4","4004","","<p>Which tone was played fifth after the cadence?</p><p>Please respond as quickly and as accurately as possible!</p>","0","","5","new_stimuli/mp3/melody_v1_^2_v1_v7_^1_^3_v2_.mp3"
"","2907","html-button-response","205","4232531","0.0-19.0-6.4","4004","","<p>Which tone was played sixth after the cadence?</p><p>Please respond as quickly and as accurately as possible!</p>","4","","6","new_stimuli/mp3/melody_v1_^2_v1_v7_^1_^3_v2_.mp3"
"","1275","html-button-response","206","4233808","0.0-19.0-7.4","4004","","<p>Which tone was played seventh after the cadence?</p><p>Please respond as quickly and as accurately as possible!</p>","0","","7","new_stimuli/mp3/melody_v1_^2_v1_v7_^1_^3_v2_.mp3"
"","null","audio-keyboard-response","207","4245380","0.0-19.0-0.5","4004","","new_stimuli/mp3/melody_^5_^6_v5_v4_v3_v2_v1_buffer.mp3","","null","",""
"","2947","html-button-response","208","4248327","0.0-19.0-1.5","4004","","<p>Which tone was played first after the cadence?</p><p>Please respond as quickly and as accurately as possible!</p>","7","","1","new_stimuli/mp3/melody_^5_^6_v5_v4_v3_v2_v1_buffer.mp3"
"","2474","html-button-response","209","4250803","0.0-19.0-2.5","4004","","<p>Which tone was played second after the cadence?</p><p>Please respond as quickly and as accurately as possible!</p>","9","","2","new_stimuli/mp3/melody_^5_^6_v5_v4_v3_v2_v1_buffer.mp3"
"","606","html-button-response","210","4251409","0.0-19.0-3.5","4004","","<p>Which tone was played third after the cadence?</p><p>Please respond as quickly and as accurately as possible!</p>","7","","3","new_stimuli/mp3/melody_^5_^6_v5_v4_v3_v2_v1_buffer.mp3"
"","497","html-button-response","211","4251908","0.0-19.0-4.5","4004","","<p>Which tone was played fourth after the cadence?</p><p>Please respond as quickly and as accurately as possible!</p>","5","","4","new_stimuli/mp3/melody_^5_^6_v5_v4_v3_v2_v1_buffer.mp3"
"","605","html-button-response","212","4252515","0.0-19.0-5.5","4004","","<p>Which tone was played fifth after the cadence?</p><p>Please respond as quickly and as accurately as possible!</p>","4","","5","new_stimuli/mp3/melody_^5_^6_v5_v4_v3_v2_v1_buffer.mp3"
"","545","html-button-response","213","4253060","0.0-19.0-6.5","4004","","<p>Which tone was played sixth after the cadence?</p><p>Please respond as quickly and as accurately as possible!</p>","2","","6","new_stimuli/mp3/melody_^5_^6_v5_v4_v3_v2_v1_buffer.mp3"
"","617","html-button-response","214","4253677","0.0-19.0-7.5","4004","","<p>Which tone was played seventh after the cadence?</p><p>Please respond as quickly and as accurately as possible!</p>","0","","7","new_stimuli/mp3/melody_^5_^6_v5_v4_v3_v2_v1_buffer.mp3"
"","null","audio-keyboard-response","215","4265381","0.0-19.0-0.6","4004","","new_stimuli/mp3/melody_^4_^5_^6_v5_v4_v3_v2_.mp3","","null","",""
"","12684","html-button-response","216","4278065","0.0-19.0-1.6","4004","","<p>Which tone was played first after the cadence?</p><p>Please respond as quickly and as accurately as possible!</p>","9","","1","new_stimuli/mp3/melody_^4_^5_^6_v5_v4_v3_v2_.mp3"
"","691","html-button-response","217","4278756","0.0-19.0-2.6","4004","","<p>Which tone was played second after the cadence?</p><p>Please respond as quickly and as accurately as possible!</p>","11","","2","new_stimuli/mp3/melody_^4_^5_^6_v5_v4_v3_v2_.mp3"
"","421","html-button-response","218","4279179","0.0-19.0-3.6","4004","","<p>Which tone was played third after the cadence?</p><p>Please respond as quickly and as accurately as possible!</p>","12","","3","new_stimuli/mp3/melody_^4_^5_^6_v5_v4_v3_v2_.mp3"
"","723","html-button-response","219","4279903","0.0-19.0-4.6","4004","","<p>Which tone was played fourth after the cadence?</p><p>Please respond as quickly and as accurately as possible!</p>","11","","4","new_stimuli/mp3/melody_^4_^5_^6_v5_v4_v3_v2_.mp3"
"","469","html-button-response","220","4280373","0.0-19.0-5.6","4004","","<p>Which tone was played fifth after the cadence?</p><p>Please respond as quickly and as accurately as possible!</p>","9","","5","new_stimuli/mp3/melody_^4_^5_^6_v5_v4_v3_v2_.mp3"
"","568","html-button-response","221","4280942","0.0-19.0-6.6","4004","","<p>Which tone was played sixth after the cadence?</p><p>Please respond as quickly and as accurately as possible!</p>","7","","6","new_stimuli/mp3/melody_^4_^5_^6_v5_v4_v3_v2_.mp3"
"","411","html-button-response","222","4281353","0.0-19.0-7.6","4004","","<p>Which tone was played seventh after the cadence?</p><p>Please respond as quickly and as accurately as possible!</p>","5","","7","new_stimuli/mp3/melody_^4_^5_^6_v5_v4_v3_v2_.mp3"
"[{""page_index"":0,""viewing_time"":32814},{""page_index"":1,""viewing_time"":4136},{""page_index"":2,""viewing_time"":3270}]","40220","instructions","223","4321575","0.0-20.0","4004","","","","","",""
"","null","audio-keyboard-response","224","4334214","0.0-21.0-0.0","4004","","new_stimuli/mp3/melody_v5_v4_v6+_^7_^3+_v3_v2_v5_^4_.mp3","","null","",""
"","6759","html-button-response","225","4340973","0.0-21.0-1.0","4004","","<p>Which tone was played first after the cadence?</p><p>Please respond as quickly and as accurately as possible!</p>","8","","1","new_stimuli/mp3/melody_v5_v4_v6+_^7_^3+_v3_v2_v5_^4_.mp3"
"","583","html-button-response","226","4341558","0.0-21.0-2.0","4004","","<p>Which tone was played second after the cadence?</p><p>Please respond as quickly and as accurately as possible!</p>","7","","2","new_stimuli/mp3/melody_v5_v4_v6+_^7_^3+_v3_v2_v5_^4_.mp3"
"","1792","html-button-response","227","4343349","0.0-21.0-3.0","4004","","<p>Which tone was played third after the cadence?</p><p>Please respond as quickly and as accurately as possible!</p>","4","","3","new_stimuli/mp3/melody_v5_v4_v6+_^7_^3+_v3_v2_v5_^4_.mp3"
"","444","html-button-response","228","4343794","0.0-21.0-4.0","4004","","<p>Which tone was played fourth after the cadence?</p><p>Please respond as quickly and as accurately as possible!</p>","5","","4","new_stimuli/mp3/melody_v5_v4_v6+_^7_^3+_v3_v2_v5_^4_.mp3"
"","3741","html-button-response","229","4347537","0.0-21.0-5.0","4004","","<p>Which tone was played fifth after the cadence?</p><p>Please respond as quickly and as accurately as possible!</p>","7","","5","new_stimuli/mp3/melody_v5_v4_v6+_^7_^3+_v3_v2_v5_^4_.mp3"
"","425","html-button-response","230","4347962","0.0-21.0-6.0","4004","","<p>Which tone was played sixth after the cadence?</p><p>Please respond as quickly and as accurately as possible!</p>","6","","6","new_stimuli/mp3/melody_v5_v4_v6+_^7_^3+_v3_v2_v5_^4_.mp3"
"","652","html-button-response","231","4348615","0.0-21.0-7.0","4004","","<p>Which tone was played seventh after the cadence?</p><p>Please respond as quickly and as accurately as possible!</p>","5","","7","new_stimuli/mp3/melody_v5_v4_v6+_^7_^3+_v3_v2_v5_^4_.mp3"
"","3935","html-button-response","232","4352552","0.0-21.0-8.0","4004","","<p>Which tone was played eight after the cadence?</p><p>Please respond as quickly and as accurately as possible!</p>","1","","8","new_stimuli/mp3/melody_v5_v4_v6+_^7_^3+_v3_v2_v5_^4_.mp3"
"","1829","html-button-response","233","4354381","0.0-21.0-9.0","4004","","<p>Which tone was played nineth after the cadence?</p><p>Please respond as quickly and as accurately as possible!</p>","2","","9","new_stimuli/mp3/melody_v5_v4_v6+_^7_^3+_v3_v2_v5_^4_.mp3"
"","null","audio-keyboard-response","234","4367335","0.0-21.0-0.1","4004","","new_stimuli/mp3/melody_^5_^6_v5_v4_v3_v2_v1_^2_^3_buffer.mp3","","null","",""
"","21498","html-button-response","235","4388834","0.0-21.0-1.1","4004","","<p>Which tone was played first after the cadence?</p><p>Please respond as quickly and as accurately as possible!</p>","7","","1","new_stimuli/mp3/melody_^5_^6_v5_v4_v3_v2_v1_^2_^3_buffer.mp3"
"","9864","html-button-response","236","4398698","0.0-21.0-2.1","4004","","<p>Which tone was played second after the cadence?</p><p>Please respond as quickly and as accurately as possible!</p>","7","","2","new_stimuli/mp3/melody_^5_^6_v5_v4_v3_v2_v1_^2_^3_buffer.mp3"
"","531","html-button-response","237","4399230","0.0-21.0-3.1","4004","","<p>Which tone was played third after the cadence?</p><p>Please respond as quickly and as accurately as possible!</p>","5","","3","new_stimuli/mp3/melody_^5_^6_v5_v4_v3_v2_v1_^2_^3_buffer.mp3"
"","1045","html-button-response","238","4400277","0.0-21.0-4.1","4004","","<p>Which tone was played fourth after the cadence?</p><p>Please respond as quickly and as accurately as possible!</p>","3","","4","new_stimuli/mp3/melody_^5_^6_v5_v4_v3_v2_v1_^2_^3_buffer.mp3"
"","1541","html-button-response","239","4401817","0.0-21.0-5.1","4004","","<p>Which tone was played fifth after the cadence?</p><p>Please respond as quickly and as accurately as possible!</p>","2","","5","new_stimuli/mp3/melody_^5_^6_v5_v4_v3_v2_v1_^2_^3_buffer.mp3"
"","618","html-button-response","240","4402435","0.0-21.0-6.1","4004","","<p>Which tone was played sixth after the cadence?</p><p>Please respond as quickly and as accurately as possible!</p>","0","","6","new_stimuli/mp3/melody_^5_^6_v5_v4_v3_v2_v1_^2_^3_buffer.mp3"
"","15759","html-button-response","241","4418197","0.0-21.0-7.1","4004","","<p>Which tone was played seventh after the cadence?</p><p>Please respond as quickly and as accurately as possible!</p>","4","","7","new_stimuli/mp3/melody_^5_^6_v5_v4_v3_v2_v1_^2_^3_buffer.mp3"
"","739","html-button-response","242","4418937","0.0-21.0-8.1","4004","","<p>Which tone was played eight after the cadence?</p><p>Please respond as quickly and as accurately as possible!</p>","5","","8","new_stimuli/mp3/melody_^5_^6_v5_v4_v3_v2_v1_^2_^3_buffer.mp3"
"","339","html-button-response","243","4419277","0.0-21.0-9.1","4004","","<p>Which tone was played nineth after the cadence?</p><p>Please respond as quickly and as accurately as possible!</p>","7","","9","new_stimuli/mp3/melody_^5_^6_v5_v4_v3_v2_v1_^2_^3_buffer.mp3"
"","null","audio-keyboard-response","244","4431927","0.0-21.0-0.2","4004","","new_stimuli/mp3/melody_^3_^4_v2_v7_^1_^2_^3_3_^4_.mp3","","null","",""
"","6915","html-button-response","245","4438842","0.0-21.0-1.2","4004","","<p>Which tone was played first after the cadence?</p><p>Please respond as quickly and as accurately as possible!</p>","2","","1","new_stimuli/mp3/melody_^3_^4_v2_v7_^1_^2_^3_3_^4_.mp3"
"","3912","html-button-response","246","4442755","0.0-21.0-2.2","4004","","<p>Which tone was played second after the cadence?</p><p>Please respond as quickly and as accurately as possible!</p>","4","","2","new_stimuli/mp3/melody_^3_^4_v2_v7_^1_^2_^3_3_^4_.mp3"
"","1543","html-button-response","247","4444298","0.0-21.0-3.2","4004","","<p>Which tone was played third after the cadence?</p><p>Please respond as quickly and as accurately as possible!</p>","2","","3","new_stimuli/mp3/melody_^3_^4_v2_v7_^1_^2_^3_3_^4_.mp3"
"","732","html-button-response","248","4445031","0.0-21.0-4.2","4004","","<p>Which tone was played fourth after the cadence?</p><p>Please respond as quickly and as accurately as possible!</p>","0","","4","new_stimuli/mp3/melody_^3_^4_v2_v7_^1_^2_^3_3_^4_.mp3"
"","7950","html-button-response","249","4452982","0.0-21.0-5.2","4004","","<p>Which tone was played fifth after the cadence?</p><p>Please respond as quickly and as accurately as possible!</p>","2","","5","new_stimuli/mp3/melody_^3_^4_v2_v7_^1_^2_^3_3_^4_.mp3"
"","581","html-button-response","250","4453563","0.0-21.0-6.2","4004","","<p>Which tone was played sixth after the cadence?</p><p>Please respond as quickly and as accurately as possible!</p>","4","","6","new_stimuli/mp3/melody_^3_^4_v2_v7_^1_^2_^3_3_^4_.mp3"
"","1663","html-button-response","251","4455226","0.0-21.0-7.2","4004","","<p>Which tone was played seventh after the cadence?</p><p>Please respond as quickly and as accurately as possible!</p>","2","","7","new_stimuli/mp3/melody_^3_^4_v2_v7_^1_^2_^3_3_^4_.mp3"
"","564","html-button-response","252","4455791","0.0-21.0-8.2","4004","","<p>Which tone was played eight after the cadence?</p><p>Please respond as quickly and as accurately as possible!</p>","4","","8","new_stimuli/mp3/melody_^3_^4_v2_v7_^1_^2_^3_3_^4_.mp3"
"","522","html-button-response","253","4456313","0.0-21.0-9.2","4004","","<p>Which tone was played nineth after the cadence?</p><p>Please respond as quickly and as accurately as possible!</p>","5","","9","new_stimuli/mp3/melody_^3_^4_v2_v7_^1_^2_^3_3_^4_.mp3"
"","null","audio-keyboard-response","254","4468959","0.0-21.0-0.3","4004","","new_stimuli/mp3/melody_v7_v6_v5_^6_v5_v4_^5_^6_v5_.mp3","","null","",""
"","2867","html-button-response","255","4471826","0.0-21.0-1.3","4004","","<p>Which tone was played first after the cadence?</p><p>Please respond as quickly and as accurately as possible!</p>","11","","1","new_stimuli/mp3/melody_v7_v6_v5_^6_v5_v4_^5_^6_v5_.mp3"
"","1042","html-button-response","256","4472868","0.0-21.0-2.3","4004","","<p>Which tone was played second after the cadence?</p><p>Please respond as quickly and as accurately as possible!</p>","9","","2","new_stimuli/mp3/melody_v7_v6_v5_^6_v5_v4_^5_^6_v5_.mp3"
"","3184","html-button-response","257","4476053","0.0-21.0-3.3","4004","","<p>Which tone was played third after the cadence?</p><p>Please respond as quickly and as accurately as possible!</p>","7","","3","new_stimuli/mp3/melody_v7_v6_v5_^6_v5_v4_^5_^6_v5_.mp3"
"","1215","html-button-response","258","4477269","0.0-21.0-4.3","4004","","<p>Which tone was played fourth after the cadence?</p><p>Please respond as quickly and as accurately as possible!</p>","9","","4","new_stimuli/mp3/melody_v7_v6_v5_^6_v5_v4_^5_^6_v5_.mp3"
"","2064","html-button-response","259","4479333","0.0-21.0-5.3","4004","","<p>Which tone was played fifth after the cadence?</p><p>Please respond as quickly and as accurately as possible!</p>","7","","5","new_stimuli/mp3/melody_v7_v6_v5_^6_v5_v4_^5_^6_v5_.mp3"
"","3817","html-button-response","260","4483151","0.0-21.0-6.3","4004","","<p>Which tone was played sixth after the cadence?</p><p>Please respond as quickly and as accurately as possible!</p>","9","","6","new_stimuli/mp3/melody_v7_v6_v5_^6_v5_v4_^5_^6_v5_.mp3"
"","6057","html-button-response","261","4489208","0.0-21.0-7.3","4004","","<p>Which tone was played seventh after the cadence?</p><p>Please respond as quickly and as accurately as possible!</p>","4","","7","new_stimuli/mp3/melody_v7_v6_v5_^6_v5_v4_^5_^6_v5_.mp3"
"","383","html-button-response","262","4489591","0.0-21.0-8.3","4004","","<p>Which tone was played eight after the cadence?</p><p>Please respond as quickly and as accurately as possible!</p>","5","","8","new_stimuli/mp3/melody_v7_v6_v5_^6_v5_v4_^5_^6_v5_.mp3"
"","733","html-button-response","263","4490325","0.0-21.0-9.3","4004","","<p>Which tone was played nineth after the cadence?</p><p>Please respond as quickly and as accurately as possible!</p>","7","","9","new_stimuli/mp3/melody_v7_v6_v5_^6_v5_v4_^5_^6_v5_.mp3"
"","null","audio-keyboard-response","264","4503020","0.0-21.0-0.4","4004","","new_stimuli/mp3/melody_^2_^3_^4_^5_^6_v5_v4_v3_v2_buffer.mp3","","null","",""
"","15434","html-button-response","265","4518456","0.0-21.0-1.4","4004","","<p>Which tone was played first after the cadence?</p><p>Please respond as quickly and as accurately as possible!</p>","9","","1","new_stimuli/mp3/melody_^2_^3_^4_^5_^6_v5_v4_v3_v2_buffer.mp3"
"","704","html-button-response","266","4519161","0.0-21.0-2.4","4004","","<p>Which tone was played second after the cadence?</p><p>Please respond as quickly and as accurately as possible!</p>","10","","2","new_stimuli/mp3/melody_^2_^3_^4_^5_^6_v5_v4_v3_v2_buffer.mp3"
"","778","html-button-response","267","4519940","0.0-21.0-3.4","4004","","<p>Which tone was played third after the cadence?</p><p>Please respond as quickly and as accurately as possible!</p>","12","","3","new_stimuli/mp3/melody_^2_^3_^4_^5_^6_v5_v4_v3_v2_buffer.mp3"
"","4464","html-button-response","268","4524405","0.0-21.0-4.4","4004","","<p>Which tone was played fourth after the cadence?</p><p>Please respond as quickly and as accurately as possible!</p>","2","","4","new_stimuli/mp3/melody_^2_^3_^4_^5_^6_v5_v4_v3_v2_buffer.mp3"
"","633","html-button-response","269","4525038","0.0-21.0-5.4","4004","","<p>Which tone was played fifth after the cadence?</p><p>Please respond as quickly and as accurately as possible!</p>","4","","5","new_stimuli/mp3/melody_^2_^3_^4_^5_^6_v5_v4_v3_v2_buffer.mp3"
"","488","html-button-response","270","4525527","0.0-21.0-6.4","4004","","<p>Which tone was played sixth after the cadence?</p><p>Please respond as quickly and as accurately as possible!</p>","2","","6","new_stimuli/mp3/melody_^2_^3_^4_^5_^6_v5_v4_v3_v2_buffer.mp3"
"","483","html-button-response","271","4526011","0.0-21.0-7.4","4004","","<p>Which tone was played seventh after the cadence?</p><p>Please respond as quickly and as accurately as possible!</p>","0","","7","new_stimuli/mp3/melody_^2_^3_^4_^5_^6_v5_v4_v3_v2_buffer.mp3"
"","2676","html-button-response","272","4528688","0.0-21.0-8.4","4004","","<p>Which tone was played eight after the cadence?</p><p>Please respond as quickly and as accurately as possible!</p>","10","","8","new_stimuli/mp3/melody_^2_^3_^4_^5_^6_v5_v4_v3_v2_buffer.mp3"
"","480","html-button-response","273","4529168","0.0-21.0-9.4","4004","","<p>Which tone was played nineth after the cadence?</p><p>Please respond as quickly and as accurately as possible!</p>","9","","9","new_stimuli/mp3/melody_^2_^3_^4_^5_^6_v5_v4_v3_v2_buffer.mp3"
"","null","audio-keyboard-response","274","4542092","0.0-21.0-0.5","4004","","new_stimuli/mp3/melody_^2_^4_v3_v2_v1_v3_v2+_^3_^5+_.mp3","","null","",""
"","18778","html-button-response","275","4560870","0.0-21.0-1.5","4004","","<p>Which tone was played first after the cadence?</p><p>Please respond as quickly and as accurately as possible!</p>","0","","1","new_stimuli/mp3/melody_^2_^4_v3_v2_v1_v3_v2+_^3_^5+_.mp3"
"","3288","html-button-response","276","4564159","0.0-21.0-2.5","4004","","<p>Which tone was played second after the cadence?</p><p>Please respond as quickly and as accurately as possible!</p>","4","","2","new_stimuli/mp3/melody_^2_^4_v3_v2_v1_v3_v2+_^3_^5+_.mp3"
"","587","html-button-response","277","4564747","0.0-21.0-3.5","4004","","<p>Which tone was played third after the cadence?</p><p>Please respond as quickly and as accurately as possible!</p>","5","","3","new_stimuli/mp3/melody_^2_^4_v3_v2_v1_v3_v2+_^3_^5+_.mp3"
"","588","html-button-response","278","4565335","0.0-21.0-4.5","4004","","<p>Which tone was played fourth after the cadence?</p><p>Please respond as quickly and as accurately as possible!</p>","4","","4","new_stimuli/mp3/melody_^2_^4_v3_v2_v1_v3_v2+_^3_^5+_.mp3"
"","3920","html-button-response","279","4569256","0.0-21.0-5.5","4004","","<p>Which tone was played fifth after the cadence?</p><p>Please respond as quickly and as accurately as possible!</p>","2","","5","new_stimuli/mp3/melody_^2_^4_v3_v2_v1_v3_v2+_^3_^5+_.mp3"
"","884","html-button-response","280","4570140","0.0-21.0-6.5","4004","","<p>Which tone was played sixth after the cadence?</p><p>Please respond as quickly and as accurately as possible!</p>","6","","6","new_stimuli/mp3/melody_^2_^4_v3_v2_v1_v3_v2+_^3_^5+_.mp3"
"","12147","html-button-response","281","4582289","0.0-21.0-7.5","4004","","<p>Which tone was played seventh after the cadence?</p><p>Please respond as quickly and as accurately as possible!</p>","3","","7","new_stimuli/mp3/melody_^2_^4_v3_v2_v1_v3_v2+_^3_^5+_.mp3"
"","487","html-button-response","282","4582776","0.0-21.0-8.5","4004","","<p>Which tone was played eight after the cadence?</p><p>Please respond as quickly and as accurately as possible!</p>","5","","8","new_stimuli/mp3/melody_^2_^4_v3_v2_v1_v3_v2+_^3_^5+_.mp3"
"","618","html-button-response","283","4583394","0.0-21.0-9.5","4004","","<p>Which tone was played nineth after the cadence?</p><p>Please respond as quickly and as accurately as possible!</p>","6","","9","new_stimuli/mp3/melody_^2_^4_v3_v2_v1_v3_v2+_^3_^5+_.mp3"
"","null","audio-keyboard-response","284","4595964","0.0-21.0-0.6","4004","","new_stimuli/mp3/melody_^3_^4_^5 _^6_v5_v4_v3_v2_v1_.mp3","","null","",""
"","1634","html-button-response","285","4597599","0.0-21.0-1.6","4004","","<p>Which tone was played first after the cadence?</p><p>Please respond as quickly and as accurately as possible!</p>","0","","1","new_stimuli/mp3/melody_^3_^4_^5 _^6_v5_v4_v3_v2_v1_.mp3"
"","561","html-button-response","286","4598160","0.0-21.0-2.6","4004","","<p>Which tone was played second after the cadence?</p><p>Please respond as quickly and as accurately as possible!</p>","2","","2","new_stimuli/mp3/melody_^3_^4_^5 _^6_v5_v4_v3_v2_v1_.mp3"
"","628","html-button-response","287","4598790","0.0-21.0-3.6","4004","","<p>Which tone was played third after the cadence?</p><p>Please respond as quickly and as accurately as possible!</p>","4","","3","new_stimuli/mp3/melody_^3_^4_^5 _^6_v5_v4_v3_v2_v1_.mp3"
"","1118","html-button-response","288","4599908","0.0-21.0-4.6","4004","","<p>Which tone was played fourth after the cadence?</p><p>Please respond as quickly and as accurately as possible!</p>","5","","4","new_stimuli/mp3/melody_^3_^4_^5 _^6_v5_v4_v3_v2_v1_.mp3"
"","506","html-button-response","289","4600415","0.0-21.0-5.6","4004","","<p>Which tone was played fifth after the cadence?</p><p>Please respond as quickly and as accurately as possible!</p>","4","","5","new_stimuli/mp3/melody_^3_^4_^5 _^6_v5_v4_v3_v2_v1_.mp3"
"","588","html-button-response","290","4601003","0.0-21.0-6.6","4004","","<p>Which tone was played sixth after the cadence?</p><p>Please respond as quickly and as accurately as possible!</p>","2","","6","new_stimuli/mp3/melody_^3_^4_^5 _^6_v5_v4_v3_v2_v1_.mp3"
"","1012","html-button-response","291","4602016","0.0-21.0-7.6","4004","","<p>Which tone was played seventh after the cadence?</p><p>Please respond as quickly and as accurately as possible!</p>","0","","7","new_stimuli/mp3/melody_^3_^4_^5 _^6_v5_v4_v3_v2_v1_.mp3"
"","2929","html-button-response","292","4604947","0.0-21.0-8.6","4004","","<p>Which tone was played eight after the cadence?</p><p>Please respond as quickly and as accurately as possible!</p>","11","","8","new_stimuli/mp3/melody_^3_^4_^5 _^6_v5_v4_v3_v2_v1_.mp3"
"","1087","html-button-response","293","4606035","0.0-21.0-9.6","4004","","<p>Which tone was played nineth after the cadence?</p><p>Please respond as quickly and as accurately as possible!</p>","0","","9","new_stimuli/mp3/melody_^3_^4_^5 _^6_v5_v4_v3_v2_v1_.mp3"
"","19992","survey-text","294","4626029","0.0-22.0","4004","{""Q0"":""Singing back""}","","","","",""
"","399979","survey-text","295","5026008","0.0-23.0","4004","{""Q0"":""Moveable Do and La based minor are often used together.  The first section is too long.  Confusing what to input when the sequence goes above or below the available inputs.""}","","","","",""
"","20401","survey-text","296","5046410","0.0-24.0","4004","{""Q0"":""Nope.""}","","","","",""
"","5745","survey-text","297","5052155","0.0-25.0","4004","{""Q0"":""Speakers.""}","","","","",""
"","4829","survey-text","298","5056985","0.0-26.0","4004","{""Q0"":""Male""}","","","","",""
"","6633","survey-text","299","5063619","0.0-27.0","4004","{""Q0"":""Yes.""}","","","","",""
"[{""page_index"":0,""viewing_time"":7868}]","7868","instructions","300","5071488","0.0-28.0","4004","","","","","",""
