"view_history","rt","trial_type","trial_index","time_elapsed","internal_node_id","subject","responses","stimulus","button_pressed","key_press","response_sequence","melody"
"[{""page_index"":0,""viewing_time"":17774.139999999985},{""page_index"":1,""viewing_time"":24062.644999999975},{""page_index"":2,""viewing_time"":4038.5299999998097}]","45875.82500000007","instructions","0","45897","0.0-0.0","43031","","","","","",""
"","5792.495000000155","survey-text","1","51693","0.0-1.0","43031","{""Q0"":""23""}","","","","",""
"","5189.620000000112","survey-text","2","56887","0.0-2.0","43031","{""Q0"":""Bachelor's""}","","","","",""
"","7671.959999999672","survey-text","3","64561","0.0-3.0","43031","{""Q0"":""Fixed-Do""}","","","","",""
"","14124.53499999993","survey-text","4","78688","0.0-4.0","43031","{""Q0"":""yes""}","","","","",""
"","21848.51000000027","survey-text","5","100538","0.0-5.0","43031","{""Q0"":""90""}","","","","",""
"","8728.055000000051","survey-text","6","109267","0.0-6.0","43031","{""Q0"":""0""}","","","","",""
"[{""page_index"":0,""viewing_time"":8671.925000000105},{""page_index"":1,""viewing_time"":56789.81999999998},{""page_index"":2,""viewing_time"":1709.2449999999953}]","67171.27500000017","instructions","7","176440","0.0-7.0","43031","","","","","",""
"","11020.965000000142","audio-button-response","8","187466","0.0-8.0","43031","","stimuli/long/c-do.mp3","0","","",""
"","26951.55999999997","audio-button-response","9","214420","0.0-9.0","43031","","stimuli/long/a-le.mp3","8","","",""
"[{""page_index"":0,""viewing_time"":7467.830000000045},{""page_index"":1,""viewing_time"":33344.63999999978}]","40812.73000000007","instructions","10","255234","0.0-10.0","43031","","","","","",""
"","15600.770000000019","audio-button-response","11","270838","0.0-11.0-0.0","43031","","stimuli/long/a-ti.mp3","11","","",""
"","10740.754999999772","audio-button-response","12","281582","0.0-11.0-0.1","43031","","stimuli/long/a-do.mp3","0","","",""
"","10155.420000000042","audio-button-response","13","291739","0.0-11.0-0.2","43031","","stimuli/long/e-me.mp3","3","","",""
"","54.690000000351574","audio-button-response","14","291798","0.0-11.0-0.3","43031","","stimuli/long/e-fi.mp3","3","","",""
"","13878.374999999767","audio-button-response","15","305678","0.0-11.0-0.4","43031","","stimuli/long/c-me.mp3","3","","",""
"","11753.459999999905","audio-button-response","16","317435","0.0-11.0-0.5","43031","","stimuli/long/a-la.mp3","9","","",""
"","7893.770000000135","audio-button-response","17","325332","0.0-11.0-0.6","43031","","stimuli/long/a-le.mp3","8","","",""
"","8918.22000000003","audio-button-response","18","334253","0.0-11.0-0.7","43031","","stimuli/long/c-sol.mp3","7","","",""
"","11203.315000000177","audio-button-response","19","345460","0.0-11.0-0.8","43031","","stimuli/long/e-re.mp3","2","","",""
"","8680.804999999993","audio-button-response","20","354143","0.0-11.0-0.9","43031","","stimuli/long/c-ti.mp3","11","","",""
"","10807.975000000151","audio-button-response","21","364955","0.0-11.0-0.10","43031","","stimuli/long/c-ra.mp3","1","","",""
"","9693.760000000126","audio-button-response","22","374652","0.0-11.0-0.11","43031","","stimuli/long/e-fa.mp3","5","","",""
"","11888.66000000009","audio-button-response","23","386543","0.0-11.0-0.12","43031","","stimuli/long/e-ti.mp3","11","","",""
"","9639.615000000049","audio-button-response","24","396187","0.0-11.0-0.13","43031","","stimuli/long/a-me.mp3","3","","",""
"","330.91499999997905","audio-button-response","25","396526","0.0-11.0-0.14","43031","","stimuli/long/c-mi.mp3","3","","",""
"","8843.599999999686","audio-button-response","26","405375","0.0-11.0-0.15","43031","","stimuli/long/e-mi.mp3","4","","",""
"","8176.349999999744","audio-button-response","27","413554","0.0-11.0-0.16","43031","","stimuli/long/c-la.mp3","9","","",""
"","10303.570000000007","audio-button-response","28","423861","0.0-11.0-0.17","43031","","stimuli/long/c-fi.mp3","6","","",""
"","10794.640000000072","audio-button-response","29","434658","0.0-11.0-0.18","43031","","stimuli/long/a-ra.mp3","1","","",""
"","8895.524999999907","audio-button-response","30","443557","0.0-11.0-0.19","43031","","stimuli/long/a-do8.mp3","12","","",""
"","10335.359999999579","audio-button-response","31","453895","0.0-11.0-0.20","43031","","stimuli/long/a-re.mp3","2","","",""
"","8715.994999999995","audio-button-response","32","462614","0.0-11.0-0.21","43031","","stimuli/long/a-sol.mp3","7","","",""
"","7534.92499999993","audio-button-response","33","470151","0.0-11.0-0.22","43031","","stimuli/long/c-do.mp3","0","","",""
"","7905.639999999956","audio-button-response","34","478060","0.0-11.0-0.23","43031","","stimuli/long/e-sol.mp3","7","","",""
"","10290.840000000142","audio-button-response","35","488354","0.0-11.0-0.24","43031","","stimuli/long/a-te.mp3","10","","",""
"","10875.970000000088","audio-button-response","36","499232","0.0-11.0-0.25","43031","","stimuli/long/e-ra.mp3","1","","",""
"","11044.730000000098","audio-button-response","37","510280","0.0-11.0-0.26","43031","","stimuli/long/a-fi.mp3","6","","",""
"","9143.279999999795","audio-button-response","38","519426","0.0-11.0-0.27","43031","","stimuli/long/a-fa.mp3","5","","",""
"","9660.155000000144","audio-button-response","39","529090","0.0-11.0-0.28","43031","","stimuli/long/e-do8.mp3","12","","",""
"","10110.270000000135","audio-button-response","40","539203","0.0-11.0-0.29","43031","","stimuli/long/a-mi.mp3","4","","",""
"","12270.959999999846","audio-button-response","41","551477","0.0-11.0-0.30","43031","","stimuli/long/e-la.mp3","9","","",""
"","7714.60000000021","audio-button-response","42","559194","0.0-11.0-0.31","43031","","stimuli/long/c-fa.mp3","5","","",""
"","9121.380000000005","audio-button-response","43","568318","0.0-11.0-0.32","43031","","stimuli/long/c-re.mp3","2","","",""
"","8996.804999999702","audio-button-response","44","577318","0.0-11.0-0.33","43031","","stimuli/long/e-le.mp3","8","","",""
"","8432.769999999902","audio-button-response","45","585755","0.0-11.0-0.34","43031","","stimuli/long/e-do.mp3","0","","",""
"","8243.55999999994","audio-button-response","46","594001","0.0-11.0-0.35","43031","","stimuli/long/c-do8.mp3","12","","",""
"","8299.555000000051","audio-button-response","47","602303","0.0-11.0-0.36","43031","","stimuli/long/c-le.mp3","8","","",""
"","9942.419999999925","audio-button-response","48","612248","0.0-11.0-0.37","43031","","stimuli/long/e-te.mp3","10","","",""
"[{""page_index"":0,""viewing_time"":12710.40500000026},{""page_index"":1,""viewing_time"":1293.8799999996554}]","14004.490000000224","instructions","49","626254","0.0-12.0","43031","","","","","",""
"","null","audio-keyboard-response","50","635714","0.0-13.0-0.0","43031","","new_stimuli/mp3/melody_v7_v3_buffer.mp3","","null","",""
"","4047.465000000084","html-button-response","51","639766","0.0-13.0-1.0","43031","","<p>Which tone was played first after the cadence?</p><p>Please respond as quickly and as accurately as possible!</p>","11","","1","new_stimuli/mp3/melody_v7_v3_buffer.mp3"
"","2213.430000000284","html-button-response","52","641982","0.0-13.0-2.0","43031","","<p>Which tone was played second after the cadence?</p><p>Please respond as quickly and as accurately as possible!</p>","4","","2","new_stimuli/mp3/melody_v7_v3_buffer.mp3"
"","null","audio-keyboard-response","53","651152","0.0-13.0-0.1","43031","","new_stimuli/mp3/melody_^5_^1+_.mp3","","null","",""
"","1580.7550000000047","html-button-response","54","652736","0.0-13.0-1.1","43031","","<p>Which tone was played first after the cadence?</p><p>Please respond as quickly and as accurately as possible!</p>","7","","1","new_stimuli/mp3/melody_^5_^1+_.mp3"
"","2765.210000000079","html-button-response","55","655503","0.0-13.0-2.1","43031","","<p>Which tone was played second after the cadence?</p><p>Please respond as quickly and as accurately as possible!</p>","1","","2","new_stimuli/mp3/melody_^5_^1+_.mp3"
"","null","audio-keyboard-response","56","664812","0.0-13.0-0.2","43031","","new_stimuli/mp3/melody_3_^6_buffer.mp3","","null","",""
"","1624.3549999999814","html-button-response","57","666439","0.0-13.0-1.2","43031","","<p>Which tone was played first after the cadence?</p><p>Please respond as quickly and as accurately as possible!</p>","4","","1","new_stimuli/mp3/melody_3_^6_buffer.mp3"
"","762.0050000000047","html-button-response","58","667204","0.0-13.0-2.2","43031","","<p>Which tone was played second after the cadence?</p><p>Please respond as quickly and as accurately as possible!</p>","9","","2","new_stimuli/mp3/melody_3_^6_buffer.mp3"
"","null","audio-keyboard-response","59","676222","0.0-13.0-0.3","43031","","new_stimuli/mp3/melody_^1_^2+_.mp3","","null","",""
"","1137.4449999998324","html-button-response","60","677363","0.0-13.0-1.3","43031","","<p>Which tone was played first after the cadence?</p><p>Please respond as quickly and as accurately as possible!</p>","0","","1","new_stimuli/mp3/melody_^1_^2+_.mp3"
"","638.3000000000466","html-button-response","61","678004","0.0-13.0-2.3","43031","","<p>Which tone was played second after the cadence?</p><p>Please respond as quickly and as accurately as possible!</p>","3","","2","new_stimuli/mp3/melody_^1_^2+_.mp3"
"","null","audio-keyboard-response","62","687072","0.0-13.0-0.4","43031","","new_stimuli/mp3/melody_v2_v1_.mp3","","null","",""
"","1087.5900000000838","html-button-response","63","688162","0.0-13.0-1.4","43031","","<p>Which tone was played first after the cadence?</p><p>Please respond as quickly and as accurately as possible!</p>","2","","1","new_stimuli/mp3/melody_v2_v1_.mp3"
"","761.6499999999069","html-button-response","64","688927","0.0-13.0-2.4","43031","","<p>Which tone was played second after the cadence?</p><p>Please respond as quickly and as accurately as possible!</p>","0","","2","new_stimuli/mp3/melody_v2_v1_.mp3"
"","null","audio-keyboard-response","65","698352","0.0-13.0-0.5","43031","","new_stimuli/mp3/melody_v4_v3_buffer.mp3","","null","",""
"","1506.9899999998743","html-button-response","66","699862","0.0-13.0-1.5","43031","","<p>Which tone was played first after the cadence?</p><p>Please respond as quickly and as accurately as possible!</p>","5","","1","new_stimuli/mp3/melody_v4_v3_buffer.mp3"
"","424.79999999981374","html-button-response","67","700289","0.0-13.0-2.5","43031","","<p>Which tone was played second after the cadence?</p><p>Please respond as quickly and as accurately as possible!</p>","4","","2","new_stimuli/mp3/melody_v4_v3_buffer.mp3"
"","null","audio-keyboard-response","68","709742","0.0-13.0-0.6","43031","","new_stimuli/mp3/melody_^3_v4+_buffer.mp3","","null","",""
"","1028.480000000447","html-button-response","69","710774","0.0-13.0-1.6","43031","","<p>Which tone was played first after the cadence?</p><p>Please respond as quickly and as accurately as possible!</p>","4","","1","new_stimuli/mp3/melody_^3_v4+_buffer.mp3"
"","594.9049999999115","html-button-response","70","711372","0.0-13.0-2.6","43031","","<p>Which tone was played second after the cadence?</p><p>Please respond as quickly and as accurately as possible!</p>","6","","2","new_stimuli/mp3/melody_^3_v4+_buffer.mp3"
"","null","audio-keyboard-response","71","720543","0.0-13.0-0.7","43031","","new_stimuli/mp3/melody_^2_v7-_.mp3","","null","",""
"","3392.3349999999627","html-button-response","72","723938","0.0-13.0-1.7","43031","","<p>Which tone was played first after the cadence?</p><p>Please respond as quickly and as accurately as possible!</p>","2","","1","new_stimuli/mp3/melody_^2_v7-_.mp3"
"","1256.8700000002282","html-button-response","73","725198","0.0-13.0-2.7","43031","","<p>Which tone was played second after the cadence?</p><p>Please respond as quickly and as accurately as possible!</p>","10","","2","new_stimuli/mp3/melody_^2_v7-_.mp3"
"","null","audio-keyboard-response","74","734372","0.0-13.0-0.8","43031","","new_stimuli/mp3/melody_v5_v1+_.mp3","","null","",""
"","1371.695000000298","html-button-response","75","735750","0.0-13.0-1.8","43031","","<p>Which tone was played first after the cadence?</p><p>Please respond as quickly and as accurately as possible!</p>","7","","1","new_stimuli/mp3/melody_v5_v1+_.mp3"
"","819.5","html-button-response","76","736571","0.0-13.0-2.8","43031","","<p>Which tone was played second after the cadence?</p><p>Please respond as quickly and as accurately as possible!</p>","1","","2","new_stimuli/mp3/melody_v5_v1+_.mp3"
"","null","audio-keyboard-response","77","745773","0.0-13.0-0.9","43031","","new_stimuli/mp3/melody_v3_v2_buffer.mp3","","null","",""
"","1571.7399999998743","html-button-response","78","747348","0.0-13.0-1.9","43031","","<p>Which tone was played first after the cadence?</p><p>Please respond as quickly and as accurately as possible!</p>","4","","1","new_stimuli/mp3/melody_v3_v2_buffer.mp3"
"","625.9700000000885","html-button-response","79","747978","0.0-13.0-2.9","43031","","<p>Which tone was played second after the cadence?</p><p>Please respond as quickly and as accurately as possible!</p>","2","","2","new_stimuli/mp3/melody_v3_v2_buffer.mp3"
"[{""page_index"":0,""viewing_time"":3596.7399999999907},{""page_index"":1,""viewing_time"":2497.4649999999674},{""page_index"":2,""viewing_time"":888.4649999999674}]","6982.864999999991","instructions","80","754964","0.0-14.0","43031","","","","","",""
"","null","audio-keyboard-response","81","764533","0.0-15.0-0.0","43031","","new_stimuli/mp3/melody_v3_v2_v1_.mp3","","null","",""
"","1519.3300000000745","html-button-response","82","766057","0.0-15.0-1.0","43031","","<p>Which tone was played first after the cadence?</p><p>Please respond as quickly and as accurately as possible!</p>","4","","1","new_stimuli/mp3/melody_v3_v2_v1_.mp3"
"","628.2999999998137","html-button-response","83","766687","0.0-15.0-2.0","43031","","<p>Which tone was played second after the cadence?</p><p>Please respond as quickly and as accurately as possible!</p>","2","","2","new_stimuli/mp3/melody_v3_v2_v1_.mp3"
"","593.4149999998044","html-button-response","84","767283","0.0-15.0-3.0","43031","","<p>Which tone was played third after the cadence?</p><p>Please respond as quickly and as accurately as possible!</p>","0","","3","new_stimuli/mp3/melody_v3_v2_v1_.mp3"
"","null","audio-keyboard-response","85","776852","0.0-15.0-0.1","43031","","new_stimuli/mp3/melody_v1_v7-_^7_.mp3","","null","",""
"","1160.0049999997718","html-button-response","86","778015","0.0-15.0-1.1","43031","","<p>Which tone was played first after the cadence?</p><p>Please respond as quickly and as accurately as possible!</p>","12","","1","new_stimuli/mp3/melody_v1_v7-_^7_.mp3"
"","492.88500000012573","html-button-response","87","778510","0.0-15.0-2.1","43031","","<p>Which tone was played second after the cadence?</p><p>Please respond as quickly and as accurately as possible!</p>","10","","2","new_stimuli/mp3/melody_v1_v7-_^7_.mp3"
"","503.36000000021886","html-button-response","88","779016","0.0-15.0-3.1","43031","","<p>Which tone was played third after the cadence?</p><p>Please respond as quickly and as accurately as possible!</p>","11","","3","new_stimuli/mp3/melody_v1_v7-_^7_.mp3"
"","null","audio-keyboard-response","89","788911","0.0-15.0-0.2","43031","","new_stimuli/mp3/melody_^1_v6_v5+_.mp3","","null","",""
"","1049.4300000000512","html-button-response","90","789963","0.0-15.0-1.2","43031","","<p>Which tone was played first after the cadence?</p><p>Please respond as quickly and as accurately as possible!</p>","12","","1","new_stimuli/mp3/melody_^1_v6_v5+_.mp3"
"","897.0850000000792","html-button-response","91","790862","0.0-15.0-2.2","43031","","<p>Which tone was played second after the cadence?</p><p>Please respond as quickly and as accurately as possible!</p>","9","","2","new_stimuli/mp3/melody_^1_v6_v5+_.mp3"
"","402.49999999965075","html-button-response","92","791268","0.0-15.0-3.2","43031","","<p>Which tone was played third after the cadence?</p><p>Please respond as quickly and as accurately as possible!</p>","8","","3","new_stimuli/mp3/melody_^1_v6_v5+_.mp3"
"","null","audio-keyboard-response","93","800901","0.0-15.0-0.3","43031","","new_stimuli/mp3/melody_6_^1_v5_.mp3","","null","",""
"","1118.7900000000373","html-button-response","94","802022","0.0-15.0-1.3","43031","","<p>Which tone was played first after the cadence?</p><p>Please respond as quickly and as accurately as possible!</p>","9","","1","new_stimuli/mp3/melody_6_^1_v5_.mp3"
"","875.785000000149","html-button-response","95","802900","0.0-15.0-2.3","43031","","<p>Which tone was played second after the cadence?</p><p>Please respond as quickly and as accurately as possible!</p>","12","","2","new_stimuli/mp3/melody_6_^1_v5_.mp3"
"","1323.339999999851","html-button-response","96","804228","0.0-15.0-3.3","43031","","<p>Which tone was played third after the cadence?</p><p>Please respond as quickly and as accurately as possible!</p>","7","","3","new_stimuli/mp3/melody_6_^1_v5_.mp3"
"","null","audio-keyboard-response","97","814182","0.0-15.0-0.4","43031","","new_stimuli/mp3/melody_v5_v4_v3_buffer.mp3","","null","",""
"","1281.5550000000512","html-button-response","98","815465","0.0-15.0-1.4","43031","","<p>Which tone was played first after the cadence?</p><p>Please respond as quickly and as accurately as possible!</p>","7","","1","new_stimuli/mp3/melody_v5_v4_v3_buffer.mp3"
"","515.3850000002421","html-button-response","99","815983","0.0-15.0-2.4","43031","","<p>Which tone was played second after the cadence?</p><p>Please respond as quickly and as accurately as possible!</p>","5","","2","new_stimuli/mp3/melody_v5_v4_v3_buffer.mp3"
"","942.3999999999069","html-button-response","100","816928","0.0-15.0-3.4","43031","","<p>Which tone was played third after the cadence?</p><p>Please respond as quickly and as accurately as possible!</p>","4","","3","new_stimuli/mp3/melody_v5_v4_v3_buffer.mp3"
"","null","audio-keyboard-response","101","826622","0.0-15.0-0.5","43031","","new_stimuli/mp3/melody_v4_v3_v2_buffer.mp3","","null","",""
"","1035.155000000028","html-button-response","102","827661","0.0-15.0-1.5","43031","","<p>Which tone was played first after the cadence?</p><p>Please respond as quickly and as accurately as possible!</p>","5","","1","new_stimuli/mp3/melody_v4_v3_v2_buffer.mp3"
"","514.3400000002002","html-button-response","103","828178","0.0-15.0-2.5","43031","","<p>Which tone was played second after the cadence?</p><p>Please respond as quickly and as accurately as possible!</p>","4","","2","new_stimuli/mp3/melody_v4_v3_v2_buffer.mp3"
"","584.1399999998976","html-button-response","104","828764","0.0-15.0-3.5","43031","","<p>Which tone was played third after the cadence?</p><p>Please respond as quickly and as accurately as possible!</p>","2","","3","new_stimuli/mp3/melody_v4_v3_v2_buffer.mp3"
"","null","audio-keyboard-response","105","838272","0.0-15.0-0.6","43031","","new_stimuli/mp3/melody_1_v1+_^2_.mp3","","null","",""
"","1073.859999999986","html-button-response","106","839349","0.0-15.0-1.6","43031","","<p>Which tone was played first after the cadence?</p><p>Please respond as quickly and as accurately as possible!</p>","0","","1","new_stimuli/mp3/melody_1_v1+_^2_.mp3"
"","447.5950000000885","html-button-response","107","839799","0.0-15.0-2.6","43031","","<p>Which tone was played second after the cadence?</p><p>Please respond as quickly and as accurately as possible!</p>","1","","2","new_stimuli/mp3/melody_1_v1+_^2_.mp3"
"","435.1950000000652","html-button-response","108","840238","0.0-15.0-3.6","43031","","<p>Which tone was played third after the cadence?</p><p>Please respond as quickly and as accurately as possible!</p>","2","","3","new_stimuli/mp3/melody_1_v1+_^2_.mp3"
"","null","audio-keyboard-response","109","850223","0.0-15.0-0.7","43031","","new_stimuli/mp3/melody_v2_v5_^3_buffer.mp3","","null","",""
"","1250.58499999973","html-button-response","110","851477","0.0-15.0-1.7","43031","","<p>Which tone was played first after the cadence?</p><p>Please respond as quickly and as accurately as possible!</p>","2","","1","new_stimuli/mp3/melody_v2_v5_^3_buffer.mp3"
"","920.5950000000885","html-button-response","111","852400","0.0-15.0-2.7","43031","","<p>Which tone was played second after the cadence?</p><p>Please respond as quickly and as accurately as possible!</p>","7","","2","new_stimuli/mp3/melody_v2_v5_^3_buffer.mp3"
"","1053.794999999809","html-button-response","112","853456","0.0-15.0-3.7","43031","","<p>Which tone was played third after the cadence?</p><p>Please respond as quickly and as accurately as possible!</p>","4","","3","new_stimuli/mp3/melody_v2_v5_^3_buffer.mp3"
"","null","audio-keyboard-response","113","863042","0.0-15.0-0.8","43031","","new_stimuli/mp3/melody_v1_v7-_7-_buffer.mp3","","null","",""
"","1143.7499999996508","html-button-response","114","864190","0.0-15.0-1.8","43031","","<p>Which tone was played first after the cadence?</p><p>Please respond as quickly and as accurately as possible!</p>","12","","1","new_stimuli/mp3/melody_v1_v7-_7-_buffer.mp3"
"","739.0550000000512","html-button-response","115","864933","0.0-15.0-2.8","43031","","<p>Which tone was played second after the cadence?</p><p>Please respond as quickly and as accurately as possible!</p>","10","","2","new_stimuli/mp3/melody_v1_v7-_7-_buffer.mp3"
"","570.3649999999907","html-button-response","116","865505","0.0-15.0-3.8","43031","","<p>Which tone was played third after the cadence?</p><p>Please respond as quickly and as accurately as possible!</p>","10","","3","new_stimuli/mp3/melody_v1_v7-_7-_buffer.mp3"
"[{""page_index"":0,""viewing_time"":3216.035000000382},{""page_index"":1,""viewing_time"":7009.464999999735},{""page_index"":2,""viewing_time"":3216.280000000028}]","13442.175000000163","instructions","117","878948","0.0-16.0","43031","","","","","",""
"","null","audio-keyboard-response","118","889532","0.0-17.0-0.0","43031","","new_stimuli/mp3/melody_v5_v4_v3_v2_v1_.mp3","","null","",""
"","1226.2249999998603","html-button-response","119","890762","0.0-17.0-1.0","43031","","<p>Which tone was played first after the cadence?</p><p>Please respond as quickly and as accurately as possible!</p>","7","","1","new_stimuli/mp3/melody_v5_v4_v3_v2_v1_.mp3"
"","571.074999999837","html-button-response","120","891335","0.0-17.0-2.0","43031","","<p>Which tone was played second after the cadence?</p><p>Please respond as quickly and as accurately as possible!</p>","5","","2","new_stimuli/mp3/melody_v5_v4_v3_v2_v1_.mp3"
"","482.50499999988824","html-button-response","121","891819","0.0-17.0-3.0","43031","","<p>Which tone was played third after the cadence?</p><p>Please respond as quickly and as accurately as possible!</p>","4","","3","new_stimuli/mp3/melody_v5_v4_v3_v2_v1_.mp3"
"","909.0100000002421","html-button-response","122","892730","0.0-17.0-4.0","43031","","<p>Which tone was played fourth after the cadence?</p><p>Please respond as quickly and as accurately as possible!</p>","2","","4","new_stimuli/mp3/melody_v5_v4_v3_v2_v1_.mp3"
"","740.1350000000093","html-button-response","123","893472","0.0-17.0-5.0","43031","","<p>Which tone was played fifth after the cadence?</p><p>Please respond as quickly and as accurately as possible!</p>","0","","5","new_stimuli/mp3/melody_v5_v4_v3_v2_v1_.mp3"
"","null","audio-keyboard-response","124","904062","0.0-17.0-0.1","43031","","new_stimuli/mp3/melody_v5_v4_v3_v2_v1 _buffer.mp3","","null","",""
"","1264.6999999997206","html-button-response","125","905330","0.0-17.0-1.1","43031","","<p>Which tone was played first after the cadence?</p><p>Please respond as quickly and as accurately as possible!</p>","7","","1","new_stimuli/mp3/melody_v5_v4_v3_v2_v1 _buffer.mp3"
"","595.0100000000093","html-button-response","126","905928","0.0-17.0-2.1","43031","","<p>Which tone was played second after the cadence?</p><p>Please respond as quickly and as accurately as possible!</p>","5","","2","new_stimuli/mp3/melody_v5_v4_v3_v2_v1 _buffer.mp3"
"","526.0450000000419","html-button-response","127","906456","0.0-17.0-3.1","43031","","<p>Which tone was played third after the cadence?</p><p>Please respond as quickly and as accurately as possible!</p>","4","","3","new_stimuli/mp3/melody_v5_v4_v3_v2_v1 _buffer.mp3"
"","672.0049999998882","html-button-response","128","907130","0.0-17.0-4.1","43031","","<p>Which tone was played fourth after the cadence?</p><p>Please respond as quickly and as accurately as possible!</p>","2","","4","new_stimuli/mp3/melody_v5_v4_v3_v2_v1 _buffer.mp3"
"","604.6600000000326","html-button-response","129","907737","0.0-17.0-5.1","43031","","<p>Which tone was played fifth after the cadence?</p><p>Please respond as quickly and as accurately as possible!</p>","0","","5","new_stimuli/mp3/melody_v5_v4_v3_v2_v1 _buffer.mp3"
"","null","audio-keyboard-response","130","918373","0.0-17.0-0.2","43031","","new_stimuli/mp3/melody_^6_v4_v3_^4_^5_.mp3","","null","",""
"","2175.335000000312","html-button-response","131","920551","0.0-17.0-1.2","43031","","<p>Which tone was played first after the cadence?</p><p>Please respond as quickly and as accurately as possible!</p>","9","","1","new_stimuli/mp3/melody_^6_v4_v3_^4_^5_.mp3"
"","976.2699999996694","html-button-response","132","921531","0.0-17.0-2.2","43031","","<p>Which tone was played second after the cadence?</p><p>Please respond as quickly and as accurately as possible!</p>","5","","2","new_stimuli/mp3/melody_^6_v4_v3_^4_^5_.mp3"
"","469.36499999987427","html-button-response","133","922002","0.0-17.0-3.2","43031","","<p>Which tone was played third after the cadence?</p><p>Please respond as quickly and as accurately as possible!</p>","4","","3","new_stimuli/mp3/melody_^6_v4_v3_^4_^5_.mp3"
"","448.8949999999022","html-button-response","134","922453","0.0-17.0-4.2","43031","","<p>Which tone was played fourth after the cadence?</p><p>Please respond as quickly and as accurately as possible!</p>","5","","4","new_stimuli/mp3/melody_^6_v4_v3_^4_^5_.mp3"
"","526.4199999996927","html-button-response","135","922982","0.0-17.0-5.2","43031","","<p>Which tone was played fifth after the cadence?</p><p>Please respond as quickly and as accurately as possible!</p>","7","","5","new_stimuli/mp3/melody_^6_v4_v3_^4_^5_.mp3"
"","null","audio-keyboard-response","136","933932","0.0-17.0-0.3","43031","","new_stimuli/mp3/melody_v5-_v3_3_^4+_v3_.mp3","","null","",""
"","3322.6149999999907","html-button-response","137","937257","0.0-17.0-1.3","43031","","<p>Which tone was played first after the cadence?</p><p>Please respond as quickly and as accurately as possible!</p>","6","","1","new_stimuli/mp3/melody_v5-_v3_3_^4+_v3_.mp3"
"","628.0750000000698","html-button-response","138","937887","0.0-17.0-2.3","43031","","<p>Which tone was played second after the cadence?</p><p>Please respond as quickly and as accurately as possible!</p>","4","","2","new_stimuli/mp3/melody_v5-_v3_3_^4+_v3_.mp3"
"","412.3650000001071","html-button-response","139","938303","0.0-17.0-3.3","43031","","<p>Which tone was played third after the cadence?</p><p>Please respond as quickly and as accurately as possible!</p>","4","","3","new_stimuli/mp3/melody_v5-_v3_3_^4+_v3_.mp3"
"","538.0350000000326","html-button-response","140","938843","0.0-17.0-4.3","43031","","<p>Which tone was played fourth after the cadence?</p><p>Please respond as quickly and as accurately as possible!</p>","6","","4","new_stimuli/mp3/melody_v5-_v3_3_^4+_v3_.mp3"
"","616.6849999999395","html-button-response","141","939462","0.0-17.0-5.3","43031","","<p>Which tone was played fifth after the cadence?</p><p>Please respond as quickly and as accurately as possible!</p>","4","","5","new_stimuli/mp3/melody_v5-_v3_3_^4+_v3_.mp3"
"","null","audio-keyboard-response","142","950102","0.0-17.0-0.4","43031","","new_stimuli/mp3/melody_v5_^6+_^7_^1_5_.mp3","","null","",""
"","2136.774999999907","html-button-response","143","952242","0.0-17.0-1.4","43031","","<p>Which tone was played first after the cadence?</p><p>Please respond as quickly and as accurately as possible!</p>","7","","1","new_stimuli/mp3/melody_v5_^6+_^7_^1_5_.mp3"
"","627.800000000163","html-button-response","144","952872","0.0-17.0-2.4","43031","","<p>Which tone was played second after the cadence?</p><p>Please respond as quickly and as accurately as possible!</p>","9","","2","new_stimuli/mp3/melody_v5_^6+_^7_^1_5_.mp3"
"","615.8449999997392","html-button-response","145","953490","0.0-17.0-3.4","43031","","<p>Which tone was played third after the cadence?</p><p>Please respond as quickly and as accurately as possible!</p>","11","","3","new_stimuli/mp3/melody_v5_^6+_^7_^1_5_.mp3"
"","515.7549999998882","html-button-response","146","954008","0.0-17.0-4.4","43031","","<p>Which tone was played fourth after the cadence?</p><p>Please respond as quickly and as accurately as possible!</p>","12","","4","new_stimuli/mp3/melody_v5_^6+_^7_^1_5_.mp3"
"","1089.0699999999488","html-button-response","147","955099","0.0-17.0-5.4","43031","","<p>Which tone was played fifth after the cadence?</p><p>Please respond as quickly and as accurately as possible!</p>","7","","5","new_stimuli/mp3/melody_v5_^6+_^7_^1_5_.mp3"
"","null","audio-keyboard-response","148","966043","0.0-17.0-0.5","43031","","new_stimuli/mp3/melody_^5_^6_v5_v4_v3_buffer.mp3","","null","",""
"","1686.7350000002189","html-button-response","149","967733","0.0-17.0-1.5","43031","","<p>Which tone was played first after the cadence?</p><p>Please respond as quickly and as accurately as possible!</p>","7","","1","new_stimuli/mp3/melody_^5_^6_v5_v4_v3_buffer.mp3"
"","662.609999999404","html-button-response","150","968398","0.0-17.0-2.5","43031","","<p>Which tone was played second after the cadence?</p><p>Please respond as quickly and as accurately as possible!</p>","9","","2","new_stimuli/mp3/melody_^5_^6_v5_v4_v3_buffer.mp3"
"","514.7799999995623","html-button-response","151","968915","0.0-17.0-3.5","43031","","<p>Which tone was played third after the cadence?</p><p>Please respond as quickly and as accurately as possible!</p>","7","","3","new_stimuli/mp3/melody_^5_^6_v5_v4_v3_buffer.mp3"
"","513.6950000005309","html-button-response","152","969431","0.0-17.0-4.5","43031","","<p>Which tone was played fourth after the cadence?</p><p>Please respond as quickly and as accurately as possible!</p>","5","","4","new_stimuli/mp3/melody_^5_^6_v5_v4_v3_buffer.mp3"
"","447.4000000000233","html-button-response","153","969882","0.0-17.0-5.5","43031","","<p>Which tone was played fifth after the cadence?</p><p>Please respond as quickly and as accurately as possible!</p>","4","","5","new_stimuli/mp3/melody_^5_^6_v5_v4_v3_buffer.mp3"
"","null","audio-keyboard-response","154","980463","0.0-17.0-0.6","43031","","new_stimuli/mp3/melody_v2_2_^3_^4_v2_.mp3","","null","",""
"","1993.8700000002282","html-button-response","155","982459","0.0-17.0-1.6","43031","","<p>Which tone was played first after the cadence?</p><p>Please respond as quickly and as accurately as possible!</p>","2","","1","new_stimuli/mp3/melody_v2_2_^3_^4_v2_.mp3"
"","526.7350000004517","html-button-response","156","982988","0.0-17.0-2.6","43031","","<p>Which tone was played second after the cadence?</p><p>Please respond as quickly and as accurately as possible!</p>","2","","2","new_stimuli/mp3/melody_v2_2_^3_^4_v2_.mp3"
"","627.9549999999581","html-button-response","157","983618","0.0-17.0-3.6","43031","","<p>Which tone was played third after the cadence?</p><p>Please respond as quickly and as accurately as possible!</p>","4","","3","new_stimuli/mp3/melody_v2_2_^3_^4_v2_.mp3"
"","470.4599999994971","html-button-response","158","984091","0.0-17.0-4.6","43031","","<p>Which tone was played fourth after the cadence?</p><p>Please respond as quickly and as accurately as possible!</p>","5","","4","new_stimuli/mp3/melody_v2_2_^3_^4_v2_.mp3"
"","828.5700000006473","html-button-response","159","984923","0.0-17.0-5.6","43031","","<p>Which tone was played fifth after the cadence?</p><p>Please respond as quickly and as accurately as possible!</p>","2","","5","new_stimuli/mp3/melody_v2_2_^3_^4_v2_.mp3"
"","null","audio-keyboard-response","160","995632","0.0-17.0-0.7","43031","","new_stimuli/mp3/melody_^6_v5_v4_v3_v2_buffer.mp3","","null","",""
"","1595.2799999995623","html-button-response","161","997230","0.0-17.0-1.7","43031","","<p>Which tone was played first after the cadence?</p><p>Please respond as quickly and as accurately as possible!</p>","9","","1","new_stimuli/mp3/melody_^6_v5_v4_v3_v2_buffer.mp3"
"","547.9150000000373","html-button-response","162","997781","0.0-17.0-2.7","43031","","<p>Which tone was played second after the cadence?</p><p>Please respond as quickly and as accurately as possible!</p>","7","","2","new_stimuli/mp3/melody_^6_v5_v4_v3_v2_buffer.mp3"
"","583.3650000003399","html-button-response","163","998367","0.0-17.0-3.7","43031","","<p>Which tone was played third after the cadence?</p><p>Please respond as quickly and as accurately as possible!</p>","5","","3","new_stimuli/mp3/melody_^6_v5_v4_v3_v2_buffer.mp3"
"","469.2249999997439","html-button-response","164","998838","0.0-17.0-4.7","43031","","<p>Which tone was played fourth after the cadence?</p><p>Please respond as quickly and as accurately as possible!</p>","4","","4","new_stimuli/mp3/melody_^6_v5_v4_v3_v2_buffer.mp3"
"","774.9599999998463","html-button-response","165","999615","0.0-17.0-5.7","43031","","<p>Which tone was played fifth after the cadence?</p><p>Please respond as quickly and as accurately as possible!</p>","2","","5","new_stimuli/mp3/melody_^6_v5_v4_v3_v2_buffer.mp3"
"[{""page_index"":0,""viewing_time"":2033.9549999998417},{""page_index"":1,""viewing_time"":1158.8700000002282},{""page_index"":2,""viewing_time"":3859.1849999993574}]","7052.544999999576","instructions","166","1006669","0.0-18.0","43031","","","","","",""
"","null","audio-keyboard-response","167","1018372","0.0-19.0-0.0","43031","","new_stimuli/mp3/melody_v1_^2_v1_v7_^1_^3_v2_.mp3","","null","",""
"","1569.0349999994505","html-button-response","168","1019944","0.0-19.0-1.0","43031","","<p>Which tone was played first after the cadence?</p><p>Please respond as quickly and as accurately as possible!</p>","0","","1","new_stimuli/mp3/melody_v1_^2_v1_v7_^1_^3_v2_.mp3"
"","571.565000000177","html-button-response","169","1020518","0.0-19.0-2.0","43031","","<p>Which tone was played second after the cadence?</p><p>Please respond as quickly and as accurately as possible!</p>","2","","2","new_stimuli/mp3/melody_v1_^2_v1_v7_^1_^3_v2_.mp3"
"","638.6799999999348","html-button-response","170","1021159","0.0-19.0-3.0","43031","","<p>Which tone was played third after the cadence?</p><p>Please respond as quickly and as accurately as possible!</p>","0","","3","new_stimuli/mp3/melody_v1_^2_v1_v7_^1_^3_v2_.mp3"
"","1076.950000000419","html-button-response","171","1022238","0.0-19.0-4.0","43031","","<p>Which tone was played fourth after the cadence?</p><p>Please respond as quickly and as accurately as possible!</p>","11","","4","new_stimuli/mp3/melody_v1_^2_v1_v7_^1_^3_v2_.mp3"
"","1168.5699999995995","html-button-response","172","1023409","0.0-19.0-5.0","43031","","<p>Which tone was played fifth after the cadence?</p><p>Please respond as quickly and as accurately as possible!</p>","0","","5","new_stimuli/mp3/melody_v1_^2_v1_v7_^1_^3_v2_.mp3"
"","1279.3550000006799","html-button-response","173","1024691","0.0-19.0-6.0","43031","","<p>Which tone was played sixth after the cadence?</p><p>Please respond as quickly and as accurately as possible!</p>","4","","6","new_stimuli/mp3/melody_v1_^2_v1_v7_^1_^3_v2_.mp3"
"","546.3449999997392","html-button-response","174","1025241","0.0-19.0-7.0","43031","","<p>Which tone was played seventh after the cadence?</p><p>Please respond as quickly and as accurately as possible!</p>","2","","7","new_stimuli/mp3/melody_v1_^2_v1_v7_^1_^3_v2_.mp3"
"","null","audio-keyboard-response","175","1036952","0.0-19.0-0.1","43031","","new_stimuli/mp3/melody_^1_v7_v6_v5_v4_v3_v2_buffer.mp3","","null","",""
"","1168.5600000000559","html-button-response","176","1038123","0.0-19.0-1.1","43031","","<p>Which tone was played first after the cadence?</p><p>Please respond as quickly and as accurately as possible!</p>","12","","1","new_stimuli/mp3/melody_^1_v7_v6_v5_v4_v3_v2_buffer.mp3"
"","487.89500000025146","html-button-response","177","1038620","0.0-19.0-2.1","43031","","<p>Which tone was played second after the cadence?</p><p>Please respond as quickly and as accurately as possible!</p>","11","","2","new_stimuli/mp3/melody_^1_v7_v6_v5_v4_v3_v2_buffer.mp3"
"","559.3550000002142","html-button-response","178","1039181","0.0-19.0-3.1","43031","","<p>Which tone was played third after the cadence?</p><p>Please respond as quickly and as accurately as possible!</p>","9","","3","new_stimuli/mp3/melody_^1_v7_v6_v5_v4_v3_v2_buffer.mp3"
"","559.339999999851","html-button-response","179","1039743","0.0-19.0-4.1","43031","","<p>Which tone was played fourth after the cadence?</p><p>Please respond as quickly and as accurately as possible!</p>","7","","4","new_stimuli/mp3/melody_^1_v7_v6_v5_v4_v3_v2_buffer.mp3"
"","583.7149999996182","html-button-response","180","1040329","0.0-19.0-5.1","43031","","<p>Which tone was played fifth after the cadence?</p><p>Please respond as quickly and as accurately as possible!</p>","5","","5","new_stimuli/mp3/melody_^1_v7_v6_v5_v4_v3_v2_buffer.mp3"
"","458.72499999962747","html-button-response","181","1040790","0.0-19.0-6.1","43031","","<p>Which tone was played sixth after the cadence?</p><p>Please respond as quickly and as accurately as possible!</p>","4","","6","new_stimuli/mp3/melody_^1_v7_v6_v5_v4_v3_v2_buffer.mp3"
"","919.3649999997579","html-button-response","182","1041711","0.0-19.0-7.1","43031","","<p>Which tone was played seventh after the cadence?</p><p>Please respond as quickly and as accurately as possible!</p>","2","","7","new_stimuli/mp3/melody_^1_v7_v6_v5_v4_v3_v2_buffer.mp3"
"","null","audio-keyboard-response","183","1053392","0.0-19.0-0.2","43031","","new_stimuli/mp3/melody_^4_v6-_v5-_^6-_^4_v2-_2-_.mp3","","null","",""
"","3109.9799999999814","html-button-response","184","1056505","0.0-19.0-1.2","43031","","<p>Which tone was played first after the cadence?</p><p>Please respond as quickly and as accurately as possible!</p>","5","","1","new_stimuli/mp3/melody_^4_v6-_v5-_^6-_^4_v2-_2-_.mp3"
"","1066.41500000027","html-button-response","185","1057573","0.0-19.0-2.2","43031","","<p>Which tone was played second after the cadence?</p><p>Please respond as quickly and as accurately as possible!</p>","8","","2","new_stimuli/mp3/melody_^4_v6-_v5-_^6-_^4_v2-_2-_.mp3"
"","886.8250000004191","html-button-response","186","1058462","0.0-19.0-3.2","43031","","<p>Which tone was played third after the cadence?</p><p>Please respond as quickly and as accurately as possible!</p>","6","","3","new_stimuli/mp3/melody_^4_v6-_v5-_^6-_^4_v2-_2-_.mp3"
"","790.4150000005029","html-button-response","187","1059261","0.0-19.0-4.2","43031","","<p>Which tone was played fourth after the cadence?</p><p>Please respond as quickly and as accurately as possible!</p>","8","","4","new_stimuli/mp3/melody_^4_v6-_v5-_^6-_^4_v2-_2-_.mp3"
"","1775.1749999998137","html-button-response","188","1061039","0.0-19.0-5.2","43031","","<p>Which tone was played fifth after the cadence?</p><p>Please respond as quickly and as accurately as possible!</p>","5","","5","new_stimuli/mp3/melody_^4_v6-_v5-_^6-_^4_v2-_2-_.mp3"
"","1819.9850000001024","html-button-response","189","1062861","0.0-19.0-6.2","43031","","<p>Which tone was played sixth after the cadence?</p><p>Please respond as quickly and as accurately as possible!</p>","1","","6","new_stimuli/mp3/melody_^4_v6-_v5-_^6-_^4_v2-_2-_.mp3"
"","436.5499999995809","html-button-response","190","1063300","0.0-19.0-7.2","43031","","<p>Which tone was played seventh after the cadence?</p><p>Please respond as quickly and as accurately as possible!</p>","1","","7","new_stimuli/mp3/melody_^4_v6-_v5-_^6-_^4_v2-_2-_.mp3"
"","null","audio-keyboard-response","191","1074952","0.0-19.0-0.3","43031","","new_stimuli/mp3/melody_^6_v5+_v4_^5+_v3_v1_v7-_.mp3","","null","",""
"","1709.2099999999627","html-button-response","192","1076664","0.0-19.0-1.3","43031","","<p>Which tone was played first after the cadence?</p><p>Please respond as quickly and as accurately as possible!</p>","9","","1","new_stimuli/mp3/melody_^6_v5+_v4_^5+_v3_v1_v7-_.mp3"
"","1382.559999999823","html-button-response","193","1078049","0.0-19.0-2.3","43031","","<p>Which tone was played second after the cadence?</p><p>Please respond as quickly and as accurately as possible!</p>","8","","2","new_stimuli/mp3/melody_^6_v5+_v4_^5+_v3_v1_v7-_.mp3"
"","737.4599999992643","html-button-response","194","1078790","0.0-19.0-3.3","43031","","<p>Which tone was played third after the cadence?</p><p>Please respond as quickly and as accurately as possible!</p>","5","","3","new_stimuli/mp3/melody_^6_v5+_v4_^5+_v3_v1_v7-_.mp3"
"","751.839999999851","html-button-response","195","1079545","0.0-19.0-4.3","43031","","<p>Which tone was played fourth after the cadence?</p><p>Please respond as quickly and as accurately as possible!</p>","8","","4","new_stimuli/mp3/melody_^6_v5+_v4_^5+_v3_v1_v7-_.mp3"
"","1021.6399999998976","html-button-response","196","1080569","0.0-19.0-5.3","43031","","<p>Which tone was played fifth after the cadence?</p><p>Please respond as quickly and as accurately as possible!</p>","4","","5","new_stimuli/mp3/melody_^6_v5+_v4_^5+_v3_v1_v7-_.mp3"
"","2832.374999999767","html-button-response","197","1083403","0.0-19.0-6.3","43031","","<p>Which tone was played sixth after the cadence?</p><p>Please respond as quickly and as accurately as possible!</p>","12","","6","new_stimuli/mp3/melody_^6_v5+_v4_^5+_v3_v1_v7-_.mp3"
"","1426.3700000001118","html-button-response","198","1084832","0.0-19.0-7.3","43031","","<p>Which tone was played seventh after the cadence?</p><p>Please respond as quickly and as accurately as possible!</p>","10","","7","new_stimuli/mp3/melody_^6_v5+_v4_^5+_v3_v1_v7-_.mp3"
"","null","audio-keyboard-response","199","1096801","0.0-19.0-0.4","43031","","new_stimuli/mp3/melody_1_^3_v1_^5_v3_v2_^3_.mp3","","null","",""
"","1313.5949999995064","html-button-response","200","1098118","0.0-19.0-1.4","43031","","<p>Which tone was played first after the cadence?</p><p>Please respond as quickly and as accurately as possible!</p>","0","","1","new_stimuli/mp3/melody_1_^3_v1_^5_v3_v2_^3_.mp3"
"","717.5800000005402","html-button-response","201","1098838","0.0-19.0-2.4","43031","","<p>Which tone was played second after the cadence?</p><p>Please respond as quickly and as accurately as possible!</p>","4","","2","new_stimuli/mp3/melody_1_^3_v1_^5_v3_v2_^3_.mp3"
"","695.2750000001397","html-button-response","202","1099536","0.0-19.0-3.4","43031","","<p>Which tone was played third after the cadence?</p><p>Please respond as quickly and as accurately as possible!</p>","0","","3","new_stimuli/mp3/melody_1_^3_v1_^5_v3_v2_^3_.mp3"
"","886.4149999998044","html-button-response","203","1100424","0.0-19.0-4.4","43031","","<p>Which tone was played fourth after the cadence?</p><p>Please respond as quickly and as accurately as possible!</p>","7","","4","new_stimuli/mp3/melody_1_^3_v1_^5_v3_v2_^3_.mp3"
"","729.5649999997113","html-button-response","204","1101156","0.0-19.0-5.4","43031","","<p>Which tone was played fifth after the cadence?</p><p>Please respond as quickly and as accurately as possible!</p>","4","","5","new_stimuli/mp3/melody_1_^3_v1_^5_v3_v2_^3_.mp3"
"","560.4749999991618","html-button-response","205","1101718","0.0-19.0-6.4","43031","","<p>Which tone was played sixth after the cadence?</p><p>Please respond as quickly and as accurately as possible!</p>","2","","6","new_stimuli/mp3/melody_1_^3_v1_^5_v3_v2_^3_.mp3"
"","537.5900000000838","html-button-response","206","1102258","0.0-19.0-7.4","43031","","<p>Which tone was played seventh after the cadence?</p><p>Please respond as quickly and as accurately as possible!</p>","4","","7","new_stimuli/mp3/melody_1_^3_v1_^5_v3_v2_^3_.mp3"
"","null","audio-keyboard-response","207","1113832","0.0-19.0-0.5","43031","","new_stimuli/mp3/melody_^5_^6_v5_v4_v3_v2_v1_buffer.mp3","","null","",""
"","1550.994999999646","html-button-response","208","1115388","0.0-19.0-1.5","43031","","<p>Which tone was played first after the cadence?</p><p>Please respond as quickly and as accurately as possible!</p>","7","","1","new_stimuli/mp3/melody_^5_^6_v5_v4_v3_v2_v1_buffer.mp3"
"","571.2800000002608","html-button-response","209","1115962","0.0-19.0-2.5","43031","","<p>Which tone was played second after the cadence?</p><p>Please respond as quickly and as accurately as possible!</p>","9","","2","new_stimuli/mp3/melody_^5_^6_v5_v4_v3_v2_v1_buffer.mp3"
"","480.9349999995902","html-button-response","210","1116445","0.0-19.0-3.5","43031","","<p>Which tone was played third after the cadence?</p><p>Please respond as quickly and as accurately as possible!</p>","7","","3","new_stimuli/mp3/melody_^5_^6_v5_v4_v3_v2_v1_buffer.mp3"
"","503.9850000003353","html-button-response","211","1116952","0.0-19.0-4.5","43031","","<p>Which tone was played fourth after the cadence?</p><p>Please respond as quickly and as accurately as possible!</p>","5","","4","new_stimuli/mp3/melody_^5_^6_v5_v4_v3_v2_v1_buffer.mp3"
"","436.8599999996368","html-button-response","212","1117390","0.0-19.0-5.5","43031","","<p>Which tone was played fifth after the cadence?</p><p>Please respond as quickly and as accurately as possible!</p>","4","","5","new_stimuli/mp3/melody_^5_^6_v5_v4_v3_v2_v1_buffer.mp3"
"","524.6550000002608","html-button-response","213","1117918","0.0-19.0-6.5","43031","","<p>Which tone was played sixth after the cadence?</p><p>Please respond as quickly and as accurately as possible!</p>","2","","6","new_stimuli/mp3/melody_^5_^6_v5_v4_v3_v2_v1_buffer.mp3"
"","650.7800000000279","html-button-response","214","1118571","0.0-19.0-7.5","43031","","<p>Which tone was played seventh after the cadence?</p><p>Please respond as quickly and as accurately as possible!</p>","0","","7","new_stimuli/mp3/melody_^5_^6_v5_v4_v3_v2_v1_buffer.mp3"
"","null","audio-keyboard-response","215","1130281","0.0-19.0-0.6","43031","","new_stimuli/mp3/melody_^4_^5_^6_v5_v4_v3_v2_.mp3","","null","",""
"","1348.7199999997392","html-button-response","216","1131632","0.0-19.0-1.6","43031","","<p>Which tone was played first after the cadence?</p><p>Please respond as quickly and as accurately as possible!</p>","5","","1","new_stimuli/mp3/melody_^4_^5_^6_v5_v4_v3_v2_.mp3"
"","549.0799999998417","html-button-response","217","1132183","0.0-19.0-2.6","43031","","<p>Which tone was played second after the cadence?</p><p>Please respond as quickly and as accurately as possible!</p>","7","","2","new_stimuli/mp3/melody_^4_^5_^6_v5_v4_v3_v2_.mp3"
"","730.4150000000373","html-button-response","218","1132916","0.0-19.0-3.6","43031","","<p>Which tone was played third after the cadence?</p><p>Please respond as quickly and as accurately as possible!</p>","9","","3","new_stimuli/mp3/melody_^4_^5_^6_v5_v4_v3_v2_.mp3"
"","547.4499999999534","html-button-response","219","1133466","0.0-19.0-4.6","43031","","<p>Which tone was played fourth after the cadence?</p><p>Please respond as quickly and as accurately as possible!</p>","7","","4","new_stimuli/mp3/melody_^4_^5_^6_v5_v4_v3_v2_.mp3"
"","481.34000000031665","html-button-response","220","1133949","0.0-19.0-5.6","43031","","<p>Which tone was played fifth after the cadence?</p><p>Please respond as quickly and as accurately as possible!</p>","5","","5","new_stimuli/mp3/melody_^4_^5_^6_v5_v4_v3_v2_.mp3"
"","403.1750000005122","html-button-response","221","1134354","0.0-19.0-6.6","43031","","<p>Which tone was played sixth after the cadence?</p><p>Please respond as quickly and as accurately as possible!</p>","4","","6","new_stimuli/mp3/melody_^4_^5_^6_v5_v4_v3_v2_.mp3"
"","504.0250000001397","html-button-response","222","1134870","0.0-19.0-7.6","43031","","<p>Which tone was played seventh after the cadence?</p><p>Please respond as quickly and as accurately as possible!</p>","2","","7","new_stimuli/mp3/melody_^4_^5_^6_v5_v4_v3_v2_.mp3"
"[{""page_index"":0,""viewing_time"":3103.939999999944},{""page_index"":1,""viewing_time"":9472.645000000717},{""page_index"":2,""viewing_time"":4905.829999999842}]","17482.845000000438","instructions","223","1152355","0.0-20.0","43031","","","","","",""
"","null","audio-keyboard-response","224","1165311","0.0-21.0-0.0","43031","","new_stimuli/mp3/melody_^5_^6_v5_v4_v3_v2_v1_^2_^3_buffer.mp3","","null","",""
"","1129.8900000001304","html-button-response","225","1166450","0.0-21.0-1.0","43031","","<p>Which tone was played first after the cadence?</p><p>Please respond as quickly and as accurately as possible!</p>","7","","1","new_stimuli/mp3/melody_^5_^6_v5_v4_v3_v2_v1_^2_^3_buffer.mp3"
"","505.04999999981374","html-button-response","226","1166957","0.0-21.0-2.0","43031","","<p>Which tone was played second after the cadence?</p><p>Please respond as quickly and as accurately as possible!</p>","9","","2","new_stimuli/mp3/melody_^5_^6_v5_v4_v3_v2_v1_^2_^3_buffer.mp3"
"","514.2249999998603","html-button-response","227","1167474","0.0-21.0-3.0","43031","","<p>Which tone was played third after the cadence?</p><p>Please respond as quickly and as accurately as possible!</p>","7","","3","new_stimuli/mp3/melody_^5_^6_v5_v4_v3_v2_v1_^2_^3_buffer.mp3"
"","514.3749999997672","html-button-response","228","1167990","0.0-21.0-4.0","43031","","<p>Which tone was played fourth after the cadence?</p><p>Please respond as quickly and as accurately as possible!</p>","5","","4","new_stimuli/mp3/melody_^5_^6_v5_v4_v3_v2_v1_^2_^3_buffer.mp3"
"","493.5299999997951","html-button-response","229","1168486","0.0-21.0-5.0","43031","","<p>Which tone was played fifth after the cadence?</p><p>Please respond as quickly and as accurately as possible!</p>","4","","5","new_stimuli/mp3/melody_^5_^6_v5_v4_v3_v2_v1_^2_^3_buffer.mp3"
"","627.6850000005215","html-button-response","230","1169116","0.0-21.0-6.0","43031","","<p>Which tone was played sixth after the cadence?</p><p>Please respond as quickly and as accurately as possible!</p>","2","","6","new_stimuli/mp3/melody_^5_^6_v5_v4_v3_v2_v1_^2_^3_buffer.mp3"
"","1235.2650000001304","html-button-response","231","1170353","0.0-21.0-7.0","43031","","<p>Which tone was played seventh after the cadence?</p><p>Please respond as quickly and as accurately as possible!</p>","0","","7","new_stimuli/mp3/melody_^5_^6_v5_v4_v3_v2_v1_^2_^3_buffer.mp3"
"","593.0900000000838","html-button-response","232","1170949","0.0-21.0-8.0","43031","","<p>Which tone was played eight after the cadence?</p><p>Please respond as quickly and as accurately as possible!</p>","2","","8","new_stimuli/mp3/melody_^5_^6_v5_v4_v3_v2_v1_^2_^3_buffer.mp3"
"","527.2400000004563","html-button-response","233","1171478","0.0-21.0-9.0","43031","","<p>Which tone was played nineth after the cadence?</p><p>Please respond as quickly and as accurately as possible!</p>","4","","9","new_stimuli/mp3/melody_^5_^6_v5_v4_v3_v2_v1_^2_^3_buffer.mp3"
"","null","audio-keyboard-response","234","1184041","0.0-21.0-0.1","43031","","new_stimuli/mp3/melody_^3_^4_^5 _^6_v5_v4_v3_v2_v1_.mp3","","null","",""
"","2136.0800000003073","html-button-response","235","1186181","0.0-21.0-1.1","43031","","<p>Which tone was played first after the cadence?</p><p>Please respond as quickly and as accurately as possible!</p>","4","","1","new_stimuli/mp3/melody_^3_^4_^5 _^6_v5_v4_v3_v2_v1_.mp3"
"","426.2800000004936","html-button-response","236","1186609","0.0-21.0-2.1","43031","","<p>Which tone was played second after the cadence?</p><p>Please respond as quickly and as accurately as possible!</p>","5","","2","new_stimuli/mp3/melody_^3_^4_^5 _^6_v5_v4_v3_v2_v1_.mp3"
"","709.684999999823","html-button-response","237","1187329","0.0-21.0-3.1","43031","","<p>Which tone was played third after the cadence?</p><p>Please respond as quickly and as accurately as possible!</p>","7","","3","new_stimuli/mp3/melody_^3_^4_^5 _^6_v5_v4_v3_v2_v1_.mp3"
"","594.8449999995064","html-button-response","238","1187926","0.0-21.0-4.1","43031","","<p>Which tone was played fourth after the cadence?</p><p>Please respond as quickly and as accurately as possible!</p>","9","","4","new_stimuli/mp3/melody_^3_^4_^5 _^6_v5_v4_v3_v2_v1_.mp3"
"","582.2600000002421","html-button-response","239","1188511","0.0-21.0-5.1","43031","","<p>Which tone was played fifth after the cadence?</p><p>Please respond as quickly and as accurately as possible!</p>","7","","5","new_stimuli/mp3/melody_^3_^4_^5 _^6_v5_v4_v3_v2_v1_.mp3"
"","570.5550000001676","html-button-response","240","1189083","0.0-21.0-6.1","43031","","<p>Which tone was played sixth after the cadence?</p><p>Please respond as quickly and as accurately as possible!</p>","5","","6","new_stimuli/mp3/melody_^3_^4_^5 _^6_v5_v4_v3_v2_v1_.mp3"
"","471.30500000016764","html-button-response","241","1189557","0.0-21.0-7.1","43031","","<p>Which tone was played seventh after the cadence?</p><p>Please respond as quickly and as accurately as possible!</p>","4","","7","new_stimuli/mp3/melody_^3_^4_^5 _^6_v5_v4_v3_v2_v1_.mp3"
"","671.2000000006519","html-button-response","242","1190231","0.0-21.0-8.1","43031","","<p>Which tone was played eight after the cadence?</p><p>Please respond as quickly and as accurately as possible!</p>","2","","8","new_stimuli/mp3/melody_^3_^4_^5 _^6_v5_v4_v3_v2_v1_.mp3"
"","548.5","html-button-response","243","1190782","0.0-21.0-9.1","43031","","<p>Which tone was played nineth after the cadence?</p><p>Please respond as quickly and as accurately as possible!</p>","0","","9","new_stimuli/mp3/melody_^3_^4_^5 _^6_v5_v4_v3_v2_v1_.mp3"
"","null","audio-keyboard-response","244","1203431","0.0-21.0-0.2","43031","","new_stimuli/mp3/melody_v7_v6_v5_^6_v5_v4_^5_^6_v5_.mp3","","null","",""
"","2861.6899999997113","html-button-response","245","1206296","0.0-21.0-1.2","43031","","<p>Which tone was played first after the cadence?</p><p>Please respond as quickly and as accurately as possible!</p>","11","","1","new_stimuli/mp3/melody_v7_v6_v5_^6_v5_v4_^5_^6_v5_.mp3"
"","638.8250000001863","html-button-response","246","1206937","0.0-21.0-2.2","43031","","<p>Which tone was played second after the cadence?</p><p>Please respond as quickly and as accurately as possible!</p>","9","","2","new_stimuli/mp3/melody_v7_v6_v5_^6_v5_v4_^5_^6_v5_.mp3"
"","650.1699999999255","html-button-response","247","1207590","0.0-21.0-3.2","43031","","<p>Which tone was played third after the cadence?</p><p>Please respond as quickly and as accurately as possible!</p>","7","","3","new_stimuli/mp3/melody_v7_v6_v5_^6_v5_v4_^5_^6_v5_.mp3"
"","696.3050000004005","html-button-response","248","1208288","0.0-21.0-4.2","43031","","<p>Which tone was played fourth after the cadence?</p><p>Please respond as quickly and as accurately as possible!</p>","5","","4","new_stimuli/mp3/melody_v7_v6_v5_^6_v5_v4_^5_^6_v5_.mp3"
"","4271.725000000326","html-button-response","249","1212562","0.0-21.0-5.2","43031","","<p>Which tone was played fifth after the cadence?</p><p>Please respond as quickly and as accurately as possible!</p>","4","","5","new_stimuli/mp3/melody_v7_v6_v5_^6_v5_v4_^5_^6_v5_.mp3"
"","571.1799999999348","html-button-response","250","1213135","0.0-21.0-6.2","43031","","<p>Which tone was played sixth after the cadence?</p><p>Please respond as quickly and as accurately as possible!</p>","5","","6","new_stimuli/mp3/melody_v7_v6_v5_^6_v5_v4_^5_^6_v5_.mp3"
"","616.9699999999721","html-button-response","251","1213754","0.0-21.0-7.2","43031","","<p>Which tone was played seventh after the cadence?</p><p>Please respond as quickly and as accurately as possible!</p>","7","","7","new_stimuli/mp3/melody_v7_v6_v5_^6_v5_v4_^5_^6_v5_.mp3"
"","650.5550000001676","html-button-response","252","1214407","0.0-21.0-8.2","43031","","<p>Which tone was played eight after the cadence?</p><p>Please respond as quickly and as accurately as possible!</p>","9","","8","new_stimuli/mp3/melody_v7_v6_v5_^6_v5_v4_^5_^6_v5_.mp3"
"","582.4150000000373","html-button-response","253","1214992","0.0-21.0-9.2","43031","","<p>Which tone was played nineth after the cadence?</p><p>Please respond as quickly and as accurately as possible!</p>","7","","9","new_stimuli/mp3/melody_v7_v6_v5_^6_v5_v4_^5_^6_v5_.mp3"
"","null","audio-keyboard-response","254","1227642","0.0-21.0-0.3","43031","","new_stimuli/mp3/melody_v5_v4_v6+_^7_^3+_v3_v2_v5_^4_.mp3","","null","",""
"","1638.095000000205","html-button-response","255","1229283","0.0-21.0-1.3","43031","","<p>Which tone was played first after the cadence?</p><p>Please respond as quickly and as accurately as possible!</p>","7","","1","new_stimuli/mp3/melody_v5_v4_v6+_^7_^3+_v3_v2_v5_^4_.mp3"
"","748.1650000000373","html-button-response","256","1230033","0.0-21.0-2.3","43031","","<p>Which tone was played second after the cadence?</p><p>Please respond as quickly and as accurately as possible!</p>","5","","2","new_stimuli/mp3/melody_v5_v4_v6+_^7_^3+_v3_v2_v5_^4_.mp3"
"","5465.584999999963","html-button-response","257","1235501","0.0-21.0-3.3","43031","","<p>Which tone was played third after the cadence?</p><p>Please respond as quickly and as accurately as possible!</p>","8","","3","new_stimuli/mp3/melody_v5_v4_v6+_^7_^3+_v3_v2_v5_^4_.mp3"
"","537.7699999997858","html-button-response","258","1236042","0.0-21.0-4.3","43031","","<p>Which tone was played fourth after the cadence?</p><p>Please respond as quickly and as accurately as possible!</p>","9","","4","new_stimuli/mp3/melody_v5_v4_v6+_^7_^3+_v3_v2_v5_^4_.mp3"
"","954.2849999999162","html-button-response","259","1237005","0.0-21.0-5.3","43031","","<p>Which tone was played fifth after the cadence?</p><p>Please respond as quickly and as accurately as possible!</p>","4","","5","new_stimuli/mp3/melody_v5_v4_v6+_^7_^3+_v3_v2_v5_^4_.mp3"
"","833.6650000000373","html-button-response","260","1237841","0.0-21.0-6.3","43031","","<p>Which tone was played sixth after the cadence?</p><p>Please respond as quickly and as accurately as possible!</p>","3","","6","new_stimuli/mp3/melody_v5_v4_v6+_^7_^3+_v3_v2_v5_^4_.mp3"
"","3081.1400000001304","html-button-response","261","1240925","0.0-21.0-7.3","43031","","<p>Which tone was played seventh after the cadence?</p><p>Please respond as quickly and as accurately as possible!</p>","2","","7","new_stimuli/mp3/melody_v5_v4_v6+_^7_^3+_v3_v2_v5_^4_.mp3"
"","1357.8500000005588","html-button-response","262","1242285","0.0-21.0-8.3","43031","","<p>Which tone was played eight after the cadence?</p><p>Please respond as quickly and as accurately as possible!</p>","7","","8","new_stimuli/mp3/melody_v5_v4_v6+_^7_^3+_v3_v2_v5_^4_.mp3"
"","1044.2450000001118","html-button-response","263","1243331","0.0-21.0-9.3","43031","","<p>Which tone was played nineth after the cadence?</p><p>Please respond as quickly and as accurately as possible!</p>","5","","9","new_stimuli/mp3/melody_v5_v4_v6+_^7_^3+_v3_v2_v5_^4_.mp3"
"","null","audio-keyboard-response","264","1256262","0.0-21.0-0.4","43031","","new_stimuli/mp3/melody_^2_^4_v3_v2_v1_v3_v2+_^3_^5+_.mp3","","null","",""
"","1567.515000000596","html-button-response","265","1257833","0.0-21.0-1.4","43031","","<p>Which tone was played first after the cadence?</p><p>Please respond as quickly and as accurately as possible!</p>","2","","1","new_stimuli/mp3/melody_^2_^4_v3_v2_v1_v3_v2+_^3_^5+_.mp3"
"","650.3499999998603","html-button-response","266","1258485","0.0-21.0-2.4","43031","","<p>Which tone was played second after the cadence?</p><p>Please respond as quickly and as accurately as possible!</p>","5","","2","new_stimuli/mp3/melody_^2_^4_v3_v2_v1_v3_v2+_^3_^5+_.mp3"
"","560.9700000004377","html-button-response","267","1259048","0.0-21.0-3.4","43031","","<p>Which tone was played third after the cadence?</p><p>Please respond as quickly and as accurately as possible!</p>","4","","3","new_stimuli/mp3/melody_^2_^4_v3_v2_v1_v3_v2+_^3_^5+_.mp3"
"","547.929999999702","html-button-response","268","1259598","0.0-21.0-4.4","43031","","<p>Which tone was played fourth after the cadence?</p><p>Please respond as quickly and as accurately as possible!</p>","3","","4","new_stimuli/mp3/melody_^2_^4_v3_v2_v1_v3_v2+_^3_^5+_.mp3"
"","840.4550000005402","html-button-response","269","1260442","0.0-21.0-5.4","43031","","<p>Which tone was played fifth after the cadence?</p><p>Please respond as quickly and as accurately as possible!</p>","2","","5","new_stimuli/mp3/melody_^2_^4_v3_v2_v1_v3_v2+_^3_^5+_.mp3"
"","672.625","html-button-response","270","1261117","0.0-21.0-6.4","43031","","<p>Which tone was played sixth after the cadence?</p><p>Please respond as quickly and as accurately as possible!</p>","1","","6","new_stimuli/mp3/melody_^2_^4_v3_v2_v1_v3_v2+_^3_^5+_.mp3"
"","537.9950000005774","html-button-response","271","1261657","0.0-21.0-7.4","43031","","<p>Which tone was played seventh after the cadence?</p><p>Please respond as quickly and as accurately as possible!</p>","0","","7","new_stimuli/mp3/melody_^2_^4_v3_v2_v1_v3_v2+_^3_^5+_.mp3"
"","920.6900000006426","html-button-response","272","1262580","0.0-21.0-8.4","43031","","<p>Which tone was played eight after the cadence?</p><p>Please respond as quickly and as accurately as possible!</p>","4","","8","new_stimuli/mp3/melody_^2_^4_v3_v2_v1_v3_v2+_^3_^5+_.mp3"
"","503.7050000000745","html-button-response","273","1263086","0.0-21.0-9.4","43031","","<p>Which tone was played nineth after the cadence?</p><p>Please respond as quickly and as accurately as possible!</p>","3","","9","new_stimuli/mp3/melody_^2_^4_v3_v2_v1_v3_v2+_^3_^5+_.mp3"
"","null","audio-keyboard-response","274","1275732","0.0-21.0-0.5","43031","","new_stimuli/mp3/melody_^3_^4_v2_v7_^1_^2_^3_3_^4_.mp3","","null","",""
"","1030.3249999997206","html-button-response","275","1276766","0.0-21.0-1.5","43031","","<p>Which tone was played first after the cadence?</p><p>Please respond as quickly and as accurately as possible!</p>","4","","1","new_stimuli/mp3/melody_^3_^4_v2_v7_^1_^2_^3_3_^4_.mp3"
"","447.9700000002049","html-button-response","276","1277216","0.0-21.0-2.5","43031","","<p>Which tone was played second after the cadence?</p><p>Please respond as quickly and as accurately as possible!</p>","5","","2","new_stimuli/mp3/melody_^3_^4_v2_v7_^1_^2_^3_3_^4_.mp3"
"","830.8000000005122","html-button-response","277","1278049","0.0-21.0-3.5","43031","","<p>Which tone was played third after the cadence?</p><p>Please respond as quickly and as accurately as possible!</p>","2","","3","new_stimuli/mp3/melody_^3_^4_v2_v7_^1_^2_^3_3_^4_.mp3"
"","898.1749999993481","html-button-response","278","1278949","0.0-21.0-4.5","43031","","<p>Which tone was played fourth after the cadence?</p><p>Please respond as quickly and as accurately as possible!</p>","11","","4","new_stimuli/mp3/melody_^3_^4_v2_v7_^1_^2_^3_3_^4_.mp3"
"","525.464999999851","html-button-response","279","1279477","0.0-21.0-5.5","43031","","<p>Which tone was played fifth after the cadence?</p><p>Please respond as quickly and as accurately as possible!</p>","12","","5","new_stimuli/mp3/melody_^3_^4_v2_v7_^1_^2_^3_3_^4_.mp3"
"","1392.9400000006426","html-button-response","280","1280872","0.0-21.0-6.5","43031","","<p>Which tone was played sixth after the cadence?</p><p>Please respond as quickly and as accurately as possible!</p>","2","","6","new_stimuli/mp3/melody_^3_^4_v2_v7_^1_^2_^3_3_^4_.mp3"
"","505.0099999997765","html-button-response","281","1281379","0.0-21.0-7.5","43031","","<p>Which tone was played seventh after the cadence?</p><p>Please respond as quickly and as accurately as possible!</p>","3","","7","new_stimuli/mp3/melody_^3_^4_v2_v7_^1_^2_^3_3_^4_.mp3"
"","886.9649999996182","html-button-response","282","1282268","0.0-21.0-8.5","43031","","<p>Which tone was played eight after the cadence?</p><p>Please respond as quickly and as accurately as possible!</p>","4","","8","new_stimuli/mp3/melody_^3_^4_v2_v7_^1_^2_^3_3_^4_.mp3"
"","536.8300000000745","html-button-response","283","1282807","0.0-21.0-9.5","43031","","<p>Which tone was played nineth after the cadence?</p><p>Please respond as quickly and as accurately as possible!</p>","5","","9","new_stimuli/mp3/melody_^3_^4_v2_v7_^1_^2_^3_3_^4_.mp3"
"","null","audio-keyboard-response","284","1295501","0.0-21.0-0.6","43031","","new_stimuli/mp3/melody_^2_^3_^4_^5_^6_v5_v4_v3_v2_buffer.mp3","","null","",""
"","1408.9350000005215","html-button-response","285","1296913","0.0-21.0-1.6","43031","","<p>Which tone was played first after the cadence?</p><p>Please respond as quickly and as accurately as possible!</p>","2","","1","new_stimuli/mp3/melody_^2_^3_^4_^5_^6_v5_v4_v3_v2_buffer.mp3"
"","637.5950000002049","html-button-response","286","1297555","0.0-21.0-2.6","43031","","<p>Which tone was played second after the cadence?</p><p>Please respond as quickly and as accurately as possible!</p>","4","","2","new_stimuli/mp3/melody_^2_^3_^4_^5_^6_v5_v4_v3_v2_buffer.mp3"
"","446.989999999525","html-button-response","287","1298005","0.0-21.0-3.6","43031","","<p>Which tone was played third after the cadence?</p><p>Please respond as quickly and as accurately as possible!</p>","5","","3","new_stimuli/mp3/melody_^2_^3_^4_^5_^6_v5_v4_v3_v2_buffer.mp3"
"","548.8050000004005","html-button-response","288","1298556","0.0-21.0-4.6","43031","","<p>Which tone was played fourth after the cadence?</p><p>Please respond as quickly and as accurately as possible!</p>","7","","4","new_stimuli/mp3/melody_^2_^3_^4_^5_^6_v5_v4_v3_v2_buffer.mp3"
"","618.125","html-button-response","289","1299176","0.0-21.0-5.6","43031","","<p>Which tone was played fifth after the cadence?</p><p>Please respond as quickly and as accurately as possible!</p>","9","","5","new_stimuli/mp3/melody_^2_^3_^4_^5_^6_v5_v4_v3_v2_buffer.mp3"
"","536.1799999999348","html-button-response","290","1299715","0.0-21.0-6.6","43031","","<p>Which tone was played sixth after the cadence?</p><p>Please respond as quickly and as accurately as possible!</p>","7","","6","new_stimuli/mp3/melody_^2_^3_^4_^5_^6_v5_v4_v3_v2_buffer.mp3"
"","493.125","html-button-response","291","1300210","0.0-21.0-7.6","43031","","<p>Which tone was played seventh after the cadence?</p><p>Please respond as quickly and as accurately as possible!</p>","5","","7","new_stimuli/mp3/melody_^2_^3_^4_^5_^6_v5_v4_v3_v2_buffer.mp3"
"","717.3750000002328","html-button-response","292","1300930","0.0-21.0-8.6","43031","","<p>Which tone was played eight after the cadence?</p><p>Please respond as quickly and as accurately as possible!</p>","4","","8","new_stimuli/mp3/melody_^2_^3_^4_^5_^6_v5_v4_v3_v2_buffer.mp3"
"","1009.9449999995995","html-button-response","293","1301942","0.0-21.0-9.6","43031","","<p>Which tone was played nineth after the cadence?</p><p>Please respond as quickly and as accurately as possible!</p>","2","","9","new_stimuli/mp3/melody_^2_^3_^4_^5_^6_v5_v4_v3_v2_buffer.mp3"
"","47787.64500000025","survey-text","294","1349732","0.0-22.0","43031","{""Q0"":""absolute pitch, immediately singing back the melody, visualizing piano keys (I'm a pianist)""}","","","","",""
"","74146.06499999994","survey-text","295","1423880","0.0-23.0","43031","{""Q0"":""I tried to click quickly with my mouse before I forget - maybe have participants type corresponding keys instead?""}","","","","",""
"","6238.814999999711","survey-text","296","1430120","0.0-24.0","43031","{""Q0"":""no""}","","","","",""
"","5659.359999999637","survey-text","297","1435781","0.0-25.0","43031","{""Q0"":""computer speakers""}","","","","",""
"","2498.5200000002515","survey-text","298","1438281","0.0-26.0","43031","{""Q0"":""female""}","","","","",""
"","2068.5500000000466","survey-text","299","1440351","0.0-27.0","43031","{""Q0"":""yes""}","","","","",""
"[{""page_index"":0,""viewing_time"":14814.469999999274}]","14814.684999999357","instructions","300","1455166","0.0-28.0","43031","","","","","",""
