"view_history","rt","trial_type","trial_index","time_elapsed","internal_node_id","subject","responses","stimulus","button_pressed","key_press","response_sequence","melody"
"[{""page_index"":0,""viewing_time"":432532.67000056803},{""page_index"":1,""viewing_time"":10339.370000176132},{""page_index"":2,""viewing_time"":1367.8899994120002}]","444240.5000003055","instructions","0","444276","0.0-0.0","43104","","","","","",""
"","1867.880000732839","survey-text","1","446147","0.0-1.0","43104","{""Q0"":""34""}","","","","",""
"","14753.119999542832","survey-text","2","460901","0.0-2.0","43104","{""Q0"":""Finished Terminal Degree (PhD)""}","","","","",""
"","37342.024999670684","survey-text","3","498245","0.0-3.0","43104","{""Q0"":""Moveable-Do""}","","","","",""
"","2087.755000218749","survey-text","4","500334","0.0-4.0","43104","{""Q0"":""No""}","","","","",""
"","39183.590000495315","survey-text","5","539519","0.0-5.0","43104","{""Q0"":""2-3 years private lessons, so I'm guessing about 4 semesters' worth?""}","","","","",""
"","6751.000000163913","survey-text","6","546271","0.0-6.0","43104","{""Q0"":""0""}","","","","",""
"[{""page_index"":0,""viewing_time"":2965.2000004425645},{""page_index"":1,""viewing_time"":9489.295000210404},{""page_index"":2,""viewing_time"":1030.7049993425608}]","13485.405000858009","instructions","7","559757","0.0-7.0","43104","","","","","",""
"","8381.81999977678","audio-button-response","8","568141","0.0-8.0","43104","","stimuli/long/c-do.mp3","0","","",""
"","9134.25000011921","audio-button-response","9","577277","0.0-9.0","43104","","stimuli/long/a-le.mp3","8","","",""
"[{""page_index"":0,""viewing_time"":3159.169999882579},{""page_index"":1,""viewing_time"":14943.940000608563}]","18103.36000006646","instructions","10","595381","0.0-10.0","43104","","","","","",""
"","8326.024999842048","audio-button-response","11","603709","0.0-11.0-0.0","43104","","stimuli/long/c-ti.mp3","11","","",""
"","9134.475000202656","audio-button-response","12","612845","0.0-11.0-0.1","43104","","stimuli/long/e-fa.mp3","5","","",""
"","10270.840000361204","audio-button-response","13","623118","0.0-11.0-0.2","43104","","stimuli/long/e-la.mp3","9","","",""
"","13478.670000098646","audio-button-response","14","636598","0.0-11.0-0.3","43104","","stimuli/long/a-le.mp3","8","","",""
"","8390.89500065893","audio-button-response","15","644990","0.0-11.0-0.4","43104","","stimuli/long/a-do8.mp3","12","","",""
"","10438.710000365973","audio-button-response","16","655430","0.0-11.0-0.5","43104","","stimuli/long/e-te.mp3","10","","",""
"","7550.139999948442","audio-button-response","17","662982","0.0-11.0-0.6","43104","","stimuli/long/e-do.mp3","0","","",""
"","null","audio-button-response","18","682985","0.0-11.0-0.7","43104","","stimuli/long/e-me.mp3","null","","",""
"","283.4100006148219","audio-button-response","19","683271","0.0-11.0-0.8","43104","","stimuli/long/e-re.mp3","8","","",""
"","8710.804999805987","audio-button-response","20","691983","0.0-11.0-0.9","43104","","stimuli/long/e-sol.mp3","7","","",""
"","10414.69500027597","audio-button-response","21","702399","0.0-11.0-0.10","43104","","stimuli/long/c-la.mp3","9","","",""
"","8830.839999951422","audio-button-response","22","711231","0.0-11.0-0.11","43104","","stimuli/long/c-sol.mp3","7","","",""
"","11486.739999614656","audio-button-response","23","722719","0.0-11.0-0.12","43104","","stimuli/long/e-mi.mp3","4","","",""
"","13446.615000255406","audio-button-response","24","736167","0.0-11.0-0.13","43104","","stimuli/long/c-me.mp3","3","","",""
"","166.7950004339218","audio-button-response","25","736335","0.0-11.0-0.14","43104","","stimuli/long/e-do8.mp3","3","","",""
"","13919.005000032485","audio-button-response","26","750257","0.0-11.0-0.15","43104","","stimuli/long/a-mi.mp3","9","","",""
"","11062.800000421703","audio-button-response","27","761321","0.0-11.0-0.16","43104","","stimuli/long/c-mi.mp3","4","","",""
"","9254.634999670088","audio-button-response","28","770577","0.0-11.0-0.17","43104","","stimuli/long/c-fa.mp3","5","","",""
"","11286.84000018984","audio-button-response","29","781865","0.0-11.0-0.18","43104","","stimuli/long/e-ra.mp3","10","","",""
"","11654.709999449551","audio-button-response","30","793521","0.0-11.0-0.19","43104","","stimuli/long/a-ti.mp3","11","","",""
"","7222.575000487268","audio-button-response","31","800745","0.0-11.0-0.20","43104","","stimuli/long/c-do8.mp3","12","","",""
"","12358.71999990195","audio-button-response","32","813106","0.0-11.0-0.21","43104","","stimuli/long/a-re.mp3","9","","",""
"","10150.745000690222","audio-button-response","33","823258","0.0-11.0-0.22","43104","","stimuli/long/c-ra.mp3","1","","",""
"","8974.729999899864","audio-button-response","34","832235","0.0-11.0-0.23","43104","","stimuli/long/e-ti.mp3","11","","",""
"","10438.570000231266","audio-button-response","35","842674","0.0-11.0-0.24","43104","","stimuli/long/a-la.mp3","9","","",""
"","11206.829999573529","audio-button-response","36","853882","0.0-11.0-0.25","43104","","stimuli/long/e-fi.mp3","6","","",""
"","16430.345000699162","audio-button-response","37","870314","0.0-11.0-0.26","43104","","stimuli/long/a-te.mp3","10","","",""
"","12622.794999741018","audio-button-response","38","882940","0.0-11.0-0.27","43104","","stimuli/long/e-le.mp3","8","","",""
"","8118.665000423789","audio-button-response","39","891060","0.0-11.0-0.28","43104","","stimuli/long/a-do.mp3","0","","",""
"","10734.935000538826","audio-button-response","40","901796","0.0-11.0-0.29","43104","","stimuli/long/c-le.mp3","8","","",""
"","14301.214999519289","audio-button-response","41","916100","0.0-11.0-0.30","43104","","stimuli/long/a-fa.mp3","5","","",""
"","10990.925000049174","audio-button-response","42","927093","0.0-11.0-0.31","43104","","stimuli/long/c-fi.mp3","6","","",""
"","9334.429999813437","audio-button-response","43","936428","0.0-11.0-0.32","43104","","stimuli/long/a-ra.mp3","1","","",""
"","8206.51499927044","audio-button-response","44","944638","0.0-11.0-0.33","43104","","stimuli/long/a-sol.mp3","7","","",""
"","10071.364999748766","audio-button-response","45","954710","0.0-11.0-0.34","43104","","stimuli/long/a-me.mp3","3","","",""
"","7725.79500079155","audio-button-response","46","962438","0.0-11.0-0.35","43104","","stimuli/long/c-do.mp3","0","","",""
"","16550.509999506176","audio-button-response","47","978990","0.0-11.0-0.36","43104","","stimuli/long/a-fi.mp3","6","","",""
"","9566.850000061095","audio-button-response","48","988558","0.0-11.0-0.37","43104","","stimuli/long/c-re.mp3","2","","",""
"[{""page_index"":0,""viewing_time"":8407.069999724627},{""page_index"":1,""viewing_time"":1023.9800000563264}]","9431.21000006795","instructions","49","997990","0.0-12.0","43104","","","","","",""
"","null","audio-keyboard-response","50","1007155","0.0-13.0-0.0","43104","","new_stimuli/mp3/melody_^2_v7-_.mp3","","null","",""
"","5712.885000742972","html-button-response","51","1012871","0.0-13.0-1.0","43104","","<p>Which tone was played first after the cadence?</p><p>Please respond as quickly and as accurately as possible!</p>","2","","1","new_stimuli/mp3/melody_^2_v7-_.mp3"
"","918.270000256598","html-button-response","52","1013791","0.0-13.0-2.0","43104","","<p>Which tone was played second after the cadence?</p><p>Please respond as quickly and as accurately as possible!</p>","10","","2","new_stimuli/mp3/melody_^2_v7-_.mp3"
"","null","audio-keyboard-response","53","1022952","0.0-13.0-0.1","43104","","new_stimuli/mp3/melody_v5_v1+_.mp3","","null","",""
"","3165.260000154376","html-button-response","54","1026119","0.0-13.0-1.1","43104","","<p>Which tone was played first after the cadence?</p><p>Please respond as quickly and as accurately as possible!</p>","7","","1","new_stimuli/mp3/melody_v5_v1+_.mp3"
"","7839.399999938905","html-button-response","55","1033959","0.0-13.0-2.1","43104","","<p>Which tone was played second after the cadence?</p><p>Please respond as quickly and as accurately as possible!</p>","1","","2","new_stimuli/mp3/melody_v5_v1+_.mp3"
"","null","audio-keyboard-response","56","1043414","0.0-13.0-0.2","43104","","new_stimuli/mp3/melody_v7_v3_buffer.mp3","","null","",""
"","4238.020000047982","html-button-response","57","1047655","0.0-13.0-1.2","43104","","<p>Which tone was played first after the cadence?</p><p>Please respond as quickly and as accurately as possible!</p>","11","","1","new_stimuli/mp3/melody_v7_v3_buffer.mp3"
"","998.9700000733137","html-button-response","58","1048655","0.0-13.0-2.2","43104","","<p>Which tone was played second after the cadence?</p><p>Please respond as quickly and as accurately as possible!</p>","4","","2","new_stimuli/mp3/melody_v7_v3_buffer.mp3"
"","null","audio-keyboard-response","59","1058084","0.0-13.0-0.3","43104","","new_stimuli/mp3/melody_v4_v3_buffer.mp3","","null","",""
"","1376.5849992632866","html-button-response","60","1059464","0.0-13.0-1.3","43104","","<p>Which tone was played first after the cadence?</p><p>Please respond as quickly and as accurately as possible!</p>","5","","1","new_stimuli/mp3/melody_v4_v3_buffer.mp3"
"","334.459999576211","html-button-response","61","1059799","0.0-13.0-2.3","43104","","<p>Which tone was played second after the cadence?</p><p>Please respond as quickly and as accurately as possible!</p>","4","","2","new_stimuli/mp3/melody_v4_v3_buffer.mp3"
"","null","audio-keyboard-response","62","1069256","0.0-13.0-0.4","43104","","new_stimuli/mp3/melody_^3_v4+_buffer.mp3","","null","",""
"","3678.0749997124076","html-button-response","63","1072936","0.0-13.0-1.4","43104","","<p>Which tone was played first after the cadence?</p><p>Please respond as quickly and as accurately as possible!</p>","4","","1","new_stimuli/mp3/melody_^3_v4+_buffer.mp3"
"","574.8299993574619","html-button-response","64","1073512","0.0-13.0-2.4","43104","","<p>Which tone was played second after the cadence?</p><p>Please respond as quickly and as accurately as possible!</p>","6","","2","new_stimuli/mp3/melody_^3_v4+_buffer.mp3"
"","null","audio-keyboard-response","65","1082526","0.0-13.0-0.5","43104","","new_stimuli/mp3/melody_^1_^2+_.mp3","","null","",""
"","1015.9750003367662","html-button-response","66","1083544","0.0-13.0-1.5","43104","","<p>Which tone was played first after the cadence?</p><p>Please respond as quickly and as accurately as possible!</p>","0","","1","new_stimuli/mp3/melody_^1_^2+_.mp3"
"","967.0249996706843","html-button-response","67","1084512","0.0-13.0-2.5","43104","","<p>Which tone was played second after the cadence?</p><p>Please respond as quickly and as accurately as possible!</p>","3","","2","new_stimuli/mp3/melody_^1_^2+_.mp3"
"","null","audio-keyboard-response","68","1093806","0.0-13.0-0.6","43104","","new_stimuli/mp3/melody_3_^6_buffer.mp3","","null","",""
"","3311.7800001055","html-button-response","69","1097120","0.0-13.0-1.6","43104","","<p>Which tone was played first after the cadence?</p><p>Please respond as quickly and as accurately as possible!</p>","3","","1","new_stimuli/mp3/melody_3_^6_buffer.mp3"
"","1886.9549995288253","html-button-response","70","1099008","0.0-13.0-2.6","43104","","<p>Which tone was played second after the cadence?</p><p>Please respond as quickly and as accurately as possible!</p>","9","","2","new_stimuli/mp3/melody_3_^6_buffer.mp3"
"","null","audio-keyboard-response","71","1108186","0.0-13.0-0.7","43104","","new_stimuli/mp3/melody_^5_^1+_.mp3","","null","",""
"","2372.6349994540215","html-button-response","72","1110561","0.0-13.0-1.7","43104","","<p>Which tone was played first after the cadence?</p><p>Please respond as quickly and as accurately as possible!</p>","7","","1","new_stimuli/mp3/melody_^5_^1+_.mp3"
"","7734.43999979645","html-button-response","73","1118296","0.0-13.0-2.7","43104","","<p>Which tone was played second after the cadence?</p><p>Please respond as quickly and as accurately as possible!</p>","12","","2","new_stimuli/mp3/melody_^5_^1+_.mp3"
"","null","audio-keyboard-response","74","1127494","0.0-13.0-0.8","43104","","new_stimuli/mp3/melody_v3_v2_buffer.mp3","","null","",""
"","1729.6399995684624","html-button-response","75","1129225","0.0-13.0-1.8","43104","","<p>Which tone was played first after the cadence?</p><p>Please respond as quickly and as accurately as possible!</p>","4","","1","new_stimuli/mp3/melody_v3_v2_buffer.mp3"
"","630.7850005105138","html-button-response","76","1129858","0.0-13.0-2.8","43104","","<p>Which tone was played second after the cadence?</p><p>Please respond as quickly and as accurately as possible!</p>","2","","2","new_stimuli/mp3/melody_v3_v2_buffer.mp3"
"","null","audio-keyboard-response","77","1138927","0.0-13.0-0.9","43104","","new_stimuli/mp3/melody_v2_v1_.mp3","","null","",""
"","1271.8249997124076","html-button-response","78","1140202","0.0-13.0-1.9","43104","","<p>Which tone was played first after the cadence?</p><p>Please respond as quickly and as accurately as possible!</p>","2","","1","new_stimuli/mp3/melody_v2_v1_.mp3"
"","565.8400002866983","html-button-response","79","1140770","0.0-13.0-2.9","43104","","<p>Which tone was played second after the cadence?</p><p>Please respond as quickly and as accurately as possible!</p>","0","","2","new_stimuli/mp3/melody_v2_v1_.mp3"
"[{""page_index"":0,""viewing_time"":3327.2399995476007},{""page_index"":1,""viewing_time"":1104.085000231862},{""page_index"":2,""viewing_time"":1087.919999845326}]","5519.409999251366","instructions","80","1146289","0.0-14.0","43104","","","","","",""
"","null","audio-keyboard-response","81","1156247","0.0-15.0-0.0","43104","","new_stimuli/mp3/melody_v5_v4_v3_buffer.mp3","","null","",""
"","1856.220000423491","html-button-response","82","1158106","0.0-15.0-1.0","43104","","<p>Which tone was played first after the cadence?</p><p>Please respond as quickly and as accurately as possible!</p>","7","","1","new_stimuli/mp3/melody_v5_v4_v3_buffer.mp3"
"","582.7550003305078","html-button-response","83","1158690","0.0-15.0-2.0","43104","","<p>Which tone was played second after the cadence?</p><p>Please respond as quickly and as accurately as possible!</p>","5","","2","new_stimuli/mp3/melody_v5_v4_v3_buffer.mp3"
"","1134.9949995055795","html-button-response","84","1159826","0.0-15.0-3.0","43104","","<p>Which tone was played third after the cadence?</p><p>Please respond as quickly and as accurately as possible!</p>","4","","3","new_stimuli/mp3/melody_v5_v4_v3_buffer.mp3"
"","null","audio-keyboard-response","85","1169397","0.0-15.0-0.1","43104","","new_stimuli/mp3/melody_v1_v7-_^7_.mp3","","null","",""
"","754.0250001475215","html-button-response","86","1170154","0.0-15.0-1.1","43104","","<p>Which tone was played first after the cadence?</p><p>Please respond as quickly and as accurately as possible!</p>","12","","1","new_stimuli/mp3/melody_v1_v7-_^7_.mp3"
"","542.9999995976686","html-button-response","87","1170698","0.0-15.0-2.1","43104","","<p>Which tone was played second after the cadence?</p><p>Please respond as quickly and as accurately as possible!</p>","10","","2","new_stimuli/mp3/melody_v1_v7-_^7_.mp3"
"","287.04500012099743","html-button-response","88","1170986","0.0-15.0-3.1","43104","","<p>Which tone was played third after the cadence?</p><p>Please respond as quickly and as accurately as possible!</p>","11","","3","new_stimuli/mp3/melody_v1_v7-_^7_.mp3"
"","null","audio-keyboard-response","89","1180577","0.0-15.0-0.2","43104","","new_stimuli/mp3/melody_v1_v7-_7-_buffer.mp3","","null","",""
"","1158.019999973476","html-button-response","90","1181738","0.0-15.0-1.2","43104","","<p>Which tone was played first after the cadence?</p><p>Please respond as quickly and as accurately as possible!</p>","12","","1","new_stimuli/mp3/melody_v1_v7-_7-_buffer.mp3"
"","662.9950003698468","html-button-response","91","1182402","0.0-15.0-2.2","43104","","<p>Which tone was played second after the cadence?</p><p>Please respond as quickly and as accurately as possible!</p>","10","","2","new_stimuli/mp3/melody_v1_v7-_7-_buffer.mp3"
"","423.17499965429306","html-button-response","92","1182826","0.0-15.0-3.2","43104","","<p>Which tone was played third after the cadence?</p><p>Please respond as quickly and as accurately as possible!</p>","10","","3","new_stimuli/mp3/melody_v1_v7-_7-_buffer.mp3"
"","null","audio-keyboard-response","93","1192338","0.0-15.0-0.3","43104","","new_stimuli/mp3/melody_1_v1+_^2_.mp3","","null","",""
"","958.2650000229478","html-button-response","94","1193299","0.0-15.0-1.3","43104","","<p>Which tone was played first after the cadence?</p><p>Please respond as quickly and as accurately as possible!</p>","0","","1","new_stimuli/mp3/melody_1_v1+_^2_.mp3"
"","390.94499964267015","html-button-response","95","1193690","0.0-15.0-2.3","43104","","<p>Which tone was played second after the cadence?</p><p>Please respond as quickly and as accurately as possible!</p>","1","","2","new_stimuli/mp3/melody_1_v1+_^2_.mp3"
"","479.20999955385923","html-button-response","96","1194171","0.0-15.0-3.3","43104","","<p>Which tone was played third after the cadence?</p><p>Please respond as quickly and as accurately as possible!</p>","2","","3","new_stimuli/mp3/melody_1_v1+_^2_.mp3"
"","null","audio-keyboard-response","97","1203808","0.0-15.0-0.4","43104","","new_stimuli/mp3/melody_6_^1_v5_.mp3","","null","",""
"","2112.4650007113814","html-button-response","98","1205923","0.0-15.0-1.4","43104","","<p>Which tone was played first after the cadence?</p><p>Please respond as quickly and as accurately as possible!</p>","9","","1","new_stimuli/mp3/melody_6_^1_v5_.mp3"
"","670.9049995988607","html-button-response","99","1206595","0.0-15.0-2.4","43104","","<p>Which tone was played second after the cadence?</p><p>Please respond as quickly and as accurately as possible!</p>","12","","2","new_stimuli/mp3/melody_6_^1_v5_.mp3"
"","1031.0500003397465","html-button-response","100","1207627","0.0-15.0-3.4","43104","","<p>Which tone was played third after the cadence?</p><p>Please respond as quickly and as accurately as possible!</p>","7","","3","new_stimuli/mp3/melody_6_^1_v5_.mp3"
"","null","audio-keyboard-response","101","1217528","0.0-15.0-0.5","43104","","new_stimuli/mp3/melody_^1_v6_v5+_.mp3","","null","",""
"","1048.3049992471933","html-button-response","102","1218579","0.0-15.0-1.5","43104","","<p>Which tone was played first after the cadence?</p><p>Please respond as quickly and as accurately as possible!</p>","12","","1","new_stimuli/mp3/melody_^1_v6_v5+_.mp3"
"","878.825000487268","html-button-response","103","1219459","0.0-15.0-2.5","43104","","<p>Which tone was played second after the cadence?</p><p>Please respond as quickly and as accurately as possible!</p>","9","","2","new_stimuli/mp3/melody_^1_v6_v5+_.mp3"
"","342.6900003105402","html-button-response","104","1219803","0.0-15.0-3.5","43104","","<p>Which tone was played third after the cadence?</p><p>Please respond as quickly and as accurately as possible!</p>","8","","3","new_stimuli/mp3/melody_^1_v6_v5+_.mp3"
"","null","audio-keyboard-response","105","1229368","0.0-15.0-0.6","43104","","new_stimuli/mp3/melody_v3_v2_v1_.mp3","","null","",""
"","1432.069999165833","html-button-response","106","1230803","0.0-15.0-1.6","43104","","<p>Which tone was played first after the cadence?</p><p>Please respond as quickly and as accurately as possible!</p>","4","","1","new_stimuli/mp3/melody_v3_v2_v1_.mp3"
"","526.829999871552","html-button-response","107","1231331","0.0-15.0-2.6","43104","","<p>Which tone was played second after the cadence?</p><p>Please respond as quickly and as accurately as possible!</p>","2","","2","new_stimuli/mp3/melody_v3_v2_v1_.mp3"
"","494.934999383986","html-button-response","108","1231826","0.0-15.0-3.6","43104","","<p>Which tone was played third after the cadence?</p><p>Please respond as quickly and as accurately as possible!</p>","0","","3","new_stimuli/mp3/melody_v3_v2_v1_.mp3"
"","null","audio-keyboard-response","109","1241528","0.0-15.0-0.7","43104","","new_stimuli/mp3/melody_v4_v3_v2_buffer.mp3","","null","",""
"","1832.0399997755885","html-button-response","110","1243363","0.0-15.0-1.7","43104","","<p>Which tone was played first after the cadence?</p><p>Please respond as quickly and as accurately as possible!</p>","5","","1","new_stimuli/mp3/melody_v4_v3_v2_buffer.mp3"
"","623.0100002139807","html-button-response","111","1243987","0.0-15.0-2.7","43104","","<p>Which tone was played second after the cadence?</p><p>Please respond as quickly and as accurately as possible!</p>","4","","2","new_stimuli/mp3/melody_v4_v3_v2_buffer.mp3"
"","566.894999705255","html-button-response","112","1244554","0.0-15.0-3.7","43104","","<p>Which tone was played third after the cadence?</p><p>Please respond as quickly and as accurately as possible!</p>","2","","3","new_stimuli/mp3/melody_v4_v3_v2_buffer.mp3"
"","null","audio-keyboard-response","113","1254528","0.0-15.0-0.8","43104","","new_stimuli/mp3/melody_v2_v5_^3_buffer.mp3","","null","",""
"","1713.5049998760223","html-button-response","114","1256244","0.0-15.0-1.8","43104","","<p>Which tone was played first after the cadence?</p><p>Please respond as quickly and as accurately as possible!</p>","2","","1","new_stimuli/mp3/melody_v2_v5_^3_buffer.mp3"
"","1086.7550000548363","html-button-response","115","1257332","0.0-15.0-2.8","43104","","<p>Which tone was played second after the cadence?</p><p>Please respond as quickly and as accurately as possible!</p>","7","","2","new_stimuli/mp3/melody_v2_v5_^3_buffer.mp3"
"","758.9099993929267","html-button-response","116","1258092","0.0-15.0-3.8","43104","","<p>Which tone was played third after the cadence?</p><p>Please respond as quickly and as accurately as possible!</p>","4","","3","new_stimuli/mp3/melody_v2_v5_^3_buffer.mp3"
"[{""page_index"":0,""viewing_time"":5430.2599998191},{""page_index"":1,""viewing_time"":2864.185000769794},{""page_index"":2,""viewing_time"":1583.929999731481}]","9878.580000251532","instructions","117","1267972","0.0-16.0","43104","","","","","",""
"","null","audio-keyboard-response","118","1278689","0.0-17.0-0.0","43104","","new_stimuli/mp3/melody_^6_v5_v4_v3_v2_buffer.mp3","","null","",""
"","1560.0699996575713","html-button-response","119","1280252","0.0-17.0-1.0","43104","","<p>Which tone was played first after the cadence?</p><p>Please respond as quickly and as accurately as possible!</p>","9","","1","new_stimuli/mp3/melody_^6_v5_v4_v3_v2_buffer.mp3"
"","470.7299992442131","html-button-response","120","1280724","0.0-17.0-2.0","43104","","<p>Which tone was played second after the cadence?</p><p>Please respond as quickly and as accurately as possible!</p>","7","","2","new_stimuli/mp3/melody_^6_v5_v4_v3_v2_buffer.mp3"
"","630.9399995952845","html-button-response","121","1281356","0.0-17.0-3.0","43104","","<p>Which tone was played third after the cadence?</p><p>Please respond as quickly and as accurately as possible!</p>","5","","3","new_stimuli/mp3/melody_^6_v5_v4_v3_v2_buffer.mp3"
"","1079.0950004011393","html-button-response","122","1282436","0.0-17.0-4.0","43104","","<p>Which tone was played fourth after the cadence?</p><p>Please respond as quickly and as accurately as possible!</p>","4","","4","new_stimuli/mp3/melody_^6_v5_v4_v3_v2_buffer.mp3"
"","502.4899998679757","html-button-response","123","1282940","0.0-17.0-5.0","43104","","<p>Which tone was played fifth after the cadence?</p><p>Please respond as quickly and as accurately as possible!</p>","2","","5","new_stimuli/mp3/melody_^6_v5_v4_v3_v2_buffer.mp3"
"","null","audio-keyboard-response","124","1293888","0.0-17.0-0.1","43104","","new_stimuli/mp3/melody_v5-_v3_3_^4+_v3_.mp3","","null","",""
"","1938.8099992647767","html-button-response","125","1295828","0.0-17.0-1.1","43104","","<p>Which tone was played first after the cadence?</p><p>Please respond as quickly and as accurately as possible!</p>","6","","1","new_stimuli/mp3/melody_v5-_v3_3_^4+_v3_.mp3"
"","951.0549996048212","html-button-response","126","1296780","0.0-17.0-2.1","43104","","<p>Which tone was played second after the cadence?</p><p>Please respond as quickly and as accurately as possible!</p>","4","","2","new_stimuli/mp3/melody_v5-_v3_3_^4+_v3_.mp3"
"","455.06499987095594","html-button-response","127","1297236","0.0-17.0-3.1","43104","","<p>Which tone was played third after the cadence?</p><p>Please respond as quickly and as accurately as possible!</p>","4","","3","new_stimuli/mp3/melody_v5-_v3_3_^4+_v3_.mp3"
"","591.105000115931","html-button-response","128","1297828","0.0-17.0-4.1","43104","","<p>Which tone was played fourth after the cadence?</p><p>Please respond as quickly and as accurately as possible!</p>","6","","4","new_stimuli/mp3/melody_v5-_v3_3_^4+_v3_.mp3"
"","462.97500003129244","html-button-response","129","1298292","0.0-17.0-5.1","43104","","<p>Which tone was played fifth after the cadence?</p><p>Please respond as quickly and as accurately as possible!</p>","4","","5","new_stimuli/mp3/melody_v5-_v3_3_^4+_v3_.mp3"
"","null","audio-keyboard-response","130","1308929","0.0-17.0-0.2","43104","","new_stimuli/mp3/melody_^6_v4_v3_^4_^5_.mp3","","null","",""
"","1392.765000462532","html-button-response","131","1310324","0.0-17.0-1.2","43104","","<p>Which tone was played first after the cadence?</p><p>Please respond as quickly and as accurately as possible!</p>","9","","1","new_stimuli/mp3/melody_^6_v4_v3_^4_^5_.mp3"
"","1006.8399999290705","html-button-response","132","1311332","0.0-17.0-2.2","43104","","<p>Which tone was played second after the cadence?</p><p>Please respond as quickly and as accurately as possible!</p>","5","","2","new_stimuli/mp3/melody_^6_v4_v3_^4_^5_.mp3"
"","606.8649999797344","html-button-response","133","1311940","0.0-17.0-3.2","43104","","<p>Which tone was played third after the cadence?</p><p>Please respond as quickly and as accurately as possible!</p>","4","","3","new_stimuli/mp3/melody_^6_v4_v3_^4_^5_.mp3"
"","399.46999959647655","html-button-response","134","1312340","0.0-17.0-4.2","43104","","<p>Which tone was played fourth after the cadence?</p><p>Please respond as quickly and as accurately as possible!</p>","5","","4","new_stimuli/mp3/melody_^6_v4_v3_^4_^5_.mp3"
"","526.6899997368455","html-button-response","135","1312868","0.0-17.0-5.2","43104","","<p>Which tone was played fifth after the cadence?</p><p>Please respond as quickly and as accurately as possible!</p>","7","","5","new_stimuli/mp3/melody_^6_v4_v3_^4_^5_.mp3"
"","null","audio-keyboard-response","136","1323451","0.0-17.0-0.3","43104","","new_stimuli/mp3/melody_v2_2_^3_^4_v2_.mp3","","null","",""
"","1592.1649998053908","html-button-response","137","1325046","0.0-17.0-1.3","43104","","<p>Which tone was played first after the cadence?</p><p>Please respond as quickly and as accurately as possible!</p>","2","","1","new_stimuli/mp3/melody_v2_2_^3_^4_v2_.mp3"
"","494.97499968856573","html-button-response","138","1325542","0.0-17.0-2.3","43104","","<p>Which tone was played second after the cadence?</p><p>Please respond as quickly and as accurately as possible!</p>","2","","2","new_stimuli/mp3/melody_v2_2_^3_^4_v2_.mp3"
"","815.0650002062321","html-button-response","139","1326358","0.0-17.0-3.3","43104","","<p>Which tone was played third after the cadence?</p><p>Please respond as quickly and as accurately as possible!</p>","4","","3","new_stimuli/mp3/melody_v2_2_^3_^4_v2_.mp3"
"","463.1050005555153","html-button-response","140","1326830","0.0-17.0-4.3","43104","","<p>Which tone was played fourth after the cadence?</p><p>Please respond as quickly and as accurately as possible!</p>","5","","4","new_stimuli/mp3/melody_v2_2_^3_^4_v2_.mp3"
"","614.8199997842312","html-button-response","141","1327446","0.0-17.0-5.3","43104","","<p>Which tone was played fifth after the cadence?</p><p>Please respond as quickly and as accurately as possible!</p>","2","","5","new_stimuli/mp3/melody_v2_2_^3_^4_v2_.mp3"
"","null","audio-keyboard-response","142","1338079","0.0-17.0-0.4","43104","","new_stimuli/mp3/melody_v5_^6+_^7_^1_5_.mp3","","null","",""
"","1589.780000038445","html-button-response","143","1339670","0.0-17.0-1.4","43104","","<p>Which tone was played first after the cadence?</p><p>Please respond as quickly and as accurately as possible!</p>","7","","1","new_stimuli/mp3/melody_v5_^6+_^7_^1_5_.mp3"
"","574.4200004264712","html-button-response","144","1340246","0.0-17.0-2.4","43104","","<p>Which tone was played second after the cadence?</p><p>Please respond as quickly and as accurately as possible!</p>","9","","2","new_stimuli/mp3/melody_v5_^6+_^7_^1_5_.mp3"
"","743.0750001221895","html-button-response","145","1340990","0.0-17.0-3.4","43104","","<p>Which tone was played third after the cadence?</p><p>Please respond as quickly and as accurately as possible!</p>","11","","3","new_stimuli/mp3/melody_v5_^6+_^7_^1_5_.mp3"
"","447.06499949097633","html-button-response","146","1341438","0.0-17.0-4.4","43104","","<p>Which tone was played fourth after the cadence?</p><p>Please respond as quickly and as accurately as possible!</p>","12","","4","new_stimuli/mp3/melody_v5_^6+_^7_^1_5_.mp3"
"","670.6649996340275","html-button-response","147","1342110","0.0-17.0-5.4","43104","","<p>Which tone was played fifth after the cadence?</p><p>Please respond as quickly and as accurately as possible!</p>","7","","5","new_stimuli/mp3/melody_v5_^6+_^7_^1_5_.mp3"
"","null","audio-keyboard-response","148","1352691","0.0-17.0-0.5","43104","","new_stimuli/mp3/melody_v5_v4_v3_v2_v1_.mp3","","null","",""
"","1312.4000001698732","html-button-response","149","1354006","0.0-17.0-1.5","43104","","<p>Which tone was played first after the cadence?</p><p>Please respond as quickly and as accurately as possible!</p>","7","","1","new_stimuli/mp3/melody_v5_v4_v3_v2_v1_.mp3"
"","478.6749994382262","html-button-response","150","1354494","0.0-17.0-2.5","43104","","<p>Which tone was played second after the cadence?</p><p>Please respond as quickly and as accurately as possible!</p>","5","","2","new_stimuli/mp3/melody_v5_v4_v3_v2_v1_.mp3"
"","487.07500007003546","html-button-response","151","1354982","0.0-17.0-3.5","43104","","<p>Which tone was played third after the cadence?</p><p>Please respond as quickly and as accurately as possible!</p>","3","","3","new_stimuli/mp3/melody_v5_v4_v3_v2_v1_.mp3"
"","1807.1650005877018","html-button-response","152","1356790","0.0-17.0-4.5","43104","","<p>Which tone was played fourth after the cadence?</p><p>Please respond as quickly and as accurately as possible!</p>","2","","4","new_stimuli/mp3/melody_v5_v4_v3_v2_v1_.mp3"
"","495.00999972224236","html-button-response","153","1357285","0.0-17.0-5.5","43104","","<p>Which tone was played fifth after the cadence?</p><p>Please respond as quickly and as accurately as possible!</p>","0","","5","new_stimuli/mp3/melody_v5_v4_v3_v2_v1_.mp3"
"","null","audio-keyboard-response","154","1367871","0.0-17.0-0.6","43104","","new_stimuli/mp3/melody_v5_v4_v3_v2_v1 _buffer.mp3","","null","",""
"","1219.905000180006","html-button-response","155","1369094","0.0-17.0-1.6","43104","","<p>Which tone was played first after the cadence?</p><p>Please respond as quickly and as accurately as possible!</p>","7","","1","new_stimuli/mp3/melody_v5_v4_v3_v2_v1 _buffer.mp3"
"","887.079999782145","html-button-response","156","1369982","0.0-17.0-2.6","43104","","<p>Which tone was played second after the cadence?</p><p>Please respond as quickly and as accurately as possible!</p>","5","","2","new_stimuli/mp3/melody_v5_v4_v3_v2_v1 _buffer.mp3"
"","447.3449997603893","html-button-response","157","1370430","0.0-17.0-3.6","43104","","<p>Which tone was played third after the cadence?</p><p>Please respond as quickly and as accurately as possible!</p>","4","","3","new_stimuli/mp3/melody_v5_v4_v3_v2_v1 _buffer.mp3"
"","678.7400003522635","html-button-response","158","1371110","0.0-17.0-4.6","43104","","<p>Which tone was played fourth after the cadence?</p><p>Please respond as quickly and as accurately as possible!</p>","2","","4","new_stimuli/mp3/melody_v5_v4_v3_v2_v1 _buffer.mp3"
"","767.5050003454089","html-button-response","159","1371878","0.0-17.0-5.6","43104","","<p>Which tone was played fifth after the cadence?</p><p>Please respond as quickly and as accurately as possible!</p>","0","","5","new_stimuli/mp3/melody_v5_v4_v3_v2_v1 _buffer.mp3"
"","null","audio-keyboard-response","160","1382831","0.0-17.0-0.7","43104","","new_stimuli/mp3/melody_^5_^6_v5_v4_v3_buffer.mp3","","null","",""
"","1460.4900004342198","html-button-response","161","1384295","0.0-17.0-1.7","43104","","<p>Which tone was played first after the cadence?</p><p>Please respond as quickly and as accurately as possible!</p>","7","","1","new_stimuli/mp3/melody_^5_^6_v5_v4_v3_buffer.mp3"
"","686.8199994787574","html-button-response","162","1384983","0.0-17.0-2.7","43104","","<p>Which tone was played second after the cadence?</p><p>Please respond as quickly and as accurately as possible!</p>","9","","2","new_stimuli/mp3/melody_^5_^6_v5_v4_v3_buffer.mp3"
"","502.98000033944845","html-button-response","163","1385487","0.0-17.0-3.7","43104","","<p>Which tone was played third after the cadence?</p><p>Please respond as quickly and as accurately as possible!</p>","7","","3","new_stimuli/mp3/melody_^5_^6_v5_v4_v3_buffer.mp3"
"","591.1750001832843","html-button-response","164","1386079","0.0-17.0-4.7","43104","","<p>Which tone was played fourth after the cadence?</p><p>Please respond as quickly and as accurately as possible!</p>","5","","4","new_stimuli/mp3/melody_^5_^6_v5_v4_v3_buffer.mp3"
"","383.1000002101064","html-button-response","165","1386463","0.0-17.0-5.7","43104","","<p>Which tone was played fifth after the cadence?</p><p>Please respond as quickly and as accurately as possible!</p>","4","","5","new_stimuli/mp3/melody_^5_^6_v5_v4_v3_buffer.mp3"
"[{""page_index"":0,""viewing_time"":2167.205000296235},{""page_index"":1,""viewing_time"":1120.0200002640486},{""page_index"":2,""viewing_time"":911.8649996817112}]","4199.270000681281","instructions","166","1390662","0.0-18.0","43104","","","","","",""
"","null","audio-keyboard-response","167","1402312","0.0-19.0-0.0","43104","","new_stimuli/mp3/melody_^6_v5+_v4_^5+_v3_v1_v7-_.mp3","","null","",""
"","1684.1000001877546","html-button-response","168","1403999","0.0-19.0-1.0","43104","","<p>Which tone was played first after the cadence?</p><p>Please respond as quickly and as accurately as possible!</p>","9","","1","new_stimuli/mp3/melody_^6_v5+_v4_^5+_v3_v1_v7-_.mp3"
"","1862.8900004550815","html-button-response","169","1405863","0.0-19.0-2.0","43104","","<p>Which tone was played second after the cadence?</p><p>Please respond as quickly and as accurately as possible!</p>","5","","2","new_stimuli/mp3/melody_^6_v5+_v4_^5+_v3_v1_v7-_.mp3"
"","703.014999628067","html-button-response","170","1406567","0.0-19.0-3.0","43104","","<p>Which tone was played third after the cadence?</p><p>Please respond as quickly and as accurately as possible!</p>","4","","3","new_stimuli/mp3/melody_^6_v5+_v4_^5+_v3_v1_v7-_.mp3"
"","2551.1099994182587","html-button-response","171","1409119","0.0-19.0-4.0","43104","","<p>Which tone was played fourth after the cadence?</p><p>Please respond as quickly and as accurately as possible!</p>","6","","4","new_stimuli/mp3/melody_^6_v5+_v4_^5+_v3_v1_v7-_.mp3"
"","1359.3650003895164","html-button-response","172","1410479","0.0-19.0-5.0","43104","","<p>Which tone was played fifth after the cadence?</p><p>Please respond as quickly and as accurately as possible!</p>","4","","5","new_stimuli/mp3/melody_^6_v5+_v4_^5+_v3_v1_v7-_.mp3"
"","1372.3999997600913","html-button-response","173","1411863","0.0-19.0-6.0","43104","","<p>Which tone was played sixth after the cadence?</p><p>Please respond as quickly and as accurately as possible!</p>","0","","6","new_stimuli/mp3/melody_^6_v5+_v4_^5+_v3_v1_v7-_.mp3"
"","2447.195000015199","html-button-response","174","1414311","0.0-19.0-7.0","43104","","<p>Which tone was played seventh after the cadence?</p><p>Please respond as quickly and as accurately as possible!</p>","10","","7","new_stimuli/mp3/melody_^6_v5+_v4_^5+_v3_v1_v7-_.mp3"
"","null","audio-keyboard-response","175","1426022","0.0-19.0-0.1","43104","","new_stimuli/mp3/melody_v1_^2_v1_v7_^1_^3_v2_.mp3","","null","",""
"","1798.115000128746","html-button-response","176","1427823","0.0-19.0-1.1","43104","","<p>Which tone was played first after the cadence?</p><p>Please respond as quickly and as accurately as possible!</p>","0","","1","new_stimuli/mp3/melody_v1_^2_v1_v7_^1_^3_v2_.mp3"
"","663.145000115037","html-button-response","177","1428487","0.0-19.0-2.1","43104","","<p>Which tone was played second after the cadence?</p><p>Please respond as quickly and as accurately as possible!</p>","2","","2","new_stimuli/mp3/melody_v1_^2_v1_v7_^1_^3_v2_.mp3"
"","519.0749997273088","html-button-response","178","1429007","0.0-19.0-3.1","43104","","<p>Which tone was played third after the cadence?</p><p>Please respond as quickly and as accurately as possible!</p>","0","","3","new_stimuli/mp3/melody_v1_^2_v1_v7_^1_^3_v2_.mp3"
"","1094.984999857843","html-button-response","179","1430103","0.0-19.0-4.1","43104","","<p>Which tone was played fourth after the cadence?</p><p>Please respond as quickly and as accurately as possible!</p>","11","","4","new_stimuli/mp3/melody_v1_^2_v1_v7_^1_^3_v2_.mp3"
"","1094.964999705553","html-button-response","180","1431199","0.0-19.0-5.1","43104","","<p>Which tone was played fifth after the cadence?</p><p>Please respond as quickly and as accurately as possible!</p>","0","","5","new_stimuli/mp3/melody_v1_^2_v1_v7_^1_^3_v2_.mp3"
"","1327.2300008684397","html-button-response","181","1432527","0.0-19.0-6.1","43104","","<p>Which tone was played sixth after the cadence?</p><p>Please respond as quickly and as accurately as possible!</p>","4","","6","new_stimuli/mp3/melody_v1_^2_v1_v7_^1_^3_v2_.mp3"
"","646.9549993053079","html-button-response","182","1433175","0.0-19.0-7.1","43104","","<p>Which tone was played seventh after the cadence?</p><p>Please respond as quickly and as accurately as possible!</p>","2","","7","new_stimuli/mp3/melody_v1_^2_v1_v7_^1_^3_v2_.mp3"
"","null","audio-keyboard-response","183","1444883","0.0-19.0-0.2","43104","","new_stimuli/mp3/melody_^4_^5_^6_v5_v4_v3_v2_.mp3","","null","",""
"","1386.5049993619323","html-button-response","184","1446272","0.0-19.0-1.2","43104","","<p>Which tone was played first after the cadence?</p><p>Please respond as quickly and as accurately as possible!</p>","5","","1","new_stimuli/mp3/melody_^4_^5_^6_v5_v4_v3_v2_.mp3"
"","598.9399999380112","html-button-response","185","1446872","0.0-19.0-2.2","43104","","<p>Which tone was played second after the cadence?</p><p>Please respond as quickly and as accurately as possible!</p>","7","","2","new_stimuli/mp3/melody_^4_^5_^6_v5_v4_v3_v2_.mp3"
"","646.339999511838","html-button-response","186","1447520","0.0-19.0-3.2","43104","","<p>Which tone was played third after the cadence?</p><p>Please respond as quickly and as accurately as possible!</p>","9","","3","new_stimuli/mp3/melody_^4_^5_^6_v5_v4_v3_v2_.mp3"
"","527.025000192225","html-button-response","187","1448048","0.0-19.0-4.2","43104","","<p>Which tone was played fourth after the cadence?</p><p>Please respond as quickly and as accurately as possible!</p>","7","","4","new_stimuli/mp3/melody_^4_^5_^6_v5_v4_v3_v2_.mp3"
"","623.2349993661046","html-button-response","188","1448672","0.0-19.0-5.2","43104","","<p>Which tone was played fifth after the cadence?</p><p>Please respond as quickly and as accurately as possible!</p>","5","","5","new_stimuli/mp3/melody_^4_^5_^6_v5_v4_v3_v2_.mp3"
"","750.9949998930097","html-button-response","189","1449424","0.0-19.0-6.2","43104","","<p>Which tone was played sixth after the cadence?</p><p>Please respond as quickly and as accurately as possible!</p>","4","","6","new_stimuli/mp3/melody_^4_^5_^6_v5_v4_v3_v2_.mp3"
"","550.8300000801682","html-button-response","190","1449976","0.0-19.0-7.2","43104","","<p>Which tone was played seventh after the cadence?</p><p>Please respond as quickly and as accurately as possible!</p>","2","","7","new_stimuli/mp3/melody_^4_^5_^6_v5_v4_v3_v2_.mp3"
"","null","audio-keyboard-response","191","1461653","0.0-19.0-0.3","43104","","new_stimuli/mp3/melody_^4_v6-_v5-_^6-_^4_v2-_2-_.mp3","","null","",""
"","4624.079999513924","html-button-response","192","1466280","0.0-19.0-1.3","43104","","<p>Which tone was played first after the cadence?</p><p>Please respond as quickly and as accurately as possible!</p>","5","","1","new_stimuli/mp3/melody_^4_v6-_v5-_^6-_^4_v2-_2-_.mp3"
"","6854.675000533462","html-button-response","193","1473136","0.0-19.0-2.3","43104","","<p>Which tone was played second after the cadence?</p><p>Please respond as quickly and as accurately as possible!</p>","8","","2","new_stimuli/mp3/melody_^4_v6-_v5-_^6-_^4_v2-_2-_.mp3"
"","1053.9950001984835","html-button-response","194","1474192","0.0-19.0-3.3","43104","","<p>Which tone was played third after the cadence?</p><p>Please respond as quickly and as accurately as possible!</p>","6","","3","new_stimuli/mp3/melody_^4_v6-_v5-_^6-_^4_v2-_2-_.mp3"
"","903.0050002038479","html-button-response","195","1475096","0.0-19.0-4.3","43104","","<p>Which tone was played fourth after the cadence?</p><p>Please respond as quickly and as accurately as possible!</p>","8","","4","new_stimuli/mp3/melody_^4_v6-_v5-_^6-_^4_v2-_2-_.mp3"
"","2245.885000564158","html-button-response","196","1477352","0.0-19.0-5.3","43104","","<p>Which tone was played fifth after the cadence?</p><p>Please respond as quickly and as accurately as possible!</p>","5","","5","new_stimuli/mp3/melody_^4_v6-_v5-_^6-_^4_v2-_2-_.mp3"
"","3350.364999845624","html-button-response","197","1480704","0.0-19.0-6.3","43104","","<p>Which tone was played sixth after the cadence?</p><p>Please respond as quickly and as accurately as possible!</p>","1","","6","new_stimuli/mp3/melody_^4_v6-_v5-_^6-_^4_v2-_2-_.mp3"
"","455.1149997860193","html-button-response","198","1481160","0.0-19.0-7.3","43104","","<p>Which tone was played seventh after the cadence?</p><p>Please respond as quickly and as accurately as possible!</p>","1","","7","new_stimuli/mp3/melody_^4_v6-_v5-_^6-_^4_v2-_2-_.mp3"
"","null","audio-keyboard-response","199","1492733","0.0-19.0-0.4","43104","","new_stimuli/mp3/melody_^5_^6_v5_v4_v3_v2_v1_buffer.mp3","","null","",""
"","1248.2949998229742","html-button-response","200","1493984","0.0-19.0-1.4","43104","","<p>Which tone was played first after the cadence?</p><p>Please respond as quickly and as accurately as possible!</p>","7","","1","new_stimuli/mp3/melody_^5_^6_v5_v4_v3_v2_v1_buffer.mp3"
"","583.0349996685982","html-button-response","201","1494568","0.0-19.0-2.4","43104","","<p>Which tone was played second after the cadence?</p><p>Please respond as quickly and as accurately as possible!</p>","9","","2","new_stimuli/mp3/melody_^5_^6_v5_v4_v3_v2_v1_buffer.mp3"
"","575.0150000676513","html-button-response","202","1495144","0.0-19.0-3.4","43104","","<p>Which tone was played third after the cadence?</p><p>Please respond as quickly and as accurately as possible!</p>","7","","3","new_stimuli/mp3/melody_^5_^6_v5_v4_v3_v2_v1_buffer.mp3"
"","559.1550003737211","html-button-response","203","1495704","0.0-19.0-4.4","43104","","<p>Which tone was played fourth after the cadence?</p><p>Please respond as quickly and as accurately as possible!</p>","5","","4","new_stimuli/mp3/melody_^5_^6_v5_v4_v3_v2_v1_buffer.mp3"
"","591.0250004380941","html-button-response","204","1496296","0.0-19.0-5.4","43104","","<p>Which tone was played fifth after the cadence?</p><p>Please respond as quickly and as accurately as possible!</p>","4","","5","new_stimuli/mp3/melody_^5_^6_v5_v4_v3_v2_v1_buffer.mp3"
"","486.89999990165234","html-button-response","205","1496784","0.0-19.0-6.4","43104","","<p>Which tone was played sixth after the cadence?</p><p>Please respond as quickly and as accurately as possible!</p>","2","","6","new_stimuli/mp3/melody_^5_^6_v5_v4_v3_v2_v1_buffer.mp3"
"","751.0799998417497","html-button-response","206","1497536","0.0-19.0-7.4","43104","","<p>Which tone was played seventh after the cadence?</p><p>Please respond as quickly and as accurately as possible!</p>","0","","7","new_stimuli/mp3/melody_^5_^6_v5_v4_v3_v2_v1_buffer.mp3"
"","null","audio-keyboard-response","207","1509503","0.0-19.0-0.5","43104","","new_stimuli/mp3/melody_1_^3_v1_^5_v3_v2_^3_.mp3","","null","",""
"","1112.7949999645352","html-button-response","208","1510617","0.0-19.0-1.5","43104","","<p>Which tone was played first after the cadence?</p><p>Please respond as quickly and as accurately as possible!</p>","0","","1","new_stimuli/mp3/melody_1_^3_v1_^5_v3_v2_^3_.mp3"
"","1559.0949999168515","html-button-response","209","1512177","0.0-19.0-2.5","43104","","<p>Which tone was played second after the cadence?</p><p>Please respond as quickly and as accurately as possible!</p>","4","","2","new_stimuli/mp3/melody_1_^3_v1_^5_v3_v2_^3_.mp3"
"","615.1350000873208","html-button-response","210","1512793","0.0-19.0-3.5","43104","","<p>Which tone was played third after the cadence?</p><p>Please respond as quickly and as accurately as possible!</p>","0","","3","new_stimuli/mp3/melody_1_^3_v1_^5_v3_v2_^3_.mp3"
"","1007.1149999275804","html-button-response","211","1513801","0.0-19.0-4.5","43104","","<p>Which tone was played fourth after the cadence?</p><p>Please respond as quickly and as accurately as possible!</p>","7","","4","new_stimuli/mp3/melody_1_^3_v1_^5_v3_v2_^3_.mp3"
"","1599.1949997842312","html-button-response","212","1515401","0.0-19.0-5.5","43104","","<p>Which tone was played fifth after the cadence?</p><p>Please respond as quickly and as accurately as possible!</p>","4","","5","new_stimuli/mp3/melody_1_^3_v1_^5_v3_v2_^3_.mp3"
"","502.92500015348196","html-button-response","213","1515905","0.0-19.0-6.5","43104","","<p>Which tone was played sixth after the cadence?</p><p>Please respond as quickly and as accurately as possible!</p>","2","","6","new_stimuli/mp3/melody_1_^3_v1_^5_v3_v2_^3_.mp3"
"","455.0449997186661","html-button-response","214","1516361","0.0-19.0-7.5","43104","","<p>Which tone was played seventh after the cadence?</p><p>Please respond as quickly and as accurately as possible!</p>","4","","7","new_stimuli/mp3/melody_1_^3_v1_^5_v3_v2_^3_.mp3"
"","null","audio-keyboard-response","215","1528063","0.0-19.0-0.6","43104","","new_stimuli/mp3/melody_^1_v7_v6_v5_v4_v3_v2_buffer.mp3","","null","",""
"","1401.2050004675984","html-button-response","216","1529465","0.0-19.0-1.6","43104","","<p>Which tone was played first after the cadence?</p><p>Please respond as quickly and as accurately as possible!</p>","12","","1","new_stimuli/mp3/melody_^1_v7_v6_v5_v4_v3_v2_buffer.mp3"
"","766.9399995356798","html-button-response","217","1530233","0.0-19.0-2.6","43104","","<p>Which tone was played second after the cadence?</p><p>Please respond as quickly and as accurately as possible!</p>","11","","2","new_stimuli/mp3/melody_^1_v7_v6_v5_v4_v3_v2_buffer.mp3"
"","1303.0799999833107","html-button-response","218","1531537","0.0-19.0-3.6","43104","","<p>Which tone was played third after the cadence?</p><p>Please respond as quickly and as accurately as possible!</p>","9","","3","new_stimuli/mp3/melody_^1_v7_v6_v5_v4_v3_v2_buffer.mp3"
"","574.8749999329448","html-button-response","219","1532113","0.0-19.0-4.6","43104","","<p>Which tone was played fourth after the cadence?</p><p>Please respond as quickly and as accurately as possible!</p>","7","","4","new_stimuli/mp3/melody_^1_v7_v6_v5_v4_v3_v2_buffer.mp3"
"","638.9850005507469","html-button-response","220","1532753","0.0-19.0-5.6","43104","","<p>Which tone was played fifth after the cadence?</p><p>Please respond as quickly and as accurately as possible!</p>","5","","5","new_stimuli/mp3/melody_^1_v7_v6_v5_v4_v3_v2_buffer.mp3"
"","559.0250007808208","html-button-response","221","1533313","0.0-19.0-6.6","43104","","<p>Which tone was played sixth after the cadence?</p><p>Please respond as quickly and as accurately as possible!</p>","4","","6","new_stimuli/mp3/melody_^1_v7_v6_v5_v4_v3_v2_buffer.mp3"
"","1183.0050004646182","html-button-response","222","1534497","0.0-19.0-7.6","43104","","<p>Which tone was played seventh after the cadence?</p><p>Please respond as quickly and as accurately as possible!</p>","2","","7","new_stimuli/mp3/melody_^1_v7_v6_v5_v4_v3_v2_buffer.mp3"
"[{""page_index"":0,""viewing_time"":1959.5849998295307},{""page_index"":1,""viewing_time"":1304.169999435544},{""page_index"":2,""viewing_time"":903.5350000485778}]","4167.509999126196","instructions","223","1538665","0.0-20.0","43104","","","","","",""
"","null","audio-keyboard-response","224","1551314","0.0-21.0-0.0","43104","","new_stimuli/mp3/melody_v5_v4_v6+_^7_^3+_v3_v2_v5_^4_.mp3","","null","",""
"","1412.2850000858307","html-button-response","225","1552729","0.0-21.0-1.0","43104","","<p>Which tone was played first after the cadence?</p><p>Please respond as quickly and as accurately as possible!</p>","7","","1","new_stimuli/mp3/melody_v5_v4_v6+_^7_^3+_v3_v2_v5_^4_.mp3"
"","478.88500057160854","html-button-response","226","1553209","0.0-21.0-2.0","43104","","<p>Which tone was played second after the cadence?</p><p>Please respond as quickly and as accurately as possible!</p>","5","","2","new_stimuli/mp3/melody_v5_v4_v6+_^7_^3+_v3_v2_v5_^4_.mp3"
"","1071.1599998176098","html-button-response","227","1554281","0.0-21.0-3.0","43104","","<p>Which tone was played third after the cadence?</p><p>Please respond as quickly and as accurately as possible!</p>","9","","3","new_stimuli/mp3/melody_v5_v4_v6+_^7_^3+_v3_v2_v5_^4_.mp3"
"","822.8850001469254","html-button-response","228","1555105","0.0-21.0-4.0","43104","","<p>Which tone was played fourth after the cadence?</p><p>Please respond as quickly and as accurately as possible!</p>","11","","4","new_stimuli/mp3/melody_v5_v4_v6+_^7_^3+_v3_v2_v5_^4_.mp3"
"","2134.8949996754527","html-button-response","229","1557241","0.0-21.0-5.0","43104","","<p>Which tone was played fifth after the cadence?</p><p>Please respond as quickly and as accurately as possible!</p>","4","","5","new_stimuli/mp3/melody_v5_v4_v6+_^7_^3+_v3_v2_v5_^4_.mp3"
"","743.0950002744794","html-button-response","230","1557985","0.0-21.0-6.0","43104","","<p>Which tone was played sixth after the cadence?</p><p>Please respond as quickly and as accurately as possible!</p>","2","","6","new_stimuli/mp3/melody_v5_v4_v6+_^7_^3+_v3_v2_v5_^4_.mp3"
"","2223.2649996876717","html-button-response","231","1560209","0.0-21.0-7.0","43104","","<p>Which tone was played seventh after the cadence?</p><p>Please respond as quickly and as accurately as possible!</p>","7","","7","new_stimuli/mp3/melody_v5_v4_v6+_^7_^3+_v3_v2_v5_^4_.mp3"
"","1430.8449998497963","html-button-response","232","1561641","0.0-21.0-8.0","43104","","<p>Which tone was played eight after the cadence?</p><p>Please respond as quickly and as accurately as possible!</p>","5","","8","new_stimuli/mp3/melody_v5_v4_v6+_^7_^3+_v3_v2_v5_^4_.mp3"
"","1311.1450001597404","html-button-response","233","1562953","0.0-21.0-9.0","43104","","<p>Which tone was played nineth after the cadence?</p><p>Please respond as quickly and as accurately as possible!</p>","2","","9","new_stimuli/mp3/melody_v5_v4_v6+_^7_^3+_v3_v2_v5_^4_.mp3"
"","null","audio-keyboard-response","234","1575526","0.0-21.0-0.1","43104","","new_stimuli/mp3/melody_^3_^4_^5 _^6_v5_v4_v3_v2_v1_.mp3","","null","",""
"","1826.1350002139807","html-button-response","235","1577354","0.0-21.0-1.1","43104","","<p>Which tone was played first after the cadence?</p><p>Please respond as quickly and as accurately as possible!</p>","4","","1","new_stimuli/mp3/melody_^3_^4_^5 _^6_v5_v4_v3_v2_v1_.mp3"
"","510.8150001615286","html-button-response","236","1577866","0.0-21.0-2.1","43104","","<p>Which tone was played second after the cadence?</p><p>Please respond as quickly and as accurately as possible!</p>","5","","2","new_stimuli/mp3/melody_^3_^4_^5 _^6_v5_v4_v3_v2_v1_.mp3"
"","647.1500005573034","html-button-response","237","1578514","0.0-21.0-3.1","43104","","<p>Which tone was played third after the cadence?</p><p>Please respond as quickly and as accurately as possible!</p>","7","","3","new_stimuli/mp3/melody_^3_^4_^5 _^6_v5_v4_v3_v2_v1_.mp3"
"","471.00500017404556","html-button-response","238","1578986","0.0-21.0-4.1","43104","","<p>Which tone was played fourth after the cadence?</p><p>Please respond as quickly and as accurately as possible!</p>","9","","4","new_stimuli/mp3/melody_^3_^4_^5 _^6_v5_v4_v3_v2_v1_.mp3"
"","519.0949998795986","html-button-response","239","1579506","0.0-21.0-5.1","43104","","<p>Which tone was played fifth after the cadence?</p><p>Please respond as quickly and as accurately as possible!</p>","7","","5","new_stimuli/mp3/melody_^3_^4_^5 _^6_v5_v4_v3_v2_v1_.mp3"
"","543.0000005289912","html-button-response","240","1580050","0.0-21.0-6.1","43104","","<p>Which tone was played sixth after the cadence?</p><p>Please respond as quickly and as accurately as possible!</p>","5","","6","new_stimuli/mp3/melody_^3_^4_^5 _^6_v5_v4_v3_v2_v1_.mp3"
"","463.03499955683947","html-button-response","241","1580514","0.0-21.0-7.1","43104","","<p>Which tone was played seventh after the cadence?</p><p>Please respond as quickly and as accurately as possible!</p>","4","","7","new_stimuli/mp3/melody_^3_^4_^5 _^6_v5_v4_v3_v2_v1_.mp3"
"","678.9199998602271","html-button-response","242","1581194","0.0-21.0-8.1","43104","","<p>Which tone was played eight after the cadence?</p><p>Please respond as quickly and as accurately as possible!</p>","2","","8","new_stimuli/mp3/melody_^3_^4_^5 _^6_v5_v4_v3_v2_v1_.mp3"
"","615.1149999350309","html-button-response","243","1581810","0.0-21.0-9.1","43104","","<p>Which tone was played nineth after the cadence?</p><p>Please respond as quickly and as accurately as possible!</p>","0","","9","new_stimuli/mp3/melody_^3_^4_^5 _^6_v5_v4_v3_v2_v1_.mp3"
"","null","audio-keyboard-response","244","1594455","0.0-21.0-0.2","43104","","new_stimuli/mp3/melody_^3_^4_v2_v7_^1_^2_^3_3_^4_.mp3","","null","",""
"","2201.949999667704","html-button-response","245","1596660","0.0-21.0-1.2","43104","","<p>Which tone was played first after the cadence?</p><p>Please respond as quickly and as accurately as possible!</p>","4","","1","new_stimuli/mp3/melody_^3_^4_v2_v7_^1_^2_^3_3_^4_.mp3"
"","556.7349996417761","html-button-response","246","1597218","0.0-21.0-2.2","43104","","<p>Which tone was played second after the cadence?</p><p>Please respond as quickly and as accurately as possible!</p>","5","","2","new_stimuli/mp3/melody_^3_^4_v2_v7_^1_^2_^3_3_^4_.mp3"
"","1302.9950000345707","html-button-response","247","1598522","0.0-21.0-3.2","43104","","<p>Which tone was played third after the cadence?</p><p>Please respond as quickly and as accurately as possible!</p>","2","","3","new_stimuli/mp3/melody_^3_^4_v2_v7_^1_^2_^3_3_^4_.mp3"
"","799.180000089109","html-button-response","248","1599323","0.0-21.0-4.2","43104","","<p>Which tone was played fourth after the cadence?</p><p>Please respond as quickly and as accurately as possible!</p>","11","","4","new_stimuli/mp3/melody_^3_^4_v2_v7_^1_^2_^3_3_^4_.mp3"
"","942.514999769628","html-button-response","249","1600266","0.0-21.0-5.2","43104","","<p>Which tone was played fifth after the cadence?</p><p>Please respond as quickly and as accurately as possible!</p>","0","","5","new_stimuli/mp3/melody_^3_^4_v2_v7_^1_^2_^3_3_^4_.mp3"
"","687.0149997994304","html-button-response","250","1600954","0.0-21.0-6.2","43104","","<p>Which tone was played sixth after the cadence?</p><p>Please respond as quickly and as accurately as possible!</p>","2","","6","new_stimuli/mp3/melody_^3_^4_v2_v7_^1_^2_^3_3_^4_.mp3"
"","542.2550002112985","html-button-response","251","1601498","0.0-21.0-7.2","43104","","<p>Which tone was played seventh after the cadence?</p><p>Please respond as quickly and as accurately as possible!</p>","4","","7","new_stimuli/mp3/melody_^3_^4_v2_v7_^1_^2_^3_3_^4_.mp3"
"","439.1800006851554","html-button-response","252","1601938","0.0-21.0-8.2","43104","","<p>Which tone was played eight after the cadence?</p><p>Please respond as quickly and as accurately as possible!</p>","4","","8","new_stimuli/mp3/melody_^3_^4_v2_v7_^1_^2_^3_3_^4_.mp3"
"","479.0350003167987","html-button-response","253","1602418","0.0-21.0-9.2","43104","","<p>Which tone was played nineth after the cadence?</p><p>Please respond as quickly and as accurately as possible!</p>","5","","9","new_stimuli/mp3/melody_^3_^4_v2_v7_^1_^2_^3_3_^4_.mp3"
"","null","audio-keyboard-response","254","1615355","0.0-21.0-0.3","43104","","new_stimuli/mp3/melody_^2_^4_v3_v2_v1_v3_v2+_^3_^5+_.mp3","","null","",""
"","2188.289999961853","html-button-response","255","1617546","0.0-21.0-1.3","43104","","<p>Which tone was played first after the cadence?</p><p>Please respond as quickly and as accurately as possible!</p>","4","","1","new_stimuli/mp3/melody_^2_^4_v3_v2_v1_v3_v2+_^3_^5+_.mp3"
"","398.9549996331334","html-button-response","256","1617946","0.0-21.0-2.3","43104","","<p>Which tone was played second after the cadence?</p><p>Please respond as quickly and as accurately as possible!</p>","5","","2","new_stimuli/mp3/melody_^2_^4_v3_v2_v1_v3_v2+_^3_^5+_.mp3"
"","1079.1549999266863","html-button-response","257","1619026","0.0-21.0-3.3","43104","","<p>Which tone was played third after the cadence?</p><p>Please respond as quickly and as accurately as possible!</p>","2","","3","new_stimuli/mp3/melody_^2_^4_v3_v2_v1_v3_v2+_^3_^5+_.mp3"
"","1583.1649992614985","html-button-response","258","1620610","0.0-21.0-4.3","43104","","<p>Which tone was played fourth after the cadence?</p><p>Please respond as quickly and as accurately as possible!</p>","11","","4","new_stimuli/mp3/melody_^2_^4_v3_v2_v1_v3_v2+_^3_^5+_.mp3"
"","638.8299996033311","html-button-response","259","1621250","0.0-21.0-5.3","43104","","<p>Which tone was played fifth after the cadence?</p><p>Please respond as quickly and as accurately as possible!</p>","12","","5","new_stimuli/mp3/melody_^2_^4_v3_v2_v1_v3_v2+_^3_^5+_.mp3"
"","2046.6550001874566","html-button-response","260","1623298","0.0-21.0-6.3","43104","","<p>Which tone was played sixth after the cadence?</p><p>Please respond as quickly and as accurately as possible!</p>","4","","6","new_stimuli/mp3/melody_^2_^4_v3_v2_v1_v3_v2+_^3_^5+_.mp3"
"","2695.1299998909235","html-button-response","261","1626005","0.0-21.0-7.3","43104","","<p>Which tone was played seventh after the cadence?</p><p>Please respond as quickly and as accurately as possible!</p>","2","","7","new_stimuli/mp3/melody_^2_^4_v3_v2_v1_v3_v2+_^3_^5+_.mp3"
"","3819.585000164807","html-button-response","262","1629826","0.0-21.0-8.3","43104","","<p>Which tone was played eight after the cadence?</p><p>Please respond as quickly and as accurately as possible!</p>","4","","8","new_stimuli/mp3/melody_^2_^4_v3_v2_v1_v3_v2+_^3_^5+_.mp3"
"","639.1449999064207","html-button-response","263","1630467","0.0-21.0-9.3","43104","","<p>Which tone was played nineth after the cadence?</p><p>Please respond as quickly and as accurately as possible!</p>","6","","9","new_stimuli/mp3/melody_^2_^4_v3_v2_v1_v3_v2+_^3_^5+_.mp3"
"","null","audio-keyboard-response","264","1643166","0.0-21.0-0.4","43104","","new_stimuli/mp3/melody_^2_^3_^4_^5_^6_v5_v4_v3_v2_buffer.mp3","","null","",""
"","1482.545000500977","html-button-response","265","1644651","0.0-21.0-1.4","43104","","<p>Which tone was played first after the cadence?</p><p>Please respond as quickly and as accurately as possible!</p>","2","","1","new_stimuli/mp3/melody_^2_^3_^4_^5_^6_v5_v4_v3_v2_buffer.mp3"
"","646.9550002366304","html-button-response","266","1645299","0.0-21.0-2.4","43104","","<p>Which tone was played second after the cadence?</p><p>Please respond as quickly and as accurately as possible!</p>","4","","2","new_stimuli/mp3/melody_^2_^3_^4_^5_^6_v5_v4_v3_v2_buffer.mp3"
"","463.05999998003244","html-button-response","267","1645763","0.0-21.0-3.4","43104","","<p>Which tone was played third after the cadence?</p><p>Please respond as quickly and as accurately as possible!</p>","5","","3","new_stimuli/mp3/melody_^2_^3_^4_^5_^6_v5_v4_v3_v2_buffer.mp3"
"","615.004999563098","html-button-response","268","1646379","0.0-21.0-4.4","43104","","<p>Which tone was played fourth after the cadence?</p><p>Please respond as quickly and as accurately as possible!</p>","7","","4","new_stimuli/mp3/melody_^2_^3_^4_^5_^6_v5_v4_v3_v2_buffer.mp3"
"","735.0850002840161","html-button-response","269","1647115","0.0-21.0-5.4","43104","","<p>Which tone was played fifth after the cadence?</p><p>Please respond as quickly and as accurately as possible!</p>","9","","5","new_stimuli/mp3/melody_^2_^3_^4_^5_^6_v5_v4_v3_v2_buffer.mp3"
"","686.9400003924966","html-button-response","270","1647803","0.0-21.0-6.4","43104","","<p>Which tone was played sixth after the cadence?</p><p>Please respond as quickly and as accurately as possible!</p>","7","","6","new_stimuli/mp3/melody_^2_^3_^4_^5_^6_v5_v4_v3_v2_buffer.mp3"
"","551.0750003159046","html-button-response","271","1648355","0.0-21.0-7.4","43104","","<p>Which tone was played seventh after the cadence?</p><p>Please respond as quickly and as accurately as possible!</p>","5","","7","new_stimuli/mp3/melody_^2_^3_^4_^5_^6_v5_v4_v3_v2_buffer.mp3"
"","462.9399999976158","html-button-response","272","1648819","0.0-21.0-8.4","43104","","<p>Which tone was played eight after the cadence?</p><p>Please respond as quickly and as accurately as possible!</p>","4","","8","new_stimuli/mp3/melody_^2_^3_^4_^5_^6_v5_v4_v3_v2_buffer.mp3"
"","470.9000000730157","html-button-response","273","1649291","0.0-21.0-9.4","43104","","<p>Which tone was played nineth after the cadence?</p><p>Please respond as quickly and as accurately as possible!</p>","2","","9","new_stimuli/mp3/melody_^2_^3_^4_^5_^6_v5_v4_v3_v2_buffer.mp3"
"","null","audio-keyboard-response","274","1661936","0.0-21.0-0.5","43104","","new_stimuli/mp3/melody_v7_v6_v5_^6_v5_v4_^5_^6_v5_.mp3","","null","",""
"","1384.0250000357628","html-button-response","275","1663323","0.0-21.0-1.5","43104","","<p>Which tone was played first after the cadence?</p><p>Please respond as quickly and as accurately as possible!</p>","11","","1","new_stimuli/mp3/melody_v7_v6_v5_^6_v5_v4_^5_^6_v5_.mp3"
"","542.9950002580881","html-button-response","276","1663867","0.0-21.0-2.5","43104","","<p>Which tone was played second after the cadence?</p><p>Please respond as quickly and as accurately as possible!</p>","9","","2","new_stimuli/mp3/melody_v7_v6_v5_^6_v5_v4_^5_^6_v5_.mp3"
"","478.2549999654293","html-button-response","277","1664347","0.0-21.0-3.5","43104","","<p>Which tone was played third after the cadence?</p><p>Please respond as quickly and as accurately as possible!</p>","7","","3","new_stimuli/mp3/melody_v7_v6_v5_^6_v5_v4_^5_^6_v5_.mp3"
"","575.0600006431341","html-button-response","278","1664923","0.0-21.0-4.5","43104","","<p>Which tone was played fourth after the cadence?</p><p>Please respond as quickly and as accurately as possible!</p>","9","","4","new_stimuli/mp3/melody_v7_v6_v5_^6_v5_v4_^5_^6_v5_.mp3"
"","471.06000036001205","html-button-response","279","1665395","0.0-21.0-5.5","43104","","<p>Which tone was played fifth after the cadence?</p><p>Please respond as quickly and as accurately as possible!</p>","7","","5","new_stimuli/mp3/melody_v7_v6_v5_^6_v5_v4_^5_^6_v5_.mp3"
"","567.3749996349216","html-button-response","280","1665964","0.0-21.0-6.5","43104","","<p>Which tone was played sixth after the cadence?</p><p>Please respond as quickly and as accurately as possible!</p>","5","","6","new_stimuli/mp3/melody_v7_v6_v5_^6_v5_v4_^5_^6_v5_.mp3"
"","614.2250001430511","html-button-response","281","1666579","0.0-21.0-7.5","43104","","<p>Which tone was played seventh after the cadence?</p><p>Please respond as quickly and as accurately as possible!</p>","4","","7","new_stimuli/mp3/melody_v7_v6_v5_^6_v5_v4_^5_^6_v5_.mp3"
"","639.0249999240041","html-button-response","282","1667219","0.0-21.0-8.5","43104","","<p>Which tone was played eight after the cadence?</p><p>Please respond as quickly and as accurately as possible!</p>","5","","8","new_stimuli/mp3/melody_v7_v6_v5_^6_v5_v4_^5_^6_v5_.mp3"
"","471.0800005123019","html-button-response","283","1667691","0.0-21.0-9.5","43104","","<p>Which tone was played nineth after the cadence?</p><p>Please respond as quickly and as accurately as possible!</p>","7","","9","new_stimuli/mp3/melody_v7_v6_v5_^6_v5_v4_^5_^6_v5_.mp3"
"","null","audio-keyboard-response","284","1680647","0.0-21.0-0.6","43104","","new_stimuli/mp3/melody_^5_^6_v5_v4_v3_v2_v1_^2_^3_buffer.mp3","","null","",""
"","1297.7049993351102","html-button-response","285","1681947","0.0-21.0-1.6","43104","","<p>Which tone was played first after the cadence?</p><p>Please respond as quickly and as accurately as possible!</p>","7","","1","new_stimuli/mp3/melody_^5_^6_v5_v4_v3_v2_v1_^2_^3_buffer.mp3"
"","543.1899996474385","html-button-response","286","1682491","0.0-21.0-2.6","43104","","<p>Which tone was played second after the cadence?</p><p>Please respond as quickly and as accurately as possible!</p>","9","","2","new_stimuli/mp3/melody_^5_^6_v5_v4_v3_v2_v1_^2_^3_buffer.mp3"
"","566.9649997726083","html-button-response","287","1683059","0.0-21.0-3.6","43104","","<p>Which tone was played third after the cadence?</p><p>Please respond as quickly and as accurately as possible!</p>","7","","3","new_stimuli/mp3/melody_^5_^6_v5_v4_v3_v2_v1_^2_^3_buffer.mp3"
"","470.8449998870492","html-button-response","288","1683531","0.0-21.0-4.6","43104","","<p>Which tone was played fourth after the cadence?</p><p>Please respond as quickly and as accurately as possible!</p>","5","","4","new_stimuli/mp3/melody_^5_^6_v5_v4_v3_v2_v1_^2_^3_buffer.mp3"
"","1351.5100004151464","html-button-response","289","1684884","0.0-21.0-5.6","43104","","<p>Which tone was played fifth after the cadence?</p><p>Please respond as quickly and as accurately as possible!</p>","4","","5","new_stimuli/mp3/melody_^5_^6_v5_v4_v3_v2_v1_^2_^3_buffer.mp3"
"","526.3350000604987","html-button-response","290","1685411","0.0-21.0-6.6","43104","","<p>Which tone was played sixth after the cadence?</p><p>Please respond as quickly and as accurately as possible!</p>","2","","6","new_stimuli/mp3/melody_^5_^6_v5_v4_v3_v2_v1_^2_^3_buffer.mp3"
"","575.0599997118115","html-button-response","291","1685987","0.0-21.0-7.6","43104","","<p>Which tone was played seventh after the cadence?</p><p>Please respond as quickly and as accurately as possible!</p>","0","","7","new_stimuli/mp3/melody_^5_^6_v5_v4_v3_v2_v1_^2_^3_buffer.mp3"
"","487.2550005093217","html-button-response","292","1686475","0.0-21.0-8.6","43104","","<p>Which tone was played eight after the cadence?</p><p>Please respond as quickly and as accurately as possible!</p>","2","","8","new_stimuli/mp3/melody_^5_^6_v5_v4_v3_v2_v1_^2_^3_buffer.mp3"
"","495.1100004836917","html-button-response","293","1686971","0.0-21.0-9.6","43104","","<p>Which tone was played nineth after the cadence?</p><p>Please respond as quickly and as accurately as possible!</p>","4","","9","new_stimuli/mp3/melody_^5_^6_v5_v4_v3_v2_v1_^2_^3_buffer.mp3"
"","35935.71500014514","survey-text","294","1722909","0.0-22.0","43104","{""Q0"":""Singing, imagining a keyboard, identify the first note and then focus on the melodic contour and try to forget the framing cadence""}","","","","",""
"","95383.26999917626","survey-text","295","1818295","0.0-23.0","43104","{""Q0"":""Curious about people's choice of using the low or hi Do, depending on where the target note was in relation to the cadence. I think RT data would be fascinating, but tough to interpret with this kind of point and click task""}","","","","",""
"","4159.409999847412","survey-text","296","1822456","0.0-24.0","43104","{""Q0"":""Yes""}","","","","",""
"","3711.430000141263","survey-text","297","1826168","0.0-25.0","43104","{""Q0"":""Computer speakers""}","","","","",""
"","2734.6999999135733","survey-text","298","1828904","0.0-26.0","43104","{""Q0"":""F""}","","","","",""
"","2607.3600007221103","survey-text","299","1831512","0.0-27.0","43104","{""Q0"":""Yes""}","","","","",""
"[{""page_index"":0,""viewing_time"":4053.940000012517}]","4054.1149992495775","instructions","300","1835566","0.0-28.0","43104","","","","","",""
