"view_history","rt","trial_type","trial_index","time_elapsed","internal_node_id","subject","responses","stimulus","button_pressed","key_press","response_sequence","melody"
"[{""page_index"":0,""viewing_time"":3572.485000011511},{""page_index"":1,""viewing_time"":12779.740000027232},{""page_index"":2,""viewing_time"":1900.7650000276044}]","18253.735000034794","instructions","0","18348","0.0-0.0","4559","","","","","",""
"","3676.0349998949096","survey-text","1","22026","0.0-1.0","4559","{""Q0"":""64""}","","","","",""
"","15321.059999987483","survey-text","2","37349","0.0-2.0","4559","{""Q0"":""finished terminal degree (DMA)""}","","","","",""
"","7524.669999955222","survey-text","3","44875","0.0-3.0","4559","{""Q0"":""Moveable-Do""}","","","","",""
"","13273.434999980964","survey-text","4","58150","0.0-4.0","4559","{""Q0"":""I did, but it's fading""}","","","","",""
"","18595.130000030622","survey-text","5","76746","0.0-5.0","4559","{""Q0"":""tested out of all of it back in the day""}","","","","",""
"","10563.314999919385","survey-text","6","87310","0.0-6.0","4559","{""Q0"":""30""}","","","","",""
"[{""page_index"":0,""viewing_time"":1427.5800000177696},{""page_index"":1,""viewing_time"":12408.079999964684},{""page_index"":2,""viewing_time"":4175.054999999702}]","18010.989999980666","instructions","7","105322","0.0-7.0","4559","","","","","",""
"","12424.465000047348","audio-button-response","8","117753","0.0-8.0","4559","","stimuli/long/c-do.mp3","0","","",""
"","8907.819999963976","audio-button-response","9","126663","0.0-9.0","4559","","stimuli/long/a-le.mp3","8","","",""
"[{""page_index"":0,""viewing_time"":2675.9150000289083},{""page_index"":1,""viewing_time"":4488.684999989346}]","7164.849999942817","instructions","10","133828","0.0-10.0","4559","","","","","",""
"","7209.520000033081","audio-button-response","11","141040","0.0-11.0-0.0","4559","","stimuli/long/e-re.mp3","2","","",""
"","2022.8099999949336","audio-button-response","12","143065","0.0-11.0-0.1","4559","","stimuli/long/e-do.mp3","2","","",""
"","7919.25999999512","audio-button-response","13","150986","0.0-11.0-0.2","4559","","stimuli/long/e-do8.mp3","12","","",""
"","7175.064999959432","audio-button-response","14","158162","0.0-11.0-0.3","4559","","stimuli/long/c-fa.mp3","5","","",""
"","7378.580000018701","audio-button-response","15","165543","0.0-11.0-0.4","4559","","stimuli/long/a-la.mp3","9","","",""
"","7884.155000094324","audio-button-response","16","173429","0.0-11.0-0.5","4559","","stimuli/long/a-do8.mp3","12","","",""
"","8176.964999991469","audio-button-response","17","181607","0.0-11.0-0.6","4559","","stimuli/long/a-re.mp3","2","","",""
"","7704.674999928102","audio-button-response","18","189314","0.0-11.0-0.7","4559","","stimuli/long/a-sol.mp3","7","","",""
"","7412.004999932833","audio-button-response","19","196727","0.0-11.0-0.8","4559","","stimuli/long/c-ra.mp3","1","","",""
"","7546.9900000607595","audio-button-response","20","204276","0.0-11.0-0.9","4559","","stimuli/long/c-mi.mp3","4","","",""
"","7547.0750000094995","audio-button-response","21","211825","0.0-11.0-0.10","4559","","stimuli/long/a-mi.mp3","4","","",""
"","7311.180000077002","audio-button-response","22","219138","0.0-11.0-0.11","4559","","stimuli/long/c-do.mp3","0","","",""
"","7343.960000085644","audio-button-response","23","226484","0.0-11.0-0.12","4559","","stimuli/long/c-ti.mp3","11","","",""
"","7344.750000047497","audio-button-response","24","233830","0.0-11.0-0.13","4559","","stimuli/long/e-me.mp3","3","","",""
"","7614.60500000976","audio-button-response","25","241447","0.0-11.0-0.14","4559","","stimuli/long/e-fi.mp3","6","","",""
"","7277.0800000289455","audio-button-response","26","248725","0.0-11.0-0.15","4559","","stimuli/long/c-do8.mp3","12","","",""
"","7557.765000034124","audio-button-response","27","256285","0.0-11.0-0.16","4559","","stimuli/long/e-te.mp3","10","","",""
"","7659.8249999806285","audio-button-response","28","263946","0.0-11.0-0.17","4559","","stimuli/long/a-me.mp3","3","","",""
"","7625.729999970645","audio-button-response","29","271574","0.0-11.0-0.18","4559","","stimuli/long/e-mi.mp3","4","","",""
"","7850.855000084266","audio-button-response","30","279426","0.0-11.0-0.19","4559","","stimuli/long/e-ra.mp3","1","","",""
"","7174.999999930151","audio-button-response","31","286603","0.0-11.0-0.20","4559","","stimuli/long/e-fa.mp3","5","","",""
"","7356.4100000076","audio-button-response","32","293961","0.0-11.0-0.21","4559","","stimuli/long/e-sol.mp3","7","","",""
"","7367.324999999255","audio-button-response","33","301330","0.0-11.0-0.22","4559","","stimuli/long/c-re.mp3","2","","",""
"","7434.2150000156835","audio-button-response","34","308766","0.0-11.0-0.23","4559","","stimuli/long/c-la.mp3","9","","",""
"","8008.419999969192","audio-button-response","35","316777","0.0-11.0-0.24","4559","","stimuli/long/a-fa.mp3","5","","",""
"","7243.070000084117","audio-button-response","36","324021","0.0-11.0-0.25","4559","","stimuli/long/a-ra.mp3","1","","",""
"","7647.864999948069","audio-button-response","37","331671","0.0-11.0-0.26","4559","","stimuli/long/c-sol.mp3","7","","",""
"","7186.955000041053","audio-button-response","38","338860","0.0-11.0-0.27","4559","","stimuli/long/c-fi.mp3","6","","",""
"","7288.189999992028","audio-button-response","39","346150","0.0-11.0-0.28","4559","","stimuli/long/e-ti.mp3","11","","",""
"","7996.939999982715","audio-button-response","40","354149","0.0-11.0-0.29","4559","","stimuli/long/a-le.mp3","8","","",""
"","10213.220000034198","audio-button-response","41","364364","0.0-11.0-0.30","4559","","stimuli/long/c-le.mp3","8","","",""
"","7614.204999990761","audio-button-response","42","371980","0.0-11.0-0.31","4559","","stimuli/long/a-ti.mp3","11","","",""
"","7355.645000003278","audio-button-response","43","379338","0.0-11.0-0.32","4559","","stimuli/long/c-me.mp3","3","","",""
"","7929.854999994859","audio-button-response","44","387269","0.0-11.0-0.33","4559","","stimuli/long/e-la.mp3","9","","",""
"","7513.024999992922","audio-button-response","45","394784","0.0-11.0-0.34","4559","","stimuli/long/e-le.mp3","8","","",""
"","8165.765000041574","audio-button-response","46","402951","0.0-11.0-0.35","4559","","stimuli/long/a-do.mp3","0","","",""
"","8300.844999961555","audio-button-response","47","411254","0.0-11.0-0.36","4559","","stimuli/long/a-fi.mp3","6","","",""
"","7614.470000029542","audio-button-response","48","418870","0.0-11.0-0.37","4559","","stimuli/long/a-te.mp3","10","","",""
"[{""page_index"":0,""viewing_time"":9009.829999995418},{""page_index"":1,""viewing_time"":1091.344999964349}]","10101.39500000514","instructions","49","428973","0.0-12.0","4559","","","","","",""
"","null","audio-keyboard-response","50","437988","0.0-13.0-0.0","4559","","new_stimuli/mp3/melody_^1_^2+_.mp3","","null","",""
"","1525.084999972023","html-button-response","51","439515","0.0-13.0-1.0","4559","","<p>Which tone was played first after the cadence?</p><p>Please respond as quickly and as accurately as possible!</p>","0","","1","new_stimuli/mp3/melody_^1_^2+_.mp3"
"","1505.2850000793114","html-button-response","52","441022","0.0-13.0-2.0","4559","","<p>Which tone was played second after the cadence?</p><p>Please respond as quickly and as accurately as possible!</p>","3","","2","new_stimuli/mp3/melody_^1_^2+_.mp3"
"","null","audio-keyboard-response","53","450190","0.0-13.0-0.1","4559","","new_stimuli/mp3/melody_^2_v7-_.mp3","","null","",""
"","1293.9550000010058","html-button-response","54","451485","0.0-13.0-1.1","4559","","<p>Which tone was played first after the cadence?</p><p>Please respond as quickly and as accurately as possible!</p>","2","","1","new_stimuli/mp3/melody_^2_v7-_.mp3"
"","1066.5150000713766","html-button-response","55","452553","0.0-13.0-2.1","4559","","<p>Which tone was played second after the cadence?</p><p>Please respond as quickly and as accurately as possible!</p>","10","","2","new_stimuli/mp3/melody_^2_v7-_.mp3"
"","null","audio-keyboard-response","56","461619","0.0-13.0-0.2","4559","","new_stimuli/mp3/melody_v2_v1_.mp3","","null","",""
"","967.049999977462","html-button-response","57","462588","0.0-13.0-1.2","4559","","<p>Which tone was played first after the cadence?</p><p>Please respond as quickly and as accurately as possible!</p>","2","","1","new_stimuli/mp3/melody_v2_v1_.mp3"
"","864.8449999745935","html-button-response","58","463454","0.0-13.0-2.2","4559","","<p>Which tone was played second after the cadence?</p><p>Please respond as quickly and as accurately as possible!</p>","0","","2","new_stimuli/mp3/melody_v2_v1_.mp3"
"","null","audio-keyboard-response","59","472910","0.0-13.0-0.3","4559","","new_stimuli/mp3/melody_^3_v4+_buffer.mp3","","null","",""
"","1218.5649999883026","html-button-response","60","474130","0.0-13.0-1.3","4559","","<p>Which tone was played first after the cadence?</p><p>Please respond as quickly and as accurately as possible!</p>","4","","1","new_stimuli/mp3/melody_^3_v4+_buffer.mp3"
"","673.6400000518188","html-button-response","61","474805","0.0-13.0-2.3","4559","","<p>Which tone was played second after the cadence?</p><p>Please respond as quickly and as accurately as possible!</p>","6","","2","new_stimuli/mp3/melody_^3_v4+_buffer.mp3"
"","null","audio-keyboard-response","62","484236","0.0-13.0-0.4","4559","","new_stimuli/mp3/melody_v4_v3_buffer.mp3","","null","",""
"","1165.2999999932945","html-button-response","63","485403","0.0-13.0-1.4","4559","","<p>Which tone was played first after the cadence?</p><p>Please respond as quickly and as accurately as possible!</p>","5","","1","new_stimuli/mp3/melody_v4_v3_buffer.mp3"
"","426.18499998934567","html-button-response","64","485830","0.0-13.0-2.4","4559","","<p>Which tone was played second after the cadence?</p><p>Please respond as quickly and as accurately as possible!</p>","4","","2","new_stimuli/mp3/melody_v4_v3_buffer.mp3"
"","null","audio-keyboard-response","65","494998","0.0-13.0-0.5","4559","","new_stimuli/mp3/melody_v5_v1+_.mp3","","null","",""
"","1169.2400000756606","html-button-response","66","496169","0.0-13.0-1.5","4559","","<p>Which tone was played first after the cadence?</p><p>Please respond as quickly and as accurately as possible!</p>","7","","1","new_stimuli/mp3/melody_v5_v1+_.mp3"
"","628.6250000121072","html-button-response","67","496799","0.0-13.0-2.5","4559","","<p>Which tone was played second after the cadence?</p><p>Please respond as quickly and as accurately as possible!</p>","1","","2","new_stimuli/mp3/melody_v5_v1+_.mp3"
"","null","audio-keyboard-response","68","505993","0.0-13.0-0.6","4559","","new_stimuli/mp3/melody_v3_v2_buffer.mp3","","null","",""
"","996.820000000298","html-button-response","69","506992","0.0-13.0-1.6","4559","","<p>Which tone was played first after the cadence?</p><p>Please respond as quickly and as accurately as possible!</p>","4","","1","new_stimuli/mp3/melody_v3_v2_buffer.mp3"
"","482.48000000603497","html-button-response","70","507476","0.0-13.0-2.6","4559","","<p>Which tone was played second after the cadence?</p><p>Please respond as quickly and as accurately as possible!</p>","2","","2","new_stimuli/mp3/melody_v3_v2_buffer.mp3"
"","null","audio-keyboard-response","71","516773","0.0-13.0-0.7","4559","","new_stimuli/mp3/melody_3_^6_buffer.mp3","","null","",""
"","938.0900000687689","html-button-response","72","517713","0.0-13.0-1.7","4559","","<p>Which tone was played first after the cadence?</p><p>Please respond as quickly and as accurately as possible!</p>","4","","1","new_stimuli/mp3/melody_3_^6_buffer.mp3"
"","988.6649999534711","html-button-response","73","518703","0.0-13.0-2.7","4559","","<p>Which tone was played second after the cadence?</p><p>Please respond as quickly and as accurately as possible!</p>","9","","2","new_stimuli/mp3/melody_3_^6_buffer.mp3"
"","null","audio-keyboard-response","74","527873","0.0-13.0-0.8","4559","","new_stimuli/mp3/melody_^5_^1+_.mp3","","null","",""
"","998.6600000411272","html-button-response","75","528873","0.0-13.0-1.8","4559","","<p>Which tone was played first after the cadence?</p><p>Please respond as quickly and as accurately as possible!</p>","7","","1","new_stimuli/mp3/melody_^5_^1+_.mp3"
"","718.3949999744073","html-button-response","76","529593","0.0-13.0-2.8","4559","","<p>Which tone was played second after the cadence?</p><p>Please respond as quickly and as accurately as possible!</p>","1","","2","new_stimuli/mp3/melody_^5_^1+_.mp3"
"","null","audio-keyboard-response","77","539048","0.0-13.0-0.9","4559","","new_stimuli/mp3/melody_v7_v3_buffer.mp3","","null","",""
"","792.589999968186","html-button-response","78","539842","0.0-13.0-1.9","4559","","<p>Which tone was played first after the cadence?</p><p>Please respond as quickly and as accurately as possible!</p>","11","","1","new_stimuli/mp3/melody_v7_v3_buffer.mp3"
"","840.94499994535","html-button-response","79","540686","0.0-13.0-2.9","4559","","<p>Which tone was played second after the cadence?</p><p>Please respond as quickly and as accurately as possible!</p>","4","","2","new_stimuli/mp3/melody_v7_v3_buffer.mp3"
"[{""page_index"":0,""viewing_time"":2057.61999997776},{""page_index"":1,""viewing_time"":1203.5199999809265},{""page_index"":2,""viewing_time"":854.8599999630824}]","4116.2249998888","instructions","80","544802","0.0-14.0","4559","","","","","",""
"","null","audio-keyboard-response","81","554495","0.0-15.0-0.0","4559","","new_stimuli/mp3/melody_v4_v3_v2_buffer.mp3","","null","",""
"","1039.7750000702217","html-button-response","82","555536","0.0-15.0-1.0","4559","","<p>Which tone was played first after the cadence?</p><p>Please respond as quickly and as accurately as possible!</p>","5","","1","new_stimuli/mp3/melody_v4_v3_v2_buffer.mp3"
"","470.86500003933907","html-button-response","83","556008","0.0-15.0-2.0","4559","","<p>Which tone was played second after the cadence?</p><p>Please respond as quickly and as accurately as possible!</p>","4","","2","new_stimuli/mp3/melody_v4_v3_v2_buffer.mp3"
"","730.0549999345094","html-button-response","84","556739","0.0-15.0-3.0","4559","","<p>Which tone was played third after the cadence?</p><p>Please respond as quickly and as accurately as possible!</p>","2","","3","new_stimuli/mp3/melody_v4_v3_v2_buffer.mp3"
"","null","audio-keyboard-response","85","566296","0.0-15.0-0.1","4559","","new_stimuli/mp3/melody_v1_v7-_^7_.mp3","","null","",""
"","757.7349999919534","html-button-response","86","567056","0.0-15.0-1.1","4559","","<p>Which tone was played first after the cadence?</p><p>Please respond as quickly and as accurately as possible!</p>","12","","1","new_stimuli/mp3/melody_v1_v7-_^7_.mp3"
"","504.93500009179115","html-button-response","87","567562","0.0-15.0-2.1","4559","","<p>Which tone was played second after the cadence?</p><p>Please respond as quickly and as accurately as possible!</p>","10","","2","new_stimuli/mp3/melody_v1_v7-_^7_.mp3"
"","369.48500003200024","html-button-response","88","567933","0.0-15.0-3.1","4559","","<p>Which tone was played third after the cadence?</p><p>Please respond as quickly and as accurately as possible!</p>","11","","3","new_stimuli/mp3/melody_v1_v7-_^7_.mp3"
"","null","audio-keyboard-response","89","577837","0.0-15.0-0.2","4559","","new_stimuli/mp3/melody_^1_v6_v5+_.mp3","","null","",""
"","770.9850000683218","html-button-response","90","578609","0.0-15.0-1.2","4559","","<p>Which tone was played first after the cadence?</p><p>Please respond as quickly and as accurately as possible!</p>","12","","1","new_stimuli/mp3/melody_^1_v6_v5+_.mp3"
"","776.1900000041351","html-button-response","91","579387","0.0-15.0-2.2","4559","","<p>Which tone was played second after the cadence?</p><p>Please respond as quickly and as accurately as possible!</p>","9","","2","new_stimuli/mp3/melody_^1_v6_v5+_.mp3"
"","435.9499999554828","html-button-response","92","579824","0.0-15.0-3.2","4559","","<p>Which tone was played third after the cadence?</p><p>Please respond as quickly and as accurately as possible!</p>","8","","3","new_stimuli/mp3/melody_^1_v6_v5+_.mp3"
"","null","audio-keyboard-response","93","589465","0.0-15.0-0.3","4559","","new_stimuli/mp3/melody_6_^1_v5_.mp3","","null","",""
"","1282.4499999405816","html-button-response","94","590748","0.0-15.0-1.3","4559","","<p>Which tone was played first after the cadence?</p><p>Please respond as quickly and as accurately as possible!</p>","9","","1","new_stimuli/mp3/melody_6_^1_v5_.mp3"
"","808.3650000626221","html-button-response","95","591558","0.0-15.0-2.3","4559","","<p>Which tone was played second after the cadence?</p><p>Please respond as quickly and as accurately as possible!</p>","12","","2","new_stimuli/mp3/melody_6_^1_v5_.mp3"
"","831.4500000560656","html-button-response","96","592391","0.0-15.0-3.3","4559","","<p>Which tone was played third after the cadence?</p><p>Please respond as quickly and as accurately as possible!</p>","7","","3","new_stimuli/mp3/melody_6_^1_v5_.mp3"
"","null","audio-keyboard-response","97","602346","0.0-15.0-0.4","4559","","new_stimuli/mp3/melody_v5_v4_v3_buffer.mp3","","null","",""
"","1045.6949999788776","html-button-response","98","603393","0.0-15.0-1.4","4559","","<p>Which tone was played first after the cadence?</p><p>Please respond as quickly and as accurately as possible!</p>","7","","1","new_stimuli/mp3/melody_v5_v4_v3_buffer.mp3"
"","540.5549999559298","html-button-response","99","603935","0.0-15.0-2.4","4559","","<p>Which tone was played second after the cadence?</p><p>Please respond as quickly and as accurately as possible!</p>","5","","2","new_stimuli/mp3/melody_v5_v4_v3_buffer.mp3"
"","357.13500005658716","html-button-response","100","604293","0.0-15.0-3.4","4559","","<p>Which tone was played third after the cadence?</p><p>Please respond as quickly and as accurately as possible!</p>","4","","3","new_stimuli/mp3/melody_v5_v4_v3_buffer.mp3"
"","null","audio-keyboard-response","101","613799","0.0-15.0-0.5","4559","","new_stimuli/mp3/melody_1_v1+_^2_.mp3","","null","",""
"","527.5900000706315","html-button-response","102","614328","0.0-15.0-1.5","4559","","<p>Which tone was played first after the cadence?</p><p>Please respond as quickly and as accurately as possible!</p>","0","","1","new_stimuli/mp3/melody_1_v1+_^2_.mp3"
"","1011.1899999901652","html-button-response","103","615340","0.0-15.0-2.5","4559","","<p>Which tone was played second after the cadence?</p><p>Please respond as quickly and as accurately as possible!</p>","2","","2","new_stimuli/mp3/melody_1_v1+_^2_.mp3"
"","2563.3399999933317","html-button-response","104","617905","0.0-15.0-3.5","4559","","<p>Which tone was played third after the cadence?</p><p>Please respond as quickly and as accurately as possible!</p>","2","","3","new_stimuli/mp3/melody_1_v1+_^2_.mp3"
"","null","audio-keyboard-response","105","627464","0.0-15.0-0.6","4559","","new_stimuli/mp3/melody_v3_v2_v1_.mp3","","null","",""
"","1397.2300000023097","html-button-response","106","628863","0.0-15.0-1.6","4559","","<p>Which tone was played first after the cadence?</p><p>Please respond as quickly and as accurately as possible!</p>","4","","1","new_stimuli/mp3/melody_v3_v2_v1_.mp3"
"","875.2399999648333","html-button-response","107","629740","0.0-15.0-2.6","4559","","<p>Which tone was played second after the cadence?</p><p>Please respond as quickly and as accurately as possible!</p>","2","","2","new_stimuli/mp3/melody_v3_v2_v1_.mp3"
"","629.164999932982","html-button-response","108","630370","0.0-15.0-3.6","4559","","<p>Which tone was played third after the cadence?</p><p>Please respond as quickly and as accurately as possible!</p>","0","","3","new_stimuli/mp3/melody_v3_v2_v1_.mp3"
"","null","audio-keyboard-response","109","639957","0.0-15.0-0.7","4559","","new_stimuli/mp3/melody_v1_v7-_7-_buffer.mp3","","null","",""
"","1302.519999910146","html-button-response","110","641261","0.0-15.0-1.7","4559","","<p>Which tone was played first after the cadence?</p><p>Please respond as quickly and as accurately as possible!</p>","12","","1","new_stimuli/mp3/melody_v1_v7-_7-_buffer.mp3"
"","640.0649999268353","html-button-response","111","641902","0.0-15.0-2.7","4559","","<p>Which tone was played second after the cadence?</p><p>Please respond as quickly and as accurately as possible!</p>","10","","2","new_stimuli/mp3/melody_v1_v7-_7-_buffer.mp3"
"","302.3749999701977","html-button-response","112","642205","0.0-15.0-3.7","4559","","<p>Which tone was played third after the cadence?</p><p>Please respond as quickly and as accurately as possible!</p>","10","","3","new_stimuli/mp3/melody_v1_v7-_7-_buffer.mp3"
"","null","audio-keyboard-response","113","652182","0.0-15.0-0.8","4559","","new_stimuli/mp3/melody_v2_v5_^3_buffer.mp3","","null","",""
"","1035.550000029616","html-button-response","114","653219","0.0-15.0-1.8","4559","","<p>Which tone was played first after the cadence?</p><p>Please respond as quickly and as accurately as possible!</p>","2","","1","new_stimuli/mp3/melody_v2_v5_^3_buffer.mp3"
"","1056.4200000371784","html-button-response","115","654277","0.0-15.0-2.8","4559","","<p>Which tone was played second after the cadence?</p><p>Please respond as quickly and as accurately as possible!</p>","7","","2","new_stimuli/mp3/melody_v2_v5_^3_buffer.mp3"
"","662.1449999511242","html-button-response","116","654941","0.0-15.0-3.8","4559","","<p>Which tone was played third after the cadence?</p><p>Please respond as quickly and as accurately as possible!</p>","4","","3","new_stimuli/mp3/melody_v2_v5_^3_buffer.mp3"
"[{""page_index"":0,""viewing_time"":2395.1799999922514},{""page_index"":1,""viewing_time"":1934.929999988526},{""page_index"":2,""viewing_time"":1091.4349999511614}]","5421.770000015385","instructions","117","660363","0.0-16.0","4559","","","","","",""
"","null","audio-keyboard-response","118","670996","0.0-17.0-0.0","4559","","new_stimuli/mp3/melody_v5_^6+_^7_^1_5_.mp3","","null","",""
"","1042.3750000772998","html-button-response","119","672040","0.0-17.0-1.0","4559","","<p>Which tone was played first after the cadence?</p><p>Please respond as quickly and as accurately as possible!</p>","7","","1","new_stimuli/mp3/melody_v5_^6+_^7_^1_5_.mp3"
"","584.1400000499561","html-button-response","120","672626","0.0-17.0-2.0","4559","","<p>Which tone was played second after the cadence?</p><p>Please respond as quickly and as accurately as possible!</p>","9","","2","new_stimuli/mp3/melody_v5_^6+_^7_^1_5_.mp3"
"","594.8599999537691","html-button-response","121","673222","0.0-17.0-3.0","4559","","<p>Which tone was played third after the cadence?</p><p>Please respond as quickly and as accurately as possible!</p>","11","","3","new_stimuli/mp3/melody_v5_^6+_^7_^1_5_.mp3"
"","472.96499996446073","html-button-response","122","673696","0.0-17.0-4.0","4559","","<p>Which tone was played fourth after the cadence?</p><p>Please respond as quickly and as accurately as possible!</p>","12","","4","new_stimuli/mp3/melody_v5_^6+_^7_^1_5_.mp3"
"","807.1449999697506","html-button-response","123","674504","0.0-17.0-5.0","4559","","<p>Which tone was played fifth after the cadence?</p><p>Please respond as quickly and as accurately as possible!</p>","7","","5","new_stimuli/mp3/melody_v5_^6+_^7_^1_5_.mp3"
"","null","audio-keyboard-response","124","685451","0.0-17.0-0.1","4559","","new_stimuli/mp3/melody_v5-_v3_3_^4+_v3_.mp3","","null","",""
"","1494.2850000225008","html-button-response","125","686947","0.0-17.0-1.1","4559","","<p>Which tone was played first after the cadence?</p><p>Please respond as quickly and as accurately as possible!</p>","6","","1","new_stimuli/mp3/melody_v5-_v3_3_^4+_v3_.mp3"
"","471.55500005465","html-button-response","126","687420","0.0-17.0-2.1","4559","","<p>Which tone was played second after the cadence?</p><p>Please respond as quickly and as accurately as possible!</p>","4","","2","new_stimuli/mp3/melody_v5-_v3_3_^4+_v3_.mp3"
"","201.07999991159886","html-button-response","127","687622","0.0-17.0-3.1","4559","","<p>Which tone was played third after the cadence?</p><p>Please respond as quickly and as accurately as possible!</p>","4","","3","new_stimuli/mp3/melody_v5-_v3_3_^4+_v3_.mp3"
"","887.9700000397861","html-button-response","128","688511","0.0-17.0-4.1","4559","","<p>Which tone was played fourth after the cadence?</p><p>Please respond as quickly and as accurately as possible!</p>","6","","4","new_stimuli/mp3/melody_v5-_v3_3_^4+_v3_.mp3"
"","582.4800000991672","html-button-response","129","689095","0.0-17.0-5.1","4559","","<p>Which tone was played fifth after the cadence?</p><p>Please respond as quickly and as accurately as possible!</p>","4","","5","new_stimuli/mp3/melody_v5-_v3_3_^4+_v3_.mp3"
"","null","audio-keyboard-response","130","700039","0.0-17.0-0.2","4559","","new_stimuli/mp3/melody_^5_^6_v5_v4_v3_buffer.mp3","","null","",""
"","1069.855000008829","html-button-response","131","701111","0.0-17.0-1.2","4559","","<p>Which tone was played first after the cadence?</p><p>Please respond as quickly and as accurately as possible!</p>","7","","1","new_stimuli/mp3/melody_^5_^6_v5_v4_v3_buffer.mp3"
"","752.3450000444427","html-button-response","132","701864","0.0-17.0-2.2","4559","","<p>Which tone was played second after the cadence?</p><p>Please respond as quickly and as accurately as possible!</p>","9","","2","new_stimuli/mp3/melody_^5_^6_v5_v4_v3_buffer.mp3"
"","505.03000000026077","html-button-response","133","702371","0.0-17.0-3.2","4559","","<p>Which tone was played third after the cadence?</p><p>Please respond as quickly and as accurately as possible!</p>","7","","3","new_stimuli/mp3/melody_^5_^6_v5_v4_v3_buffer.mp3"
"","504.9049999797717","html-button-response","134","702877","0.0-17.0-4.2","4559","","<p>Which tone was played fourth after the cadence?</p><p>Please respond as quickly and as accurately as possible!</p>","5","","4","new_stimuli/mp3/melody_^5_^6_v5_v4_v3_buffer.mp3"
"","437.7400000812486","html-button-response","135","703316","0.0-17.0-5.2","4559","","<p>Which tone was played fifth after the cadence?</p><p>Please respond as quickly and as accurately as possible!</p>","4","","5","new_stimuli/mp3/melody_^5_^6_v5_v4_v3_buffer.mp3"
"","null","audio-keyboard-response","136","713896","0.0-17.0-0.3","4559","","new_stimuli/mp3/melody_v5_v4_v3_v2_v1_.mp3","","null","",""
"","1050.844999961555","html-button-response","137","714948","0.0-17.0-1.3","4559","","<p>Which tone was played first after the cadence?</p><p>Please respond as quickly and as accurately as possible!</p>","7","","1","new_stimuli/mp3/melody_v5_v4_v3_v2_v1_.mp3"
"","504.9149999395013","html-button-response","138","715454","0.0-17.0-2.3","4559","","<p>Which tone was played second after the cadence?</p><p>Please respond as quickly and as accurately as possible!</p>","5","","2","new_stimuli/mp3/melody_v5_v4_v3_v2_v1_.mp3"
"","527.7800000039861","html-button-response","139","715983","0.0-17.0-3.3","4559","","<p>Which tone was played third after the cadence?</p><p>Please respond as quickly and as accurately as possible!</p>","4","","3","new_stimuli/mp3/melody_v5_v4_v3_v2_v1_.mp3"
"","1125.069999950938","html-button-response","140","717109","0.0-17.0-4.3","4559","","<p>Which tone was played fourth after the cadence?</p><p>Please respond as quickly and as accurately as possible!</p>","2","","4","new_stimuli/mp3/melody_v5_v4_v3_v2_v1_.mp3"
"","627.500000060536","html-button-response","141","717738","0.0-17.0-5.3","4559","","<p>Which tone was played fifth after the cadence?</p><p>Please respond as quickly and as accurately as possible!</p>","0","","5","new_stimuli/mp3/melody_v5_v4_v3_v2_v1_.mp3"
"","null","audio-keyboard-response","142","728321","0.0-17.0-0.4","4559","","new_stimuli/mp3/melody_v2_2_^3_^4_v2_.mp3","","null","",""
"","890.1000000769272","html-button-response","143","729213","0.0-17.0-1.4","4559","","<p>Which tone was played first after the cadence?</p><p>Please respond as quickly and as accurately as possible!</p>","2","","1","new_stimuli/mp3/melody_v2_2_^3_^4_v2_.mp3"
"","302.5850000558421","html-button-response","144","729517","0.0-17.0-2.4","4559","","<p>Which tone was played second after the cadence?</p><p>Please respond as quickly and as accurately as possible!</p>","2","","2","new_stimuli/mp3/melody_v2_2_^3_^4_v2_.mp3"
"","617.6549999509007","html-button-response","145","730136","0.0-17.0-3.4","4559","","<p>Which tone was played third after the cadence?</p><p>Please respond as quickly and as accurately as possible!</p>","4","","3","new_stimuli/mp3/melody_v2_2_^3_^4_v2_.mp3"
"","572.2000000532717","html-button-response","146","730709","0.0-17.0-4.4","4559","","<p>Which tone was played fourth after the cadence?</p><p>Please respond as quickly and as accurately as possible!</p>","5","","4","new_stimuli/mp3/melody_v2_2_^3_^4_v2_.mp3"
"","1011.570000089705","html-button-response","147","731722","0.0-17.0-5.4","4559","","<p>Which tone was played fifth after the cadence?</p><p>Please respond as quickly and as accurately as possible!</p>","2","","5","new_stimuli/mp3/melody_v2_2_^3_^4_v2_.mp3"
"","null","audio-keyboard-response","148","742352","0.0-17.0-0.5","4559","","new_stimuli/mp3/melody_^6_v4_v3_^4_^5_.mp3","","null","",""
"","1338.385000010021","html-button-response","149","743692","0.0-17.0-1.5","4559","","<p>Which tone was played first after the cadence?</p><p>Please respond as quickly and as accurately as possible!</p>","9","","1","new_stimuli/mp3/melody_^6_v4_v3_^4_^5_.mp3"
"","1292.409999994561","html-button-response","150","744986","0.0-17.0-2.5","4559","","<p>Which tone was played second after the cadence?</p><p>Please respond as quickly and as accurately as possible!</p>","5","","2","new_stimuli/mp3/melody_^6_v4_v3_^4_^5_.mp3"
"","640.030000009574","html-button-response","151","745627","0.0-17.0-3.5","4559","","<p>Which tone was played third after the cadence?</p><p>Please respond as quickly and as accurately as possible!</p>","4","","3","new_stimuli/mp3/melody_^6_v4_v3_^4_^5_.mp3"
"","448.68999999016523","html-button-response","152","746077","0.0-17.0-4.5","4559","","<p>Which tone was played fourth after the cadence?</p><p>Please respond as quickly and as accurately as possible!</p>","5","","4","new_stimuli/mp3/melody_^6_v4_v3_^4_^5_.mp3"
"","549.7599999653175","html-button-response","153","746628","0.0-17.0-5.5","4559","","<p>Which tone was played fifth after the cadence?</p><p>Please respond as quickly and as accurately as possible!</p>","7","","5","new_stimuli/mp3/melody_^6_v4_v3_^4_^5_.mp3"
"","null","audio-keyboard-response","154","757208","0.0-17.0-0.6","4559","","new_stimuli/mp3/melody_v5_v4_v3_v2_v1 _buffer.mp3","","null","",""
"","1368.265000055544","html-button-response","155","758577","0.0-17.0-1.6","4559","","<p>Which tone was played first after the cadence?</p><p>Please respond as quickly and as accurately as possible!</p>","7","","1","new_stimuli/mp3/melody_v5_v4_v3_v2_v1 _buffer.mp3"
"","863.6100000003353","html-button-response","156","759442","0.0-17.0-2.6","4559","","<p>Which tone was played second after the cadence?</p><p>Please respond as quickly and as accurately as possible!</p>","5","","2","new_stimuli/mp3/melody_v5_v4_v3_v2_v1 _buffer.mp3"
"","447.8250000393018","html-button-response","157","759892","0.0-17.0-3.6","4559","","<p>Which tone was played third after the cadence?</p><p>Please respond as quickly and as accurately as possible!</p>","4","","3","new_stimuli/mp3/melody_v5_v4_v3_v2_v1 _buffer.mp3"
"","527.4849999696016","html-button-response","158","760420","0.0-17.0-4.6","4559","","<p>Which tone was played fourth after the cadence?</p><p>Please respond as quickly and as accurately as possible!</p>","2","","4","new_stimuli/mp3/melody_v5_v4_v3_v2_v1 _buffer.mp3"
"","786.699999938719","html-button-response","159","761208","0.0-17.0-5.6","4559","","<p>Which tone was played fifth after the cadence?</p><p>Please respond as quickly and as accurately as possible!</p>","0","","5","new_stimuli/mp3/melody_v5_v4_v3_v2_v1 _buffer.mp3"
"","null","audio-keyboard-response","160","771917","0.0-17.0-0.7","4559","","new_stimuli/mp3/melody_^6_v5_v4_v3_v2_buffer.mp3","","null","",""
"","966.6349999606609","html-button-response","161","772886","0.0-17.0-1.7","4559","","<p>Which tone was played first after the cadence?</p><p>Please respond as quickly and as accurately as possible!</p>","9","","1","new_stimuli/mp3/melody_^6_v5_v4_v3_v2_buffer.mp3"
"","730.2350000245497","html-button-response","162","773617","0.0-17.0-2.7","4559","","<p>Which tone was played second after the cadence?</p><p>Please respond as quickly and as accurately as possible!</p>","7","","2","new_stimuli/mp3/melody_^6_v5_v4_v3_v2_buffer.mp3"
"","572.2999999998137","html-button-response","163","774190","0.0-17.0-3.7","4559","","<p>Which tone was played third after the cadence?</p><p>Please respond as quickly and as accurately as possible!</p>","5","","3","new_stimuli/mp3/melody_^6_v5_v4_v3_v2_buffer.mp3"
"","527.790000080131","html-button-response","164","774719","0.0-17.0-4.7","4559","","<p>Which tone was played fourth after the cadence?</p><p>Please respond as quickly and as accurately as possible!</p>","4","","4","new_stimuli/mp3/melody_^6_v5_v4_v3_v2_buffer.mp3"
"","527.5600000750273","html-button-response","165","775248","0.0-17.0-5.7","4559","","<p>Which tone was played fifth after the cadence?</p><p>Please respond as quickly and as accurately as possible!</p>","2","","5","new_stimuli/mp3/melody_^6_v5_v4_v3_v2_buffer.mp3"
"[{""page_index"":0,""viewing_time"":1843.9999999245629},{""page_index"":1,""viewing_time"":1046.1650000652298},{""page_index"":2,""viewing_time"":1124.9550000065938}]","4015.3449999634176","instructions","166","779264","0.0-18.0","4559","","","","","",""
"","null","audio-keyboard-response","167","790836","0.0-19.0-0.0","4559","","new_stimuli/mp3/melody_^5_^6_v5_v4_v3_v2_v1_buffer.mp3","","null","",""
"","903.0600000405684","html-button-response","168","791741","0.0-19.0-1.0","4559","","<p>Which tone was played first after the cadence?</p><p>Please respond as quickly and as accurately as possible!</p>","7","","1","new_stimuli/mp3/melody_^5_^6_v5_v4_v3_v2_v1_buffer.mp3"
"","672.4149999208748","html-button-response","169","792416","0.0-19.0-2.0","4559","","<p>Which tone was played second after the cadence?</p><p>Please respond as quickly and as accurately as possible!</p>","9","","2","new_stimuli/mp3/melody_^5_^6_v5_v4_v3_v2_v1_buffer.mp3"
"","707.9150000354275","html-button-response","170","793125","0.0-19.0-3.0","4559","","<p>Which tone was played third after the cadence?</p><p>Please respond as quickly and as accurately as possible!</p>","7","","3","new_stimuli/mp3/melody_^5_^6_v5_v4_v3_v2_v1_buffer.mp3"
"","572.624999913387","html-button-response","171","793699","0.0-19.0-4.0","4559","","<p>Which tone was played fourth after the cadence?</p><p>Please respond as quickly and as accurately as possible!</p>","5","","4","new_stimuli/mp3/melody_^5_^6_v5_v4_v3_v2_v1_buffer.mp3"
"","448.5000000568107","html-button-response","172","794148","0.0-19.0-5.0","4559","","<p>Which tone was played fifth after the cadence?</p><p>Please respond as quickly and as accurately as possible!</p>","4","","5","new_stimuli/mp3/melody_^5_^6_v5_v4_v3_v2_v1_buffer.mp3"
"","527.559999958612","html-button-response","173","794677","0.0-19.0-6.0","4559","","<p>Which tone was played sixth after the cadence?</p><p>Please respond as quickly and as accurately as possible!</p>","2","","6","new_stimuli/mp3/melody_^5_^6_v5_v4_v3_v2_v1_buffer.mp3"
"","673.8349999068305","html-button-response","174","795352","0.0-19.0-7.0","4559","","<p>Which tone was played seventh after the cadence?</p><p>Please respond as quickly and as accurately as possible!</p>","0","","7","new_stimuli/mp3/melody_^5_^6_v5_v4_v3_v2_v1_buffer.mp3"
"","null","audio-keyboard-response","175","807056","0.0-19.0-0.1","4559","","new_stimuli/mp3/melody_^4_^5_^6_v5_v4_v3_v2_.mp3","","null","",""
"","883.6949999677017","html-button-response","176","807941","0.0-19.0-1.1","4559","","<p>Which tone was played first after the cadence?</p><p>Please respond as quickly and as accurately as possible!</p>","5","","1","new_stimuli/mp3/melody_^4_^5_^6_v5_v4_v3_v2_.mp3"
"","595.229999977164","html-button-response","177","808537","0.0-19.0-2.1","4559","","<p>Which tone was played second after the cadence?</p><p>Please respond as quickly and as accurately as possible!</p>","7","","2","new_stimuli/mp3/melody_^4_^5_^6_v5_v4_v3_v2_.mp3"
"","775.9799999184906","html-button-response","178","809314","0.0-19.0-3.1","4559","","<p>Which tone was played third after the cadence?</p><p>Please respond as quickly and as accurately as possible!</p>","9","","3","new_stimuli/mp3/melody_^4_^5_^6_v5_v4_v3_v2_.mp3"
"","728.899999987334","html-button-response","179","810044","0.0-19.0-4.1","4559","","<p>Which tone was played fourth after the cadence?</p><p>Please respond as quickly and as accurately as possible!</p>","7","","4","new_stimuli/mp3/melody_^4_^5_^6_v5_v4_v3_v2_.mp3"
"","808.5399999981746","html-button-response","180","810854","0.0-19.0-5.1","4559","","<p>Which tone was played fifth after the cadence?</p><p>Please respond as quickly and as accurately as possible!</p>","5","","5","new_stimuli/mp3/melody_^4_^5_^6_v5_v4_v3_v2_.mp3"
"","482.649999903515","html-button-response","181","811338","0.0-19.0-6.1","4559","","<p>Which tone was played sixth after the cadence?</p><p>Please respond as quickly and as accurately as possible!</p>","4","","6","new_stimuli/mp3/melody_^4_^5_^6_v5_v4_v3_v2_.mp3"
"","730.0449999747798","html-button-response","182","812069","0.0-19.0-7.1","4559","","<p>Which tone was played seventh after the cadence?</p><p>Please respond as quickly and as accurately as possible!</p>","2","","7","new_stimuli/mp3/melody_^4_^5_^6_v5_v4_v3_v2_.mp3"
"","null","audio-keyboard-response","183","823716","0.0-19.0-0.2","4559","","new_stimuli/mp3/melody_^6_v5+_v4_^5+_v3_v1_v7-_.mp3","","null","",""
"","3775.6749999243766","html-button-response","184","827493","0.0-19.0-1.2","4559","","<p>Which tone was played first after the cadence?</p><p>Please respond as quickly and as accurately as possible!</p>","9","","1","new_stimuli/mp3/melody_^6_v5+_v4_^5+_v3_v1_v7-_.mp3"
"","1753.8400000194088","html-button-response","185","829248","0.0-19.0-2.2","4559","","<p>Which tone was played second after the cadence?</p><p>Please respond as quickly and as accurately as possible!</p>","8","","2","new_stimuli/mp3/melody_^6_v5+_v4_^5+_v3_v1_v7-_.mp3"
"","1719.8549999156967","html-button-response","186","830969","0.0-19.0-3.2","4559","","<p>Which tone was played third after the cadence?</p><p>Please respond as quickly and as accurately as possible!</p>","5","","3","new_stimuli/mp3/melody_^6_v5+_v4_^5+_v3_v1_v7-_.mp3"
"","2451.2449998874217","html-button-response","187","833422","0.0-19.0-4.2","4559","","<p>Which tone was played fourth after the cadence?</p><p>Please respond as quickly and as accurately as possible!</p>","8","","4","new_stimuli/mp3/melody_^6_v5+_v4_^5+_v3_v1_v7-_.mp3"
"","1348.4650000464171","html-button-response","188","834772","0.0-19.0-5.2","4559","","<p>Which tone was played fifth after the cadence?</p><p>Please respond as quickly and as accurately as possible!</p>","5","","5","new_stimuli/mp3/melody_^6_v5+_v4_^5+_v3_v1_v7-_.mp3"
"","471.4749999111518","html-button-response","189","835245","0.0-19.0-6.2","4559","","<p>Which tone was played sixth after the cadence?</p><p>Please respond as quickly and as accurately as possible!</p>","4","","6","new_stimuli/mp3/melody_^6_v5+_v4_^5+_v3_v1_v7-_.mp3"
"","786.0699999146163","html-button-response","190","836032","0.0-19.0-7.2","4559","","<p>Which tone was played seventh after the cadence?</p><p>Please respond as quickly and as accurately as possible!</p>","10","","7","new_stimuli/mp3/melody_^6_v5+_v4_^5+_v3_v1_v7-_.mp3"
"","null","audio-keyboard-response","191","847732","0.0-19.0-0.3","4559","","new_stimuli/mp3/melody_v1_^2_v1_v7_^1_^3_v2_.mp3","","null","",""
"","1067.8049999987707","html-button-response","192","848801","0.0-19.0-1.3","4559","","<p>Which tone was played first after the cadence?</p><p>Please respond as quickly and as accurately as possible!</p>","0","","1","new_stimuli/mp3/melody_v1_^2_v1_v7_^1_^3_v2_.mp3"
"","902.170000015758","html-button-response","193","849704","0.0-19.0-2.3","4559","","<p>Which tone was played second after the cadence?</p><p>Please respond as quickly and as accurately as possible!</p>","11","","2","new_stimuli/mp3/melody_v1_^2_v1_v7_^1_^3_v2_.mp3"
"","1602.930000051856","html-button-response","194","851309","0.0-19.0-3.3","4559","","<p>Which tone was played third after the cadence?</p><p>Please respond as quickly and as accurately as possible!</p>","0","","3","new_stimuli/mp3/melody_v1_^2_v1_v7_^1_^3_v2_.mp3"
"","595.3599999193102","html-button-response","195","851906","0.0-19.0-4.3","4559","","<p>Which tone was played fourth after the cadence?</p><p>Please respond as quickly and as accurately as possible!</p>","2","","4","new_stimuli/mp3/melody_v1_^2_v1_v7_^1_^3_v2_.mp3"
"","707.5999999651685","html-button-response","196","852615","0.0-19.0-5.3","4559","","<p>Which tone was played fifth after the cadence?</p><p>Please respond as quickly and as accurately as possible!</p>","0","","5","new_stimuli/mp3/melody_v1_^2_v1_v7_^1_^3_v2_.mp3"
"","932.1599999675527","html-button-response","197","853548","0.0-19.0-6.3","4559","","<p>Which tone was played sixth after the cadence?</p><p>Please respond as quickly and as accurately as possible!</p>","4","","6","new_stimuli/mp3/melody_v1_^2_v1_v7_^1_^3_v2_.mp3"
"","493.7250000657514","html-button-response","198","854043","0.0-19.0-7.3","4559","","<p>Which tone was played seventh after the cadence?</p><p>Please respond as quickly and as accurately as possible!</p>","2","","7","new_stimuli/mp3/melody_v1_^2_v1_v7_^1_^3_v2_.mp3"
"","null","audio-keyboard-response","199","865745","0.0-19.0-0.4","4559","","new_stimuli/mp3/melody_^1_v7_v6_v5_v4_v3_v2_buffer.mp3","","null","",""
"","986.9000000180677","html-button-response","200","866733","0.0-19.0-1.4","4559","","<p>Which tone was played first after the cadence?</p><p>Please respond as quickly and as accurately as possible!</p>","12","","1","new_stimuli/mp3/melody_^1_v7_v6_v5_v4_v3_v2_buffer.mp3"
"","460.6750000966713","html-button-response","201","867195","0.0-19.0-2.4","4559","","<p>Which tone was played second after the cadence?</p><p>Please respond as quickly and as accurately as possible!</p>","11","","2","new_stimuli/mp3/melody_^1_v7_v6_v5_v4_v3_v2_buffer.mp3"
"","516.6600000811741","html-button-response","202","867713","0.0-19.0-3.4","4559","","<p>Which tone was played third after the cadence?</p><p>Please respond as quickly and as accurately as possible!</p>","9","","3","new_stimuli/mp3/melody_^1_v7_v6_v5_v4_v3_v2_buffer.mp3"
"","683.7200000882149","html-button-response","203","868398","0.0-19.0-4.4","4559","","<p>Which tone was played fourth after the cadence?</p><p>Please respond as quickly and as accurately as possible!</p>","7","","4","new_stimuli/mp3/melody_^1_v7_v6_v5_v4_v3_v2_buffer.mp3"
"","1066.5300000691786","html-button-response","204","869467","0.0-19.0-5.4","4559","","<p>Which tone was played fifth after the cadence?</p><p>Please respond as quickly and as accurately as possible!</p>","5","","5","new_stimuli/mp3/melody_^1_v7_v6_v5_v4_v3_v2_buffer.mp3"
"","595.1650000642985","html-button-response","205","870063","0.0-19.0-6.4","4559","","<p>Which tone was played sixth after the cadence?</p><p>Please respond as quickly and as accurately as possible!</p>","4","","6","new_stimuli/mp3/melody_^1_v7_v6_v5_v4_v3_v2_buffer.mp3"
"","606.2300000339746","html-button-response","206","870671","0.0-19.0-7.4","4559","","<p>Which tone was played seventh after the cadence?</p><p>Please respond as quickly and as accurately as possible!</p>","2","","7","new_stimuli/mp3/melody_^1_v7_v6_v5_v4_v3_v2_buffer.mp3"
"","null","audio-keyboard-response","207","882632","0.0-19.0-0.5","4559","","new_stimuli/mp3/melody_1_^3_v1_^5_v3_v2_^3_.mp3","","null","",""
"","1661.599999992177","html-button-response","208","884294","0.0-19.0-1.5","4559","","<p>Which tone was played first after the cadence?</p><p>Please respond as quickly and as accurately as possible!</p>","0","","1","new_stimuli/mp3/melody_1_^3_v1_^5_v3_v2_^3_.mp3"
"","752.5450000539422","html-button-response","209","885048","0.0-19.0-2.5","4559","","<p>Which tone was played second after the cadence?</p><p>Please respond as quickly and as accurately as possible!</p>","4","","2","new_stimuli/mp3/melody_1_^3_v1_^5_v3_v2_^3_.mp3"
"","853.9800000144169","html-button-response","210","885903","0.0-19.0-3.5","4559","","<p>Which tone was played third after the cadence?</p><p>Please respond as quickly and as accurately as possible!</p>","0","","3","new_stimuli/mp3/melody_1_^3_v1_^5_v3_v2_^3_.mp3"
"","1258.9900000020862","html-button-response","211","887163","0.0-19.0-4.5","4559","","<p>Which tone was played fourth after the cadence?</p><p>Please respond as quickly and as accurately as possible!</p>","7","","4","new_stimuli/mp3/melody_1_^3_v1_^5_v3_v2_^3_.mp3"
"","966.2950000492856","html-button-response","212","888131","0.0-19.0-5.5","4559","","<p>Which tone was played fifth after the cadence?</p><p>Please respond as quickly and as accurately as possible!</p>","4","","5","new_stimuli/mp3/melody_1_^3_v1_^5_v3_v2_^3_.mp3"
"","482.60499991010875","html-button-response","213","888615","0.0-19.0-6.5","4559","","<p>Which tone was played sixth after the cadence?</p><p>Please respond as quickly and as accurately as possible!</p>","2","","6","new_stimuli/mp3/melody_1_^3_v1_^5_v3_v2_^3_.mp3"
"","696.2099999655038","html-button-response","214","889312","0.0-19.0-7.5","4559","","<p>Which tone was played seventh after the cadence?</p><p>Please respond as quickly and as accurately as possible!</p>","4","","7","new_stimuli/mp3/melody_1_^3_v1_^5_v3_v2_^3_.mp3"
"","null","audio-keyboard-response","215","900987","0.0-19.0-0.6","4559","","new_stimuli/mp3/melody_^4_v6-_v5-_^6-_^4_v2-_2-_.mp3","","null","",""
"","5603.140000021085","html-button-response","216","906592","0.0-19.0-1.6","4559","","<p>Which tone was played first after the cadence?</p><p>Please respond as quickly and as accurately as possible!</p>","5","","1","new_stimuli/mp3/melody_^4_v6-_v5-_^6-_^4_v2-_2-_.mp3"
"","1258.6400000145659","html-button-response","217","907852","0.0-19.0-2.6","4559","","<p>Which tone was played second after the cadence?</p><p>Please respond as quickly and as accurately as possible!</p>","8","","2","new_stimuli/mp3/melody_^4_v6-_v5-_^6-_^4_v2-_2-_.mp3"
"","561.3200000952929","html-button-response","218","908415","0.0-19.0-3.6","4559","","<p>Which tone was played third after the cadence?</p><p>Please respond as quickly and as accurately as possible!</p>","7","","3","new_stimuli/mp3/melody_^4_v6-_v5-_^6-_^4_v2-_2-_.mp3"
"","448.7300000619143","html-button-response","219","908865","0.0-19.0-4.6","4559","","<p>Which tone was played fourth after the cadence?</p><p>Please respond as quickly and as accurately as possible!</p>","8","","4","new_stimuli/mp3/melody_^4_v6-_v5-_^6-_^4_v2-_2-_.mp3"
"","3508.8299999479204","html-button-response","220","912375","0.0-19.0-5.6","4559","","<p>Which tone was played fifth after the cadence?</p><p>Please respond as quickly and as accurately as possible!</p>","5","","5","new_stimuli/mp3/melody_^4_v6-_v5-_^6-_^4_v2-_2-_.mp3"
"","1078.7400000263005","html-button-response","221","913454","0.0-19.0-6.6","4559","","<p>Which tone was played sixth after the cadence?</p><p>Please respond as quickly and as accurately as possible!</p>","0","","6","new_stimuli/mp3/melody_^4_v6-_v5-_^6-_^4_v2-_2-_.mp3"
"","212.64000004157424","html-button-response","222","913668","0.0-19.0-7.6","4559","","<p>Which tone was played seventh after the cadence?</p><p>Please respond as quickly and as accurately as possible!</p>","0","","7","new_stimuli/mp3/melody_^4_v6-_v5-_^6-_^4_v2-_2-_.mp3"
"[{""page_index"":0,""viewing_time"":1675.4149999469519},{""page_index"":1,""viewing_time"":922.2150000277907},{""page_index"":2,""viewing_time"":1023.9549999823794}]","3621.824999921955","instructions","223","917291","0.0-20.0","4559","","","","","",""
"","null","audio-keyboard-response","224","930245","0.0-21.0-0.0","4559","","new_stimuli/mp3/melody_^5_^6_v5_v4_v3_v2_v1_^2_^3_buffer.mp3","","null","",""
"","1356.7399999592453","html-button-response","225","931603","0.0-21.0-1.0","4559","","<p>Which tone was played first after the cadence?</p><p>Please respond as quickly and as accurately as possible!</p>","7","","1","new_stimuli/mp3/melody_^5_^6_v5_v4_v3_v2_v1_^2_^3_buffer.mp3"
"","761.8350000120699","html-button-response","226","932367","0.0-21.0-2.0","4559","","<p>Which tone was played second after the cadence?</p><p>Please respond as quickly and as accurately as possible!</p>","9","","2","new_stimuli/mp3/melody_^5_^6_v5_v4_v3_v2_v1_^2_^3_buffer.mp3"
"","605.6300000054762","html-button-response","227","932974","0.0-21.0-3.0","4559","","<p>Which tone was played third after the cadence?</p><p>Please respond as quickly and as accurately as possible!</p>","7","","3","new_stimuli/mp3/melody_^5_^6_v5_v4_v3_v2_v1_^2_^3_buffer.mp3"
"","628.3700000494719","html-button-response","228","933603","0.0-21.0-4.0","4559","","<p>Which tone was played fourth after the cadence?</p><p>Please respond as quickly and as accurately as possible!</p>","5","","4","new_stimuli/mp3/melody_^5_^6_v5_v4_v3_v2_v1_^2_^3_buffer.mp3"
"","674.0549999522045","html-button-response","229","934278","0.0-21.0-5.0","4559","","<p>Which tone was played fifth after the cadence?</p><p>Please respond as quickly and as accurately as possible!</p>","4","","5","new_stimuli/mp3/melody_^5_^6_v5_v4_v3_v2_v1_^2_^3_buffer.mp3"
"","876.3299999991432","html-button-response","230","935156","0.0-21.0-6.0","4559","","<p>Which tone was played sixth after the cadence?</p><p>Please respond as quickly and as accurately as possible!</p>","2","","6","new_stimuli/mp3/melody_^5_^6_v5_v4_v3_v2_v1_^2_^3_buffer.mp3"
"","583.6500000441447","html-button-response","231","935741","0.0-21.0-7.0","4559","","<p>Which tone was played seventh after the cadence?</p><p>Please respond as quickly and as accurately as possible!</p>","0","","7","new_stimuli/mp3/melody_^5_^6_v5_v4_v3_v2_v1_^2_^3_buffer.mp3"
"","707.7249999856576","html-button-response","232","936450","0.0-21.0-8.0","4559","","<p>Which tone was played eight after the cadence?</p><p>Please respond as quickly and as accurately as possible!</p>","2","","8","new_stimuli/mp3/melody_^5_^6_v5_v4_v3_v2_v1_^2_^3_buffer.mp3"
"","617.450000019744","html-button-response","233","937068","0.0-21.0-9.0","4559","","<p>Which tone was played nineth after the cadence?</p><p>Please respond as quickly and as accurately as possible!</p>","4","","9","new_stimuli/mp3/melody_^5_^6_v5_v4_v3_v2_v1_^2_^3_buffer.mp3"
"","null","audio-keyboard-response","234","949999","0.0-21.0-0.1","4559","","new_stimuli/mp3/melody_^2_^4_v3_v2_v1_v3_v2+_^3_^5+_.mp3","","null","",""
"","1479.2900000466034","html-button-response","235","951480","0.0-21.0-1.1","4559","","<p>Which tone was played first after the cadence?</p><p>Please respond as quickly and as accurately as possible!</p>","2","","1","new_stimuli/mp3/melody_^2_^4_v3_v2_v1_v3_v2+_^3_^5+_.mp3"
"","977.0649999845773","html-button-response","236","952458","0.0-21.0-2.1","4559","","<p>Which tone was played second after the cadence?</p><p>Please respond as quickly and as accurately as possible!</p>","5","","2","new_stimuli/mp3/melody_^2_^4_v3_v2_v1_v3_v2+_^3_^5+_.mp3"
"","786.4950000075623","html-button-response","237","953246","0.0-21.0-3.1","4559","","<p>Which tone was played third after the cadence?</p><p>Please respond as quickly and as accurately as possible!</p>","4","","3","new_stimuli/mp3/melody_^2_^4_v3_v2_v1_v3_v2+_^3_^5+_.mp3"
"","1032.850000075996","html-button-response","238","954281","0.0-21.0-4.1","4559","","<p>Which tone was played fourth after the cadence?</p><p>Please respond as quickly and as accurately as possible!</p>","0","","4","new_stimuli/mp3/melody_^2_^4_v3_v2_v1_v3_v2+_^3_^5+_.mp3"
"","1967.860000091605","html-button-response","239","956250","0.0-21.0-5.1","4559","","<p>Which tone was played fifth after the cadence?</p><p>Please respond as quickly and as accurately as possible!</p>","2","","5","new_stimuli/mp3/melody_^2_^4_v3_v2_v1_v3_v2+_^3_^5+_.mp3"
"","1224.9750000191852","html-button-response","240","957476","0.0-21.0-6.1","4559","","<p>Which tone was played sixth after the cadence?</p><p>Please respond as quickly and as accurately as possible!</p>","0","","6","new_stimuli/mp3/melody_^2_^4_v3_v2_v1_v3_v2+_^3_^5+_.mp3"
"","2305.2649999735877","html-button-response","241","959782","0.0-21.0-7.1","4559","","<p>Which tone was played seventh after the cadence?</p><p>Please respond as quickly and as accurately as possible!</p>","4","","7","new_stimuli/mp3/melody_^2_^4_v3_v2_v1_v3_v2+_^3_^5+_.mp3"
"","966.2200000602752","html-button-response","242","960750","0.0-21.0-8.1","4559","","<p>Which tone was played eight after the cadence?</p><p>Please respond as quickly and as accurately as possible!</p>","7","","8","new_stimuli/mp3/melody_^2_^4_v3_v2_v1_v3_v2+_^3_^5+_.mp3"
"","437.3149999883026","html-button-response","243","961188","0.0-21.0-9.1","4559","","<p>Which tone was played nineth after the cadence?</p><p>Please respond as quickly and as accurately as possible!</p>","8","","9","new_stimuli/mp3/melody_^2_^4_v3_v2_v1_v3_v2+_^3_^5+_.mp3"
"","null","audio-keyboard-response","244","973881","0.0-21.0-0.2","4559","","new_stimuli/mp3/melody_^2_^3_^4_^5_^6_v5_v4_v3_v2_buffer.mp3","","null","",""
"","1312.0900000212714","html-button-response","245","975195","0.0-21.0-1.2","4559","","<p>Which tone was played first after the cadence?</p><p>Please respond as quickly and as accurately as possible!</p>","2","","1","new_stimuli/mp3/melody_^2_^3_^4_^5_^6_v5_v4_v3_v2_buffer.mp3"
"","730.1750000333413","html-button-response","246","975926","0.0-21.0-2.2","4559","","<p>Which tone was played second after the cadence?</p><p>Please respond as quickly and as accurately as possible!</p>","4","","2","new_stimuli/mp3/melody_^2_^3_^4_^5_^6_v5_v4_v3_v2_buffer.mp3"
"","504.97999996878207","html-button-response","247","976432","0.0-21.0-3.2","4559","","<p>Which tone was played third after the cadence?</p><p>Please respond as quickly and as accurately as possible!</p>","5","","3","new_stimuli/mp3/melody_^2_^3_^4_^5_^6_v5_v4_v3_v2_buffer.mp3"
"","549.8049999587238","html-button-response","248","976983","0.0-21.0-4.2","4559","","<p>Which tone was played fourth after the cadence?</p><p>Please respond as quickly and as accurately as possible!</p>","7","","4","new_stimuli/mp3/melody_^2_^3_^4_^5_^6_v5_v4_v3_v2_buffer.mp3"
"","696.5649999910966","html-button-response","249","977681","0.0-21.0-5.2","4559","","<p>Which tone was played fifth after the cadence?</p><p>Please respond as quickly and as accurately as possible!</p>","9","","5","new_stimuli/mp3/melody_^2_^3_^4_^5_^6_v5_v4_v3_v2_buffer.mp3"
"","685.0600000470877","html-button-response","250","978367","0.0-21.0-6.2","4559","","<p>Which tone was played sixth after the cadence?</p><p>Please respond as quickly and as accurately as possible!</p>","7","","6","new_stimuli/mp3/melody_^2_^3_^4_^5_^6_v5_v4_v3_v2_buffer.mp3"
"","582.5000000186265","html-button-response","251","978951","0.0-21.0-7.2","4559","","<p>Which tone was played seventh after the cadence?</p><p>Please respond as quickly and as accurately as possible!</p>","5","","7","new_stimuli/mp3/melody_^2_^3_^4_^5_^6_v5_v4_v3_v2_buffer.mp3"
"","573.7900000531226","html-button-response","252","979526","0.0-21.0-8.2","4559","","<p>Which tone was played eight after the cadence?</p><p>Please respond as quickly and as accurately as possible!</p>","4","","8","new_stimuli/mp3/melody_^2_^3_^4_^5_^6_v5_v4_v3_v2_buffer.mp3"
"","595.5150000518188","html-button-response","253","980122","0.0-21.0-9.2","4559","","<p>Which tone was played nineth after the cadence?</p><p>Please respond as quickly and as accurately as possible!</p>","2","","9","new_stimuli/mp3/melody_^2_^3_^4_^5_^6_v5_v4_v3_v2_buffer.mp3"
"","null","audio-keyboard-response","254","992766","0.0-21.0-0.3","4559","","new_stimuli/mp3/melody_v7_v6_v5_^6_v5_v4_^5_^6_v5_.mp3","","null","",""
"","1113.9049999183044","html-button-response","255","993881","0.0-21.0-1.3","4559","","<p>Which tone was played first after the cadence?</p><p>Please respond as quickly and as accurately as possible!</p>","11","","1","new_stimuli/mp3/melody_v7_v6_v5_^6_v5_v4_^5_^6_v5_.mp3"
"","572.3350000334904","html-button-response","256","994455","0.0-21.0-2.3","4559","","<p>Which tone was played second after the cadence?</p><p>Please respond as quickly and as accurately as possible!</p>","9","","2","new_stimuli/mp3/melody_v7_v6_v5_^6_v5_v4_^5_^6_v5_.mp3"
"","865.044999984093","html-button-response","257","995321","0.0-21.0-3.3","4559","","<p>Which tone was played third after the cadence?</p><p>Please respond as quickly and as accurately as possible!</p>","7","","3","new_stimuli/mp3/melody_v7_v6_v5_^6_v5_v4_^5_^6_v5_.mp3"
"","741.3100000703707","html-button-response","258","996063","0.0-21.0-4.3","4559","","<p>Which tone was played fourth after the cadence?</p><p>Please respond as quickly and as accurately as possible!</p>","9","","4","new_stimuli/mp3/melody_v7_v6_v5_^6_v5_v4_^5_^6_v5_.mp3"
"","606.3500000163913","html-button-response","259","996671","0.0-21.0-5.3","4559","","<p>Which tone was played fifth after the cadence?</p><p>Please respond as quickly and as accurately as possible!</p>","7","","5","new_stimuli/mp3/melody_v7_v6_v5_^6_v5_v4_^5_^6_v5_.mp3"
"","526.8950000172481","html-button-response","260","997200","0.0-21.0-6.3","4559","","<p>Which tone was played sixth after the cadence?</p><p>Please respond as quickly and as accurately as possible!</p>","5","","6","new_stimuli/mp3/melody_v7_v6_v5_^6_v5_v4_^5_^6_v5_.mp3"
"","696.3299999479204","html-button-response","261","997897","0.0-21.0-7.3","4559","","<p>Which tone was played seventh after the cadence?</p><p>Please respond as quickly and as accurately as possible!</p>","7","","7","new_stimuli/mp3/melody_v7_v6_v5_^6_v5_v4_^5_^6_v5_.mp3"
"","707.3450000025332","html-button-response","262","998606","0.0-21.0-8.3","4559","","<p>Which tone was played eight after the cadence?</p><p>Please respond as quickly and as accurately as possible!</p>","9","","8","new_stimuli/mp3/melody_v7_v6_v5_^6_v5_v4_^5_^6_v5_.mp3"
"","572.2949999617413","html-button-response","263","999180","0.0-21.0-9.3","4559","","<p>Which tone was played nineth after the cadence?</p><p>Please respond as quickly and as accurately as possible!</p>","7","","9","new_stimuli/mp3/melody_v7_v6_v5_^6_v5_v4_^5_^6_v5_.mp3"
"","null","audio-keyboard-response","264","1011823","0.0-21.0-0.4","4559","","new_stimuli/mp3/melody_v5_v4_v6+_^7_^3+_v3_v2_v5_^4_.mp3","","null","",""
"","4545.094999950379","html-button-response","265","1016370","0.0-21.0-1.4","4559","","<p>Which tone was played first after the cadence?</p><p>Please respond as quickly and as accurately as possible!</p>","7","","1","new_stimuli/mp3/melody_v5_v4_v6+_^7_^3+_v3_v2_v5_^4_.mp3"
"","605.8749998919666","html-button-response","266","1016977","0.0-21.0-2.4","4559","","<p>Which tone was played second after the cadence?</p><p>Please respond as quickly and as accurately as possible!</p>","6","","2","new_stimuli/mp3/melody_v5_v4_v6+_^7_^3+_v3_v2_v5_^4_.mp3"
"","493.90000000130385","html-button-response","267","1017473","0.0-21.0-3.4","4559","","<p>Which tone was played third after the cadence?</p><p>Please respond as quickly and as accurately as possible!</p>","5","","3","new_stimuli/mp3/melody_v5_v4_v6+_^7_^3+_v3_v2_v5_^4_.mp3"
"","1348.2950000325218","html-button-response","268","1018822","0.0-21.0-4.4","4559","","<p>Which tone was played fourth after the cadence?</p><p>Please respond as quickly and as accurately as possible!</p>","9","","4","new_stimuli/mp3/melody_v5_v4_v6+_^7_^3+_v3_v2_v5_^4_.mp3"
"","875.5799999926239","html-button-response","269","1019700","0.0-21.0-5.4","4559","","<p>Which tone was played fifth after the cadence?</p><p>Please respond as quickly and as accurately as possible!</p>","4","","5","new_stimuli/mp3/melody_v5_v4_v6+_^7_^3+_v3_v2_v5_^4_.mp3"
"","1371.1600000970066","html-button-response","270","1021072","0.0-21.0-6.4","4559","","<p>Which tone was played sixth after the cadence?</p><p>Please respond as quickly and as accurately as possible!</p>","3","","6","new_stimuli/mp3/melody_v5_v4_v6+_^7_^3+_v3_v2_v5_^4_.mp3"
"","729.9549999879673","html-button-response","271","1021803","0.0-21.0-7.4","4559","","<p>Which tone was played seventh after the cadence?</p><p>Please respond as quickly and as accurately as possible!</p>","2","","7","new_stimuli/mp3/melody_v5_v4_v6+_^7_^3+_v3_v2_v5_^4_.mp3"
"","1393.7199999345466","html-button-response","272","1023198","0.0-21.0-8.4","4559","","<p>Which tone was played eight after the cadence?</p><p>Please respond as quickly and as accurately as possible!</p>","8","","8","new_stimuli/mp3/melody_v5_v4_v6+_^7_^3+_v3_v2_v5_^4_.mp3"
"","887.1800000779331","html-button-response","273","1024087","0.0-21.0-9.4","4559","","<p>Which tone was played nineth after the cadence?</p><p>Please respond as quickly and as accurately as possible!</p>","5","","9","new_stimuli/mp3/melody_v5_v4_v6+_^7_^3+_v3_v2_v5_^4_.mp3"
"","null","audio-keyboard-response","274","1036652","0.0-21.0-0.5","4559","","new_stimuli/mp3/melody_^3_^4_^5 _^6_v5_v4_v3_v2_v1_.mp3","","null","",""
"","1395.3599999658763","html-button-response","275","1038048","0.0-21.0-1.5","4559","","<p>Which tone was played first after the cadence?</p><p>Please respond as quickly and as accurately as possible!</p>","4","","1","new_stimuli/mp3/melody_^3_^4_^5 _^6_v5_v4_v3_v2_v1_.mp3"
"","617.8549999604002","html-button-response","276","1038667","0.0-21.0-2.5","4559","","<p>Which tone was played second after the cadence?</p><p>Please respond as quickly and as accurately as possible!</p>","5","","2","new_stimuli/mp3/melody_^3_^4_^5 _^6_v5_v4_v3_v2_v1_.mp3"
"","538.5750000132248","html-button-response","277","1039207","0.0-21.0-3.5","4559","","<p>Which tone was played third after the cadence?</p><p>Please respond as quickly and as accurately as possible!</p>","7","","3","new_stimuli/mp3/melody_^3_^4_^5 _^6_v5_v4_v3_v2_v1_.mp3"
"","550.3299999982119","html-button-response","278","1039759","0.0-21.0-4.5","4559","","<p>Which tone was played fourth after the cadence?</p><p>Please respond as quickly and as accurately as possible!</p>","9","","4","new_stimuli/mp3/melody_^3_^4_^5 _^6_v5_v4_v3_v2_v1_.mp3"
"","1078.4649999113753","html-button-response","279","1040838","0.0-21.0-5.5","4559","","<p>Which tone was played fifth after the cadence?</p><p>Please respond as quickly and as accurately as possible!</p>","7","","5","new_stimuli/mp3/melody_^3_^4_^5 _^6_v5_v4_v3_v2_v1_.mp3"
"","707.6149999629706","html-button-response","280","1041547","0.0-21.0-6.5","4559","","<p>Which tone was played sixth after the cadence?</p><p>Please respond as quickly and as accurately as possible!</p>","5","","6","new_stimuli/mp3/melody_^3_^4_^5 _^6_v5_v4_v3_v2_v1_.mp3"
"","809.0249999659136","html-button-response","281","1042357","0.0-21.0-7.5","4559","","<p>Which tone was played seventh after the cadence?</p><p>Please respond as quickly and as accurately as possible!</p>","4","","7","new_stimuli/mp3/melody_^3_^4_^5 _^6_v5_v4_v3_v2_v1_.mp3"
"","572.539999964647","html-button-response","282","1042931","0.0-21.0-8.5","4559","","<p>Which tone was played eight after the cadence?</p><p>Please respond as quickly and as accurately as possible!</p>","2","","8","new_stimuli/mp3/melody_^3_^4_^5 _^6_v5_v4_v3_v2_v1_.mp3"
"","752.3999999975786","html-button-response","283","1043684","0.0-21.0-9.5","4559","","<p>Which tone was played nineth after the cadence?</p><p>Please respond as quickly and as accurately as possible!</p>","0","","9","new_stimuli/mp3/melody_^3_^4_^5 _^6_v5_v4_v3_v2_v1_.mp3"
"","null","audio-keyboard-response","284","1056325","0.0-21.0-0.6","4559","","new_stimuli/mp3/melody_^3_^4_v2_v7_^1_^2_^3_3_^4_.mp3","","null","",""
"","1161.8899999884889","html-button-response","285","1057488","0.0-21.0-1.6","4559","","<p>Which tone was played first after the cadence?</p><p>Please respond as quickly and as accurately as possible!</p>","4","","1","new_stimuli/mp3/melody_^3_^4_v2_v7_^1_^2_^3_3_^4_.mp3"
"","471.2350000627339","html-button-response","286","1057961","0.0-21.0-2.6","4559","","<p>Which tone was played second after the cadence?</p><p>Please respond as quickly and as accurately as possible!</p>","5","","2","new_stimuli/mp3/melody_^3_^4_v2_v7_^1_^2_^3_3_^4_.mp3"
"","617.8049999289215","html-button-response","287","1058580","0.0-21.0-3.6","4559","","<p>Which tone was played third after the cadence?</p><p>Please respond as quickly and as accurately as possible!</p>","2","","3","new_stimuli/mp3/melody_^3_^4_v2_v7_^1_^2_^3_3_^4_.mp3"
"","944.1150000784546","html-button-response","288","1059525","0.0-21.0-4.6","4559","","<p>Which tone was played fourth after the cadence?</p><p>Please respond as quickly and as accurately as possible!</p>","11","","4","new_stimuli/mp3/melody_^3_^4_v2_v7_^1_^2_^3_3_^4_.mp3"
"","1022.4649999290705","html-button-response","289","1060548","0.0-21.0-5.6","4559","","<p>Which tone was played fifth after the cadence?</p><p>Please respond as quickly and as accurately as possible!</p>","0","","5","new_stimuli/mp3/melody_^3_^4_v2_v7_^1_^2_^3_3_^4_.mp3"
"","741.3800000213087","html-button-response","290","1061291","0.0-21.0-6.6","4559","","<p>Which tone was played sixth after the cadence?</p><p>Please respond as quickly and as accurately as possible!</p>","2","","6","new_stimuli/mp3/melody_^3_^4_v2_v7_^1_^2_^3_3_^4_.mp3"
"","775.1249999273568","html-button-response","291","1062067","0.0-21.0-7.6","4559","","<p>Which tone was played seventh after the cadence?</p><p>Please respond as quickly and as accurately as possible!</p>","4","","7","new_stimuli/mp3/melody_^3_^4_v2_v7_^1_^2_^3_3_^4_.mp3"
"","403.5950000397861","html-button-response","292","1062472","0.0-21.0-8.6","4559","","<p>Which tone was played eight after the cadence?</p><p>Please respond as quickly and as accurately as possible!</p>","4","","8","new_stimuli/mp3/melody_^3_^4_v2_v7_^1_^2_^3_3_^4_.mp3"
"","426.47499998565763","html-button-response","293","1062900","0.0-21.0-9.6","4559","","<p>Which tone was played nineth after the cadence?</p><p>Please respond as quickly and as accurately as possible!</p>","5","","9","new_stimuli/mp3/melody_^3_^4_v2_v7_^1_^2_^3_3_^4_.mp3"
"","14623.955000075512","survey-text","294","1077525","0.0-22.0","4559","{""Q0"":""just listened and clicked back""}","","","","",""
"","6130.205000052229","survey-text","295","1083656","0.0-23.0","4559","{""Q0"":""nope""}","","","","",""
"","4454.03499994427","survey-text","296","1088111","0.0-24.0","4559","{""Q0"":""no""}","","","","",""
"","4690.330000012182","survey-text","297","1092802","0.0-25.0","4559","{""Q0"":""speakers""}","","","","",""
"","3688.670000061393","survey-text","298","1096492","0.0-26.0","4559","{""Q0"":""male""}","","","","",""
"","3756.4499999862164","survey-text","299","1100250","0.0-27.0","4559","{""Q0"":""yes""}","","","","",""
"[{""page_index"":0,""viewing_time"":5264.4550000550225}]","5264.685000060126","instructions","300","1105515","0.0-28.0","4559","","","","","",""
