"view_history","rt","trial_type","trial_index","time_elapsed","internal_node_id","subject","responses","stimulus","button_pressed","key_press","response_sequence","melody"
"[{""page_index"":0,""viewing_time"":2261},{""page_index"":1,""viewing_time"":16734},{""page_index"":2,""viewing_time"":1265}]","20261","instructions","0","20265","0.0-0.0","46833","","","","","",""
"","8334","survey-text","1","28602","0.0-1.0","46833","{""Q0"":""21""}","","","","",""
"","4562","survey-text","2","33166","0.0-2.0","46833","{""Q0"":""Bachelor's""}","","","","",""
"","6327","survey-text","3","39495","0.0-3.0","46833","{""Q0"":""Moveable-Do""}","","","","",""
"","2520","survey-text","4","42015","0.0-4.0","46833","{""Q0"":""No""}","","","","",""
"","13160","survey-text","5","55176","0.0-5.0","46833","{""Q0"":""60 weeks""}","","","","",""
"","3397","survey-text","6","58575","0.0-6.0","46833","{""Q0"":""0""}","","","","",""
"[{""page_index"":0,""viewing_time"":3992},{""page_index"":1,""viewing_time"":21569},{""page_index"":2,""viewing_time"":1449}]","27010","instructions","7","85587","0.0-7.0","46833","","","","","",""
"","8877","audio-button-response","8","94469","0.0-8.0","46833","","stimuli/long/c-do.mp3","0","","",""
"","16209","audio-button-response","9","110679","0.0-9.0","46833","","stimuli/long/a-le.mp3","8","","",""
"[{""page_index"":0,""viewing_time"":4122},{""page_index"":1,""viewing_time"":13348}]","17470","instructions","10","128151","0.0-10.0","46833","","","","","",""
"","12083","audio-button-response","11","140236","0.0-11.0-0.0","46833","","stimuli/long/e-te.mp3","4","","",""
"","7583","audio-button-response","12","147821","0.0-11.0-0.1","46833","","stimuli/long/c-sol.mp3","7","","",""
"","8777","audio-button-response","13","156599","0.0-11.0-0.2","46833","","stimuli/long/e-fa.mp3","5","","",""
"","8529","audio-button-response","14","165130","0.0-11.0-0.3","46833","","stimuli/long/e-sol.mp3","7","","",""
"","8723","audio-button-response","15","173854","0.0-11.0-0.4","46833","","stimuli/long/c-re.mp3","2","","",""
"","8857","audio-button-response","16","182713","0.0-11.0-0.5","46833","","stimuli/long/a-fi.mp3","6","","",""
"","10442","audio-button-response","17","193156","0.0-11.0-0.6","46833","","stimuli/long/c-me.mp3","6","","",""
"","13502","audio-button-response","18","206660","0.0-11.0-0.7","46833","","stimuli/long/c-la.mp3","8","","",""
"","7914","audio-button-response","19","214575","0.0-11.0-0.8","46833","","stimuli/long/c-do8.mp3","12","","",""
"","8797","audio-button-response","20","223374","0.0-11.0-0.9","46833","","stimuli/long/c-fa.mp3","5","","",""
"","8233","audio-button-response","21","231610","0.0-11.0-0.10","46833","","stimuli/long/a-ra.mp3","8","","",""
"","8018","audio-button-response","22","239629","0.0-11.0-0.11","46833","","stimuli/long/c-le.mp3","8","","",""
"","8249","audio-button-response","23","247880","0.0-11.0-0.12","46833","","stimuli/long/e-la.mp3","8","","",""
"","10247","audio-button-response","24","258129","0.0-11.0-0.13","46833","","stimuli/long/a-fa.mp3","9","","",""
"","9482","audio-button-response","25","267611","0.0-11.0-0.14","46833","","stimuli/long/c-fi.mp3","5","","",""
"","7473","audio-button-response","26","275086","0.0-11.0-0.15","46833","","stimuli/long/c-mi.mp3","4","","",""
"","10236","audio-button-response","27","285324","0.0-11.0-0.16","46833","","stimuli/long/a-le.mp3","5","","",""
"","8902","audio-button-response","28","294228","0.0-11.0-0.17","46833","","stimuli/long/a-ti.mp3","11","","",""
"","10127","audio-button-response","29","304358","0.0-11.0-0.18","46833","","stimuli/long/a-me.mp3","4","","",""
"","9785","audio-button-response","30","314143","0.0-11.0-0.19","46833","","stimuli/long/a-te.mp3","9","","",""
"","11469","audio-button-response","31","325615","0.0-11.0-0.20","46833","","stimuli/long/a-sol.mp3","7","","",""
"","9699","audio-button-response","32","335315","0.0-11.0-0.21","46833","","stimuli/long/c-ra.mp3","1","","",""
"","7556","audio-button-response","33","342873","0.0-11.0-0.22","46833","","stimuli/long/a-do8.mp3","12","","",""
"","7514","audio-button-response","34","350388","0.0-11.0-0.23","46833","","stimuli/long/e-do.mp3","0","","",""
"","8128","audio-button-response","35","358519","0.0-11.0-0.24","46833","","stimuli/long/e-re.mp3","2","","",""
"","7123","audio-button-response","36","365643","0.0-11.0-0.25","46833","","stimuli/long/a-do.mp3","0","","",""
"","7725","audio-button-response","37","373370","0.0-11.0-0.26","46833","","stimuli/long/a-mi.mp3","4","","",""
"","7826","audio-button-response","38","381197","0.0-11.0-0.27","46833","","stimuli/long/e-mi.mp3","4","","",""
"","12860","audio-button-response","39","394059","0.0-11.0-0.28","46833","","stimuli/long/e-me.mp3","3","","",""
"","7547","audio-button-response","40","401608","0.0-11.0-0.29","46833","","stimuli/long/c-ti.mp3","11","","",""
"","8279","audio-button-response","41","409888","0.0-11.0-0.30","46833","","stimuli/long/e-fi.mp3","6","","",""
"","7190","audio-button-response","42","417079","0.0-11.0-0.31","46833","","stimuli/long/c-do.mp3","0","","",""
"","10124","audio-button-response","43","427203","0.0-11.0-0.32","46833","","stimuli/long/a-la.mp3","9","","",""
"","11263","audio-button-response","44","438467","0.0-11.0-0.33","46833","","stimuli/long/e-le.mp3","10","","",""
"","9656","audio-button-response","45","448125","0.0-11.0-0.34","46833","","stimuli/long/a-re.mp3","2","","",""
"","8539","audio-button-response","46","456664","0.0-11.0-0.35","46833","","stimuli/long/e-ra.mp3","8","","",""
"","8298","audio-button-response","47","464965","0.0-11.0-0.36","46833","","stimuli/long/e-ti.mp3","11","","",""
"","7284","audio-button-response","48","472250","0.0-11.0-0.37","46833","","stimuli/long/e-do8.mp3","12","","",""
"[{""page_index"":0,""viewing_time"":7543},{""page_index"":1,""viewing_time"":1287}]","8831","instructions","49","481081","0.0-12.0","46833","","","","","",""
"","null","audio-keyboard-response","50","490223","0.0-13.0-0.0","46833","","new_stimuli/mp3/melody_^5_^1+_.mp3","","null","",""
"","4575","html-button-response","51","494799","0.0-13.0-1.0","46833","","<p>Which tone was played first after the cadence?</p><p>Please respond as quickly and as accurately as possible!</p>","7","","1","new_stimuli/mp3/melody_^5_^1+_.mp3"
"","5269","html-button-response","52","500069","0.0-13.0-2.0","46833","","<p>Which tone was played second after the cadence?</p><p>Please respond as quickly and as accurately as possible!</p>","1","","2","new_stimuli/mp3/melody_^5_^1+_.mp3"
"","null","audio-keyboard-response","53","509484","0.0-13.0-0.1","46833","","new_stimuli/mp3/melody_v4_v3_buffer.mp3","","null","",""
"","1308","html-button-response","54","510793","0.0-13.0-1.1","46833","","<p>Which tone was played first after the cadence?</p><p>Please respond as quickly and as accurately as possible!</p>","5","","1","new_stimuli/mp3/melody_v4_v3_buffer.mp3"
"","470","html-button-response","55","511263","0.0-13.0-2.1","46833","","<p>Which tone was played second after the cadence?</p><p>Please respond as quickly and as accurately as possible!</p>","4","","2","new_stimuli/mp3/melody_v4_v3_buffer.mp3"
"","null","audio-keyboard-response","56","520409","0.0-13.0-0.2","46833","","new_stimuli/mp3/melody_v5_v1+_.mp3","","null","",""
"","1101","html-button-response","57","521511","0.0-13.0-1.2","46833","","<p>Which tone was played first after the cadence?</p><p>Please respond as quickly and as accurately as possible!</p>","7","","1","new_stimuli/mp3/melody_v5_v1+_.mp3"
"","707","html-button-response","58","522219","0.0-13.0-2.2","46833","","<p>Which tone was played second after the cadence?</p><p>Please respond as quickly and as accurately as possible!</p>","1","","2","new_stimuli/mp3/melody_v5_v1+_.mp3"
"","null","audio-keyboard-response","59","531369","0.0-13.0-0.3","46833","","new_stimuli/mp3/melody_^2_v7-_.mp3","","null","",""
"","3696","html-button-response","60","535065","0.0-13.0-1.3","46833","","<p>Which tone was played first after the cadence?</p><p>Please respond as quickly and as accurately as possible!</p>","5","","1","new_stimuli/mp3/melody_^2_v7-_.mp3"
"","613","html-button-response","61","535678","0.0-13.0-2.3","46833","","<p>Which tone was played second after the cadence?</p><p>Please respond as quickly and as accurately as possible!</p>","2","","2","new_stimuli/mp3/melody_^2_v7-_.mp3"
"","null","audio-keyboard-response","62","544952","0.0-13.0-0.4","46833","","new_stimuli/mp3/melody_3_^6_buffer.mp3","","null","",""
"","1257","html-button-response","63","546212","0.0-13.0-1.4","46833","","<p>Which tone was played first after the cadence?</p><p>Please respond as quickly and as accurately as possible!</p>","4","","1","new_stimuli/mp3/melody_3_^6_buffer.mp3"
"","634","html-button-response","64","546846","0.0-13.0-2.4","46833","","<p>Which tone was played second after the cadence?</p><p>Please respond as quickly and as accurately as possible!</p>","9","","2","new_stimuli/mp3/melody_3_^6_buffer.mp3"
"","null","audio-keyboard-response","65","556284","0.0-13.0-0.5","46833","","new_stimuli/mp3/melody_^3_v4+_buffer.mp3","","null","",""
"","885","html-button-response","66","557170","0.0-13.0-1.5","46833","","<p>Which tone was played first after the cadence?</p><p>Please respond as quickly and as accurately as possible!</p>","7","","1","new_stimuli/mp3/melody_^3_v4+_buffer.mp3"
"","867","html-button-response","67","558039","0.0-13.0-2.5","46833","","<p>Which tone was played second after the cadence?</p><p>Please respond as quickly and as accurately as possible!</p>","9","","2","new_stimuli/mp3/melody_^3_v4+_buffer.mp3"
"","null","audio-keyboard-response","68","567024","0.0-13.0-0.6","46833","","new_stimuli/mp3/melody_^1_^2+_.mp3","","null","",""
"","1038","html-button-response","69","568063","0.0-13.0-1.6","46833","","<p>Which tone was played first after the cadence?</p><p>Please respond as quickly and as accurately as possible!</p>","0","","1","new_stimuli/mp3/melody_^1_^2+_.mp3"
"","876","html-button-response","70","568940","0.0-13.0-2.6","46833","","<p>Which tone was played second after the cadence?</p><p>Please respond as quickly and as accurately as possible!</p>","6","","2","new_stimuli/mp3/melody_^1_^2+_.mp3"
"","null","audio-keyboard-response","71","578111","0.0-13.0-0.7","46833","","new_stimuli/mp3/melody_v3_v2_buffer.mp3","","null","",""
"","996","html-button-response","72","579107","0.0-13.0-1.7","46833","","<p>Which tone was played first after the cadence?</p><p>Please respond as quickly and as accurately as possible!</p>","4","","1","new_stimuli/mp3/melody_v3_v2_buffer.mp3"
"","666","html-button-response","73","579775","0.0-13.0-2.7","46833","","<p>Which tone was played second after the cadence?</p><p>Please respond as quickly and as accurately as possible!</p>","2","","2","new_stimuli/mp3/melody_v3_v2_buffer.mp3"
"","null","audio-keyboard-response","74","588816","0.0-13.0-0.8","46833","","new_stimuli/mp3/melody_v2_v1_.mp3","","null","",""
"","685","html-button-response","75","589501","0.0-13.0-1.8","46833","","<p>Which tone was played first after the cadence?</p><p>Please respond as quickly and as accurately as possible!</p>","2","","1","new_stimuli/mp3/melody_v2_v1_.mp3"
"","515","html-button-response","76","590017","0.0-13.0-2.8","46833","","<p>Which tone was played second after the cadence?</p><p>Please respond as quickly and as accurately as possible!</p>","0","","2","new_stimuli/mp3/melody_v2_v1_.mp3"
"","null","audio-keyboard-response","77","599451","0.0-13.0-0.9","46833","","new_stimuli/mp3/melody_v7_v3_buffer.mp3","","null","",""
"","1088","html-button-response","78","600540","0.0-13.0-1.9","46833","","<p>Which tone was played first after the cadence?</p><p>Please respond as quickly and as accurately as possible!</p>","11","","1","new_stimuli/mp3/melody_v7_v3_buffer.mp3"
"","5994","html-button-response","79","606536","0.0-13.0-2.9","46833","","<p>Which tone was played second after the cadence?</p><p>Please respond as quickly and as accurately as possible!</p>","4","","2","new_stimuli/mp3/melody_v7_v3_buffer.mp3"
"[{""page_index"":0,""viewing_time"":2673},{""page_index"":1,""viewing_time"":1182},{""page_index"":2,""viewing_time"":1122}]","4977","instructions","80","611512","0.0-14.0","46833","","","","","",""
"","null","audio-keyboard-response","81","621057","0.0-15.0-0.0","46833","","new_stimuli/mp3/melody_v3_v2_v1_.mp3","","null","",""
"","1162","html-button-response","82","622220","0.0-15.0-1.0","46833","","<p>Which tone was played first after the cadence?</p><p>Please respond as quickly and as accurately as possible!</p>","4","","1","new_stimuli/mp3/melody_v3_v2_v1_.mp3"
"","642","html-button-response","83","622863","0.0-15.0-2.0","46833","","<p>Which tone was played second after the cadence?</p><p>Please respond as quickly and as accurately as possible!</p>","2","","2","new_stimuli/mp3/melody_v3_v2_v1_.mp3"
"","579","html-button-response","84","623443","0.0-15.0-3.0","46833","","<p>Which tone was played third after the cadence?</p><p>Please respond as quickly and as accurately as possible!</p>","0","","3","new_stimuli/mp3/melody_v3_v2_v1_.mp3"
"","null","audio-keyboard-response","85","633004","0.0-15.0-0.1","46833","","new_stimuli/mp3/melody_v1_v7-_7-_buffer.mp3","","null","",""
"","1545","html-button-response","86","634549","0.0-15.0-1.1","46833","","<p>Which tone was played first after the cadence?</p><p>Please respond as quickly and as accurately as possible!</p>","12","","1","new_stimuli/mp3/melody_v1_v7-_7-_buffer.mp3"
"","602","html-button-response","87","635152","0.0-15.0-2.1","46833","","<p>Which tone was played second after the cadence?</p><p>Please respond as quickly and as accurately as possible!</p>","10","","2","new_stimuli/mp3/melody_v1_v7-_7-_buffer.mp3"
"","151","html-button-response","88","635305","0.0-15.0-3.1","46833","","<p>Which tone was played third after the cadence?</p><p>Please respond as quickly and as accurately as possible!</p>","10","","3","new_stimuli/mp3/melody_v1_v7-_7-_buffer.mp3"
"","null","audio-keyboard-response","89","645229","0.0-15.0-0.2","46833","","new_stimuli/mp3/melody_v5_v4_v3_buffer.mp3","","null","",""
"","958","html-button-response","90","646188","0.0-15.0-1.2","46833","","<p>Which tone was played first after the cadence?</p><p>Please respond as quickly and as accurately as possible!</p>","7","","1","new_stimuli/mp3/melody_v5_v4_v3_buffer.mp3"
"","709","html-button-response","91","646899","0.0-15.0-2.2","46833","","<p>Which tone was played second after the cadence?</p><p>Please respond as quickly and as accurately as possible!</p>","5","","2","new_stimuli/mp3/melody_v5_v4_v3_buffer.mp3"
"","457","html-button-response","92","647355","0.0-15.0-3.2","46833","","<p>Which tone was played third after the cadence?</p><p>Please respond as quickly and as accurately as possible!</p>","4","","3","new_stimuli/mp3/melody_v5_v4_v3_buffer.mp3"
"","null","audio-keyboard-response","93","657234","0.0-15.0-0.3","46833","","new_stimuli/mp3/melody_^1_v6_v5+_.mp3","","null","",""
"","2524","html-button-response","94","659759","0.0-15.0-1.3","46833","","<p>Which tone was played first after the cadence?</p><p>Please respond as quickly and as accurately as possible!</p>","12","","1","new_stimuli/mp3/melody_^1_v6_v5+_.mp3"
"","3211","html-button-response","95","662972","0.0-15.0-2.3","46833","","<p>Which tone was played second after the cadence?</p><p>Please respond as quickly and as accurately as possible!</p>","10","","2","new_stimuli/mp3/melody_^1_v6_v5+_.mp3"
"","2011","html-button-response","96","664986","0.0-15.0-3.3","46833","","<p>Which tone was played third after the cadence?</p><p>Please respond as quickly and as accurately as possible!</p>","9","","3","new_stimuli/mp3/melody_^1_v6_v5+_.mp3"
"","null","audio-keyboard-response","97","674521","0.0-15.0-0.4","46833","","new_stimuli/mp3/melody_v1_v7-_^7_.mp3","","null","",""
"","726","html-button-response","98","675249","0.0-15.0-1.4","46833","","<p>Which tone was played first after the cadence?</p><p>Please respond as quickly and as accurately as possible!</p>","12","","1","new_stimuli/mp3/melody_v1_v7-_^7_.mp3"
"","442","html-button-response","99","675692","0.0-15.0-2.4","46833","","<p>Which tone was played second after the cadence?</p><p>Please respond as quickly and as accurately as possible!</p>","10","","2","new_stimuli/mp3/melody_v1_v7-_^7_.mp3"
"","394","html-button-response","100","676087","0.0-15.0-3.4","46833","","<p>Which tone was played third after the cadence?</p><p>Please respond as quickly and as accurately as possible!</p>","11","","3","new_stimuli/mp3/melody_v1_v7-_^7_.mp3"
"","null","audio-keyboard-response","101","685703","0.0-15.0-0.5","46833","","new_stimuli/mp3/melody_6_^1_v5_.mp3","","null","",""
"","1930","html-button-response","102","687633","0.0-15.0-1.5","46833","","<p>Which tone was played first after the cadence?</p><p>Please respond as quickly and as accurately as possible!</p>","5","","1","new_stimuli/mp3/melody_6_^1_v5_.mp3"
"","6086","html-button-response","103","693721","0.0-15.0-2.5","46833","","<p>Which tone was played second after the cadence?</p><p>Please respond as quickly and as accurately as possible!</p>","9","","2","new_stimuli/mp3/melody_6_^1_v5_.mp3"
"","962","html-button-response","104","694684","0.0-15.0-3.5","46833","","<p>Which tone was played third after the cadence?</p><p>Please respond as quickly and as accurately as possible!</p>","4","","3","new_stimuli/mp3/melody_6_^1_v5_.mp3"
"","null","audio-keyboard-response","105","704638","0.0-15.0-0.6","46833","","new_stimuli/mp3/melody_v2_v5_^3_buffer.mp3","","null","",""
"","1093","html-button-response","106","705732","0.0-15.0-1.6","46833","","<p>Which tone was played first after the cadence?</p><p>Please respond as quickly and as accurately as possible!</p>","2","","1","new_stimuli/mp3/melody_v2_v5_^3_buffer.mp3"
"","1118","html-button-response","107","706851","0.0-15.0-2.6","46833","","<p>Which tone was played second after the cadence?</p><p>Please respond as quickly and as accurately as possible!</p>","7","","2","new_stimuli/mp3/melody_v2_v5_^3_buffer.mp3"
"","747","html-button-response","108","707599","0.0-15.0-3.6","46833","","<p>Which tone was played third after the cadence?</p><p>Please respond as quickly and as accurately as possible!</p>","4","","3","new_stimuli/mp3/melody_v2_v5_^3_buffer.mp3"
"","null","audio-keyboard-response","109","717085","0.0-15.0-0.7","46833","","new_stimuli/mp3/melody_1_v1+_^2_.mp3","","null","",""
"","724","html-button-response","110","717809","0.0-15.0-1.7","46833","","<p>Which tone was played first after the cadence?</p><p>Please respond as quickly and as accurately as possible!</p>","0","","1","new_stimuli/mp3/melody_1_v1+_^2_.mp3"
"","484","html-button-response","111","718294","0.0-15.0-2.7","46833","","<p>Which tone was played second after the cadence?</p><p>Please respond as quickly and as accurately as possible!</p>","1","","2","new_stimuli/mp3/melody_1_v1+_^2_.mp3"
"","464","html-button-response","112","718759","0.0-15.0-3.7","46833","","<p>Which tone was played third after the cadence?</p><p>Please respond as quickly and as accurately as possible!</p>","2","","3","new_stimuli/mp3/melody_1_v1+_^2_.mp3"
"","null","audio-keyboard-response","113","728428","0.0-15.0-0.8","46833","","new_stimuli/mp3/melody_v4_v3_v2_buffer.mp3","","null","",""
"","1058","html-button-response","114","729486","0.0-15.0-1.8","46833","","<p>Which tone was played first after the cadence?</p><p>Please respond as quickly and as accurately as possible!</p>","5","","1","new_stimuli/mp3/melody_v4_v3_v2_buffer.mp3"
"","860","html-button-response","115","730347","0.0-15.0-2.8","46833","","<p>Which tone was played second after the cadence?</p><p>Please respond as quickly and as accurately as possible!</p>","4","","2","new_stimuli/mp3/melody_v4_v3_v2_buffer.mp3"
"","523","html-button-response","116","730870","0.0-15.0-3.8","46833","","<p>Which tone was played third after the cadence?</p><p>Please respond as quickly and as accurately as possible!</p>","2","","3","new_stimuli/mp3/melody_v4_v3_v2_buffer.mp3"
"[{""page_index"":0,""viewing_time"":2448},{""page_index"":1,""viewing_time"":1821},{""page_index"":2,""viewing_time"":1336}]","5606","instructions","117","736475","0.0-16.0","46833","","","","","",""
"","null","audio-keyboard-response","118","747085","0.0-17.0-0.0","46833","","new_stimuli/mp3/melody_v5_^6+_^7_^1_5_.mp3","","null","",""
"","822","html-button-response","119","747909","0.0-17.0-1.0","46833","","<p>Which tone was played first after the cadence?</p><p>Please respond as quickly and as accurately as possible!</p>","7","","1","new_stimuli/mp3/melody_v5_^6+_^7_^1_5_.mp3"
"","579","html-button-response","120","748489","0.0-17.0-2.0","46833","","<p>Which tone was played second after the cadence?</p><p>Please respond as quickly and as accurately as possible!</p>","9","","2","new_stimuli/mp3/melody_v5_^6+_^7_^1_5_.mp3"
"","642","html-button-response","121","749131","0.0-17.0-3.0","46833","","<p>Which tone was played third after the cadence?</p><p>Please respond as quickly and as accurately as possible!</p>","11","","3","new_stimuli/mp3/melody_v5_^6+_^7_^1_5_.mp3"
"","442","html-button-response","122","749575","0.0-17.0-4.0","46833","","<p>Which tone was played fourth after the cadence?</p><p>Please respond as quickly and as accurately as possible!</p>","12","","4","new_stimuli/mp3/melody_v5_^6+_^7_^1_5_.mp3"
"","627","html-button-response","123","750205","0.0-17.0-5.0","46833","","<p>Which tone was played fifth after the cadence?</p><p>Please respond as quickly and as accurately as possible!</p>","7","","5","new_stimuli/mp3/melody_v5_^6+_^7_^1_5_.mp3"
"","null","audio-keyboard-response","124","760762","0.0-17.0-0.1","46833","","new_stimuli/mp3/melody_v2_2_^3_^4_v2_.mp3","","null","",""
"","1597","html-button-response","125","762360","0.0-17.0-1.1","46833","","<p>Which tone was played first after the cadence?</p><p>Please respond as quickly and as accurately as possible!</p>","2","","1","new_stimuli/mp3/melody_v2_2_^3_^4_v2_.mp3"
"","553","html-button-response","126","762914","0.0-17.0-2.1","46833","","<p>Which tone was played second after the cadence?</p><p>Please respond as quickly and as accurately as possible!</p>","2","","2","new_stimuli/mp3/melody_v2_2_^3_^4_v2_.mp3"
"","2063","html-button-response","127","764978","0.0-17.0-3.1","46833","","<p>Which tone was played third after the cadence?</p><p>Please respond as quickly and as accurately as possible!</p>","4","","3","new_stimuli/mp3/melody_v2_2_^3_^4_v2_.mp3"
"","518","html-button-response","128","765498","0.0-17.0-4.1","46833","","<p>Which tone was played fourth after the cadence?</p><p>Please respond as quickly and as accurately as possible!</p>","5","","4","new_stimuli/mp3/melody_v2_2_^3_^4_v2_.mp3"
"","567","html-button-response","129","766065","0.0-17.0-5.1","46833","","<p>Which tone was played fifth after the cadence?</p><p>Please respond as quickly and as accurately as possible!</p>","2","","5","new_stimuli/mp3/melody_v2_2_^3_^4_v2_.mp3"
"","null","audio-keyboard-response","130","776982","0.0-17.0-0.2","46833","","new_stimuli/mp3/melody_^5_^6_v5_v4_v3_buffer.mp3","","null","",""
"","1240","html-button-response","131","778223","0.0-17.0-1.2","46833","","<p>Which tone was played first after the cadence?</p><p>Please respond as quickly and as accurately as possible!</p>","7","","1","new_stimuli/mp3/melody_^5_^6_v5_v4_v3_buffer.mp3"
"","571","html-button-response","132","778795","0.0-17.0-2.2","46833","","<p>Which tone was played second after the cadence?</p><p>Please respond as quickly and as accurately as possible!</p>","9","","2","new_stimuli/mp3/melody_^5_^6_v5_v4_v3_buffer.mp3"
"","563","html-button-response","133","779359","0.0-17.0-3.2","46833","","<p>Which tone was played third after the cadence?</p><p>Please respond as quickly and as accurately as possible!</p>","7","","3","new_stimuli/mp3/melody_^5_^6_v5_v4_v3_buffer.mp3"
"","554","html-button-response","134","779913","0.0-17.0-4.2","46833","","<p>Which tone was played fourth after the cadence?</p><p>Please respond as quickly and as accurately as possible!</p>","5","","4","new_stimuli/mp3/melody_^5_^6_v5_v4_v3_buffer.mp3"
"","579","html-button-response","135","780493","0.0-17.0-5.2","46833","","<p>Which tone was played fifth after the cadence?</p><p>Please respond as quickly and as accurately as possible!</p>","4","","5","new_stimuli/mp3/melody_^5_^6_v5_v4_v3_buffer.mp3"
"","null","audio-keyboard-response","136","791413","0.0-17.0-0.3","46833","","new_stimuli/mp3/melody_v5-_v3_3_^4+_v3_.mp3","","null","",""
"","4968","html-button-response","137","796383","0.0-17.0-1.3","46833","","<p>Which tone was played first after the cadence?</p><p>Please respond as quickly and as accurately as possible!</p>","9","","1","new_stimuli/mp3/melody_v5-_v3_3_^4+_v3_.mp3"
"","418","html-button-response","138","796801","0.0-17.0-2.3","46833","","<p>Which tone was played second after the cadence?</p><p>Please respond as quickly and as accurately as possible!</p>","7","","2","new_stimuli/mp3/melody_v5-_v3_3_^4+_v3_.mp3"
"","265","html-button-response","139","797067","0.0-17.0-3.3","46833","","<p>Which tone was played third after the cadence?</p><p>Please respond as quickly and as accurately as possible!</p>","7","","3","new_stimuli/mp3/melody_v5-_v3_3_^4+_v3_.mp3"
"","421","html-button-response","140","797488","0.0-17.0-4.3","46833","","<p>Which tone was played fourth after the cadence?</p><p>Please respond as quickly and as accurately as possible!</p>","5","","4","new_stimuli/mp3/melody_v5-_v3_3_^4+_v3_.mp3"
"","546","html-button-response","141","798036","0.0-17.0-5.3","46833","","<p>Which tone was played fifth after the cadence?</p><p>Please respond as quickly and as accurately as possible!</p>","7","","5","new_stimuli/mp3/melody_v5-_v3_3_^4+_v3_.mp3"
"","null","audio-keyboard-response","142","808596","0.0-17.0-0.4","46833","","new_stimuli/mp3/melody_v5_v4_v3_v2_v1 _buffer.mp3","","null","",""
"","802","html-button-response","143","809399","0.0-17.0-1.4","46833","","<p>Which tone was played first after the cadence?</p><p>Please respond as quickly and as accurately as possible!</p>","7","","1","new_stimuli/mp3/melody_v5_v4_v3_v2_v1 _buffer.mp3"
"","615","html-button-response","144","810016","0.0-17.0-2.4","46833","","<p>Which tone was played second after the cadence?</p><p>Please respond as quickly and as accurately as possible!</p>","5","","2","new_stimuli/mp3/melody_v5_v4_v3_v2_v1 _buffer.mp3"
"","604","html-button-response","145","810620","0.0-17.0-3.4","46833","","<p>Which tone was played third after the cadence?</p><p>Please respond as quickly and as accurately as possible!</p>","4","","3","new_stimuli/mp3/melody_v5_v4_v3_v2_v1 _buffer.mp3"
"","644","html-button-response","146","811265","0.0-17.0-4.4","46833","","<p>Which tone was played fourth after the cadence?</p><p>Please respond as quickly and as accurately as possible!</p>","2","","4","new_stimuli/mp3/melody_v5_v4_v3_v2_v1 _buffer.mp3"
"","532","html-button-response","147","811799","0.0-17.0-5.4","46833","","<p>Which tone was played fifth after the cadence?</p><p>Please respond as quickly and as accurately as possible!</p>","0","","5","new_stimuli/mp3/melody_v5_v4_v3_v2_v1 _buffer.mp3"
"","null","audio-keyboard-response","148","822482","0.0-17.0-0.5","46833","","new_stimuli/mp3/melody_^6_v5_v4_v3_v2_buffer.mp3","","null","",""
"","796","html-button-response","149","823279","0.0-17.0-1.5","46833","","<p>Which tone was played first after the cadence?</p><p>Please respond as quickly and as accurately as possible!</p>","9","","1","new_stimuli/mp3/melody_^6_v5_v4_v3_v2_buffer.mp3"
"","612","html-button-response","150","823892","0.0-17.0-2.5","46833","","<p>Which tone was played second after the cadence?</p><p>Please respond as quickly and as accurately as possible!</p>","7","","2","new_stimuli/mp3/melody_^6_v5_v4_v3_v2_buffer.mp3"
"","596","html-button-response","151","824489","0.0-17.0-3.5","46833","","<p>Which tone was played third after the cadence?</p><p>Please respond as quickly and as accurately as possible!</p>","5","","3","new_stimuli/mp3/melody_^6_v5_v4_v3_v2_buffer.mp3"
"","417","html-button-response","152","824907","0.0-17.0-4.5","46833","","<p>Which tone was played fourth after the cadence?</p><p>Please respond as quickly and as accurately as possible!</p>","4","","4","new_stimuli/mp3/melody_^6_v5_v4_v3_v2_buffer.mp3"
"","581","html-button-response","153","825489","0.0-17.0-5.5","46833","","<p>Which tone was played fifth after the cadence?</p><p>Please respond as quickly and as accurately as possible!</p>","2","","5","new_stimuli/mp3/melody_^6_v5_v4_v3_v2_buffer.mp3"
"","null","audio-keyboard-response","154","836100","0.0-17.0-0.6","46833","","new_stimuli/mp3/melody_^6_v4_v3_^4_^5_.mp3","","null","",""
"","1633","html-button-response","155","837734","0.0-17.0-1.6","46833","","<p>Which tone was played first after the cadence?</p><p>Please respond as quickly and as accurately as possible!</p>","9","","1","new_stimuli/mp3/melody_^6_v4_v3_^4_^5_.mp3"
"","901","html-button-response","156","838635","0.0-17.0-2.6","46833","","<p>Which tone was played second after the cadence?</p><p>Please respond as quickly and as accurately as possible!</p>","5","","2","new_stimuli/mp3/melody_^6_v4_v3_^4_^5_.mp3"
"","606","html-button-response","157","839241","0.0-17.0-3.6","46833","","<p>Which tone was played third after the cadence?</p><p>Please respond as quickly and as accurately as possible!</p>","4","","3","new_stimuli/mp3/melody_^6_v4_v3_^4_^5_.mp3"
"","385","html-button-response","158","839627","0.0-17.0-4.6","46833","","<p>Which tone was played fourth after the cadence?</p><p>Please respond as quickly and as accurately as possible!</p>","5","","4","new_stimuli/mp3/melody_^6_v4_v3_^4_^5_.mp3"
"","870","html-button-response","159","840497","0.0-17.0-5.6","46833","","<p>Which tone was played fifth after the cadence?</p><p>Please respond as quickly and as accurately as possible!</p>","7","","5","new_stimuli/mp3/melody_^6_v4_v3_^4_^5_.mp3"
"","null","audio-keyboard-response","160","851054","0.0-17.0-0.7","46833","","new_stimuli/mp3/melody_v5_v4_v3_v2_v1_.mp3","","null","",""
"","802","html-button-response","161","851859","0.0-17.0-1.7","46833","","<p>Which tone was played first after the cadence?</p><p>Please respond as quickly and as accurately as possible!</p>","7","","1","new_stimuli/mp3/melody_v5_v4_v3_v2_v1_.mp3"
"","447","html-button-response","162","852306","0.0-17.0-2.7","46833","","<p>Which tone was played second after the cadence?</p><p>Please respond as quickly and as accurately as possible!</p>","5","","2","new_stimuli/mp3/melody_v5_v4_v3_v2_v1_.mp3"
"","411","html-button-response","163","852718","0.0-17.0-3.7","46833","","<p>Which tone was played third after the cadence?</p><p>Please respond as quickly and as accurately as possible!</p>","4","","3","new_stimuli/mp3/melody_v5_v4_v3_v2_v1_.mp3"
"","499","html-button-response","164","853219","0.0-17.0-4.7","46833","","<p>Which tone was played fourth after the cadence?</p><p>Please respond as quickly and as accurately as possible!</p>","2","","4","new_stimuli/mp3/melody_v5_v4_v3_v2_v1_.mp3"
"","417","html-button-response","165","853636","0.0-17.0-5.7","46833","","<p>Which tone was played fifth after the cadence?</p><p>Please respond as quickly and as accurately as possible!</p>","0","","5","new_stimuli/mp3/melody_v5_v4_v3_v2_v1_.mp3"
"[{""page_index"":0,""viewing_time"":2451},{""page_index"":1,""viewing_time"":915},{""page_index"":2,""viewing_time"":936}]","4303","instructions","166","857939","0.0-18.0","46833","","","","","",""
"","null","audio-keyboard-response","167","869619","0.0-19.0-0.0","46833","","new_stimuli/mp3/melody_^4_^5_^6_v5_v4_v3_v2_.mp3","","null","",""
"","595","html-button-response","168","870215","0.0-19.0-1.0","46833","","<p>Which tone was played first after the cadence?</p><p>Please respond as quickly and as accurately as possible!</p>","3","","1","new_stimuli/mp3/melody_^4_^5_^6_v5_v4_v3_v2_.mp3"
"","1127","html-button-response","169","871343","0.0-19.0-2.0","46833","","<p>Which tone was played second after the cadence?</p><p>Please respond as quickly and as accurately as possible!</p>","5","","2","new_stimuli/mp3/melody_^4_^5_^6_v5_v4_v3_v2_.mp3"
"","604","html-button-response","170","871947","0.0-19.0-3.0","46833","","<p>Which tone was played third after the cadence?</p><p>Please respond as quickly and as accurately as possible!</p>","7","","3","new_stimuli/mp3/melody_^4_^5_^6_v5_v4_v3_v2_.mp3"
"","523","html-button-response","171","872470","0.0-19.0-4.0","46833","","<p>Which tone was played fourth after the cadence?</p><p>Please respond as quickly and as accurately as possible!</p>","5","","4","new_stimuli/mp3/melody_^4_^5_^6_v5_v4_v3_v2_.mp3"
"","540","html-button-response","172","873010","0.0-19.0-5.0","46833","","<p>Which tone was played fifth after the cadence?</p><p>Please respond as quickly and as accurately as possible!</p>","4","","5","new_stimuli/mp3/melody_^4_^5_^6_v5_v4_v3_v2_.mp3"
"","1388","html-button-response","173","874399","0.0-19.0-6.0","46833","","<p>Which tone was played sixth after the cadence?</p><p>Please respond as quickly and as accurately as possible!</p>","2","","6","new_stimuli/mp3/melody_^4_^5_^6_v5_v4_v3_v2_.mp3"
"","5621","html-button-response","174","880021","0.0-19.0-7.0","46833","","<p>Which tone was played seventh after the cadence?</p><p>Please respond as quickly and as accurately as possible!</p>","0","","7","new_stimuli/mp3/melody_^4_^5_^6_v5_v4_v3_v2_.mp3"
"","null","audio-keyboard-response","175","891969","0.0-19.0-0.1","46833","","new_stimuli/mp3/melody_1_^3_v1_^5_v3_v2_^3_.mp3","","null","",""
"","714","html-button-response","176","892684","0.0-19.0-1.1","46833","","<p>Which tone was played first after the cadence?</p><p>Please respond as quickly and as accurately as possible!</p>","0","","1","new_stimuli/mp3/melody_1_^3_v1_^5_v3_v2_^3_.mp3"
"","1244","html-button-response","177","893928","0.0-19.0-2.1","46833","","<p>Which tone was played second after the cadence?</p><p>Please respond as quickly and as accurately as possible!</p>","4","","2","new_stimuli/mp3/melody_1_^3_v1_^5_v3_v2_^3_.mp3"
"","583","html-button-response","178","894511","0.0-19.0-3.1","46833","","<p>Which tone was played third after the cadence?</p><p>Please respond as quickly and as accurately as possible!</p>","0","","3","new_stimuli/mp3/melody_1_^3_v1_^5_v3_v2_^3_.mp3"
"","761","html-button-response","179","895273","0.0-19.0-4.1","46833","","<p>Which tone was played fourth after the cadence?</p><p>Please respond as quickly and as accurately as possible!</p>","7","","4","new_stimuli/mp3/melody_1_^3_v1_^5_v3_v2_^3_.mp3"
"","630","html-button-response","180","895904","0.0-19.0-5.1","46833","","<p>Which tone was played fifth after the cadence?</p><p>Please respond as quickly and as accurately as possible!</p>","5","","5","new_stimuli/mp3/melody_1_^3_v1_^5_v3_v2_^3_.mp3"
"","715","html-button-response","181","896621","0.0-19.0-6.1","46833","","<p>Which tone was played sixth after the cadence?</p><p>Please respond as quickly and as accurately as possible!</p>","2","","6","new_stimuli/mp3/melody_1_^3_v1_^5_v3_v2_^3_.mp3"
"","644","html-button-response","182","897266","0.0-19.0-7.1","46833","","<p>Which tone was played seventh after the cadence?</p><p>Please respond as quickly and as accurately as possible!</p>","4","","7","new_stimuli/mp3/melody_1_^3_v1_^5_v3_v2_^3_.mp3"
"","null","audio-keyboard-response","183","908814","0.0-19.0-0.2","46833","","new_stimuli/mp3/melody_^5_^6_v5_v4_v3_v2_v1_buffer.mp3","","null","",""
"","891","html-button-response","184","909707","0.0-19.0-1.2","46833","","<p>Which tone was played first after the cadence?</p><p>Please respond as quickly and as accurately as possible!</p>","7","","1","new_stimuli/mp3/melody_^5_^6_v5_v4_v3_v2_v1_buffer.mp3"
"","697","html-button-response","185","910405","0.0-19.0-2.2","46833","","<p>Which tone was played second after the cadence?</p><p>Please respond as quickly and as accurately as possible!</p>","9","","2","new_stimuli/mp3/melody_^5_^6_v5_v4_v3_v2_v1_buffer.mp3"
"","506","html-button-response","186","910913","0.0-19.0-3.2","46833","","<p>Which tone was played third after the cadence?</p><p>Please respond as quickly and as accurately as possible!</p>","7","","3","new_stimuli/mp3/melody_^5_^6_v5_v4_v3_v2_v1_buffer.mp3"
"","548","html-button-response","187","911462","0.0-19.0-4.2","46833","","<p>Which tone was played fourth after the cadence?</p><p>Please respond as quickly and as accurately as possible!</p>","5","","4","new_stimuli/mp3/melody_^5_^6_v5_v4_v3_v2_v1_buffer.mp3"
"","410","html-button-response","188","911871","0.0-19.0-5.2","46833","","<p>Which tone was played fifth after the cadence?</p><p>Please respond as quickly and as accurately as possible!</p>","4","","5","new_stimuli/mp3/melody_^5_^6_v5_v4_v3_v2_v1_buffer.mp3"
"","435","html-button-response","189","912307","0.0-19.0-6.2","46833","","<p>Which tone was played sixth after the cadence?</p><p>Please respond as quickly and as accurately as possible!</p>","2","","6","new_stimuli/mp3/melody_^5_^6_v5_v4_v3_v2_v1_buffer.mp3"
"","521","html-button-response","190","912830","0.0-19.0-7.2","46833","","<p>Which tone was played seventh after the cadence?</p><p>Please respond as quickly and as accurately as possible!</p>","0","","7","new_stimuli/mp3/melody_^5_^6_v5_v4_v3_v2_v1_buffer.mp3"
"","null","audio-keyboard-response","191","924454","0.0-19.0-0.3","46833","","new_stimuli/mp3/melody_^6_v5+_v4_^5+_v3_v1_v7-_.mp3","","null","",""
"","2274","html-button-response","192","926729","0.0-19.0-1.3","46833","","<p>Which tone was played first after the cadence?</p><p>Please respond as quickly and as accurately as possible!</p>","8","","1","new_stimuli/mp3/melody_^6_v5+_v4_^5+_v3_v1_v7-_.mp3"
"","585","html-button-response","193","927316","0.0-19.0-2.3","46833","","<p>Which tone was played second after the cadence?</p><p>Please respond as quickly and as accurately as possible!</p>","7","","2","new_stimuli/mp3/melody_^6_v5+_v4_^5+_v3_v1_v7-_.mp3"
"","1353","html-button-response","194","928670","0.0-19.0-3.3","46833","","<p>Which tone was played third after the cadence?</p><p>Please respond as quickly and as accurately as possible!</p>","4","","3","new_stimuli/mp3/melody_^6_v5+_v4_^5+_v3_v1_v7-_.mp3"
"","707","html-button-response","195","929379","0.0-19.0-4.3","46833","","<p>Which tone was played fourth after the cadence?</p><p>Please respond as quickly and as accurately as possible!</p>","7","","4","new_stimuli/mp3/melody_^6_v5+_v4_^5+_v3_v1_v7-_.mp3"
"","789","html-button-response","196","930169","0.0-19.0-5.3","46833","","<p>Which tone was played fifth after the cadence?</p><p>Please respond as quickly and as accurately as possible!</p>","5","","5","new_stimuli/mp3/melody_^6_v5+_v4_^5+_v3_v1_v7-_.mp3"
"","3215","html-button-response","197","933384","0.0-19.0-6.3","46833","","<p>Which tone was played sixth after the cadence?</p><p>Please respond as quickly and as accurately as possible!</p>","3","","6","new_stimuli/mp3/melody_^6_v5+_v4_^5+_v3_v1_v7-_.mp3"
"","853","html-button-response","198","934239","0.0-19.0-7.3","46833","","<p>Which tone was played seventh after the cadence?</p><p>Please respond as quickly and as accurately as possible!</p>","2","","7","new_stimuli/mp3/melody_^6_v5+_v4_^5+_v3_v1_v7-_.mp3"
"","null","audio-keyboard-response","199","945921","0.0-19.0-0.4","46833","","new_stimuli/mp3/melody_^1_v7_v6_v5_v4_v3_v2_buffer.mp3","","null","",""
"","899","html-button-response","200","946821","0.0-19.0-1.4","46833","","<p>Which tone was played first after the cadence?</p><p>Please respond as quickly and as accurately as possible!</p>","12","","1","new_stimuli/mp3/melody_^1_v7_v6_v5_v4_v3_v2_buffer.mp3"
"","772","html-button-response","201","947594","0.0-19.0-2.4","46833","","<p>Which tone was played second after the cadence?</p><p>Please respond as quickly and as accurately as possible!</p>","11","","2","new_stimuli/mp3/melody_^1_v7_v6_v5_v4_v3_v2_buffer.mp3"
"","611","html-button-response","202","948207","0.0-19.0-3.4","46833","","<p>Which tone was played third after the cadence?</p><p>Please respond as quickly and as accurately as possible!</p>","9","","3","new_stimuli/mp3/melody_^1_v7_v6_v5_v4_v3_v2_buffer.mp3"
"","556","html-button-response","203","948763","0.0-19.0-4.4","46833","","<p>Which tone was played fourth after the cadence?</p><p>Please respond as quickly and as accurately as possible!</p>","7","","4","new_stimuli/mp3/melody_^1_v7_v6_v5_v4_v3_v2_buffer.mp3"
"","515","html-button-response","204","949278","0.0-19.0-5.4","46833","","<p>Which tone was played fifth after the cadence?</p><p>Please respond as quickly and as accurately as possible!</p>","5","","5","new_stimuli/mp3/melody_^1_v7_v6_v5_v4_v3_v2_buffer.mp3"
"","1112","html-button-response","205","950391","0.0-19.0-6.4","46833","","<p>Which tone was played sixth after the cadence?</p><p>Please respond as quickly and as accurately as possible!</p>","4","","6","new_stimuli/mp3/melody_^1_v7_v6_v5_v4_v3_v2_buffer.mp3"
"","869","html-button-response","206","951260","0.0-19.0-7.4","46833","","<p>Which tone was played seventh after the cadence?</p><p>Please respond as quickly and as accurately as possible!</p>","2","","7","new_stimuli/mp3/melody_^1_v7_v6_v5_v4_v3_v2_buffer.mp3"
"","null","audio-keyboard-response","207","962930","0.0-19.0-0.5","46833","","new_stimuli/mp3/melody_v1_^2_v1_v7_^1_^3_v2_.mp3","","null","",""
"","1069","html-button-response","208","964000","0.0-19.0-1.5","46833","","<p>Which tone was played first after the cadence?</p><p>Please respond as quickly and as accurately as possible!</p>","0","","1","new_stimuli/mp3/melody_v1_^2_v1_v7_^1_^3_v2_.mp3"
"","646","html-button-response","209","964646","0.0-19.0-2.5","46833","","<p>Which tone was played second after the cadence?</p><p>Please respond as quickly and as accurately as possible!</p>","2","","2","new_stimuli/mp3/melody_v1_^2_v1_v7_^1_^3_v2_.mp3"
"","596","html-button-response","210","965242","0.0-19.0-3.5","46833","","<p>Which tone was played third after the cadence?</p><p>Please respond as quickly and as accurately as possible!</p>","0","","3","new_stimuli/mp3/melody_v1_^2_v1_v7_^1_^3_v2_.mp3"
"","764","html-button-response","211","966007","0.0-19.0-4.5","46833","","<p>Which tone was played fourth after the cadence?</p><p>Please respond as quickly and as accurately as possible!</p>","11","","4","new_stimuli/mp3/melody_v1_^2_v1_v7_^1_^3_v2_.mp3"
"","547","html-button-response","212","966554","0.0-19.0-5.5","46833","","<p>Which tone was played fifth after the cadence?</p><p>Please respond as quickly and as accurately as possible!</p>","12","","5","new_stimuli/mp3/melody_v1_^2_v1_v7_^1_^3_v2_.mp3"
"","1402","html-button-response","213","967956","0.0-19.0-6.5","46833","","<p>Which tone was played sixth after the cadence?</p><p>Please respond as quickly and as accurately as possible!</p>","4","","6","new_stimuli/mp3/melody_v1_^2_v1_v7_^1_^3_v2_.mp3"
"","603","html-button-response","214","968561","0.0-19.0-7.5","46833","","<p>Which tone was played seventh after the cadence?</p><p>Please respond as quickly and as accurately as possible!</p>","2","","7","new_stimuli/mp3/melody_v1_^2_v1_v7_^1_^3_v2_.mp3"
"","null","audio-keyboard-response","215","980218","0.0-19.0-0.6","46833","","new_stimuli/mp3/melody_^4_v6-_v5-_^6-_^4_v2-_2-_.mp3","","null","",""
"","5472","html-button-response","216","985690","0.0-19.0-1.6","46833","","<p>Which tone was played first after the cadence?</p><p>Please respond as quickly and as accurately as possible!</p>","4","","1","new_stimuli/mp3/melody_^4_v6-_v5-_^6-_^4_v2-_2-_.mp3"
"","749","html-button-response","217","986440","0.0-19.0-2.6","46833","","<p>Which tone was played second after the cadence?</p><p>Please respond as quickly and as accurately as possible!</p>","9","","2","new_stimuli/mp3/melody_^4_v6-_v5-_^6-_^4_v2-_2-_.mp3"
"","715","html-button-response","218","987156","0.0-19.0-3.6","46833","","<p>Which tone was played third after the cadence?</p><p>Please respond as quickly and as accurately as possible!</p>","7","","3","new_stimuli/mp3/melody_^4_v6-_v5-_^6-_^4_v2-_2-_.mp3"
"","948","html-button-response","219","988106","0.0-19.0-4.6","46833","","<p>Which tone was played fourth after the cadence?</p><p>Please respond as quickly and as accurately as possible!</p>","9","","4","new_stimuli/mp3/melody_^4_v6-_v5-_^6-_^4_v2-_2-_.mp3"
"","1229","html-button-response","220","989336","0.0-19.0-5.6","46833","","<p>Which tone was played fifth after the cadence?</p><p>Please respond as quickly and as accurately as possible!</p>","4","","5","new_stimuli/mp3/melody_^4_v6-_v5-_^6-_^4_v2-_2-_.mp3"
"","702","html-button-response","221","990039","0.0-19.0-6.6","46833","","<p>Which tone was played sixth after the cadence?</p><p>Please respond as quickly and as accurately as possible!</p>","2","","6","new_stimuli/mp3/melody_^4_v6-_v5-_^6-_^4_v2-_2-_.mp3"
"","404","html-button-response","222","990444","0.0-19.0-7.6","46833","","<p>Which tone was played seventh after the cadence?</p><p>Please respond as quickly and as accurately as possible!</p>","2","","7","new_stimuli/mp3/melody_^4_v6-_v5-_^6-_^4_v2-_2-_.mp3"
"[{""page_index"":0,""viewing_time"":2543},{""page_index"":1,""viewing_time"":1233},{""page_index"":2,""viewing_time"":750}]","4526","instructions","223","994972","0.0-20.0","46833","","","","","",""
"","null","audio-keyboard-response","224","1007583","0.0-21.0-0.0","46833","","new_stimuli/mp3/melody_^3_^4_v2_v7_^1_^2_^3_3_^4_.mp3","","null","",""
"","1452","html-button-response","225","1009036","0.0-21.0-1.0","46833","","<p>Which tone was played first after the cadence?</p><p>Please respond as quickly and as accurately as possible!</p>","4","","1","new_stimuli/mp3/melody_^3_^4_v2_v7_^1_^2_^3_3_^4_.mp3"
"","515","html-button-response","226","1009552","0.0-21.0-2.0","46833","","<p>Which tone was played second after the cadence?</p><p>Please respond as quickly and as accurately as possible!</p>","5","","2","new_stimuli/mp3/melody_^3_^4_v2_v7_^1_^2_^3_3_^4_.mp3"
"","644","html-button-response","227","1010197","0.0-21.0-3.0","46833","","<p>Which tone was played third after the cadence?</p><p>Please respond as quickly and as accurately as possible!</p>","2","","3","new_stimuli/mp3/melody_^3_^4_v2_v7_^1_^2_^3_3_^4_.mp3"
"","764","html-button-response","228","1010963","0.0-21.0-4.0","46833","","<p>Which tone was played fourth after the cadence?</p><p>Please respond as quickly and as accurately as possible!</p>","11","","4","new_stimuli/mp3/melody_^3_^4_v2_v7_^1_^2_^3_3_^4_.mp3"
"","916","html-button-response","229","1011880","0.0-21.0-5.0","46833","","<p>Which tone was played fifth after the cadence?</p><p>Please respond as quickly and as accurately as possible!</p>","1","","5","new_stimuli/mp3/melody_^3_^4_v2_v7_^1_^2_^3_3_^4_.mp3"
"","1321","html-button-response","230","1013202","0.0-21.0-6.0","46833","","<p>Which tone was played sixth after the cadence?</p><p>Please respond as quickly and as accurately as possible!</p>","4","","6","new_stimuli/mp3/melody_^3_^4_v2_v7_^1_^2_^3_3_^4_.mp3"
"","143","html-button-response","231","1013346","0.0-21.0-7.0","46833","","<p>Which tone was played seventh after the cadence?</p><p>Please respond as quickly and as accurately as possible!</p>","4","","7","new_stimuli/mp3/melody_^3_^4_v2_v7_^1_^2_^3_3_^4_.mp3"
"","2361","html-button-response","232","1015707","0.0-21.0-8.0","46833","","<p>Which tone was played eight after the cadence?</p><p>Please respond as quickly and as accurately as possible!</p>","2","","8","new_stimuli/mp3/melody_^3_^4_v2_v7_^1_^2_^3_3_^4_.mp3"
"","2135","html-button-response","233","1017842","0.0-21.0-9.0","46833","","<p>Which tone was played nineth after the cadence?</p><p>Please respond as quickly and as accurately as possible!</p>","4","","9","new_stimuli/mp3/melody_^3_^4_v2_v7_^1_^2_^3_3_^4_.mp3"
"","null","audio-keyboard-response","234","1030455","0.0-21.0-0.1","46833","","new_stimuli/mp3/melody_v7_v6_v5_^6_v5_v4_^5_^6_v5_.mp3","","null","",""
"","7158","html-button-response","235","1037615","0.0-21.0-1.1","46833","","<p>Which tone was played first after the cadence?</p><p>Please respond as quickly and as accurately as possible!</p>","11","","1","new_stimuli/mp3/melody_v7_v6_v5_^6_v5_v4_^5_^6_v5_.mp3"
"","497","html-button-response","236","1038114","0.0-21.0-2.1","46833","","<p>Which tone was played second after the cadence?</p><p>Please respond as quickly and as accurately as possible!</p>","9","","2","new_stimuli/mp3/melody_v7_v6_v5_^6_v5_v4_^5_^6_v5_.mp3"
"","569","html-button-response","237","1038684","0.0-21.0-3.1","46833","","<p>Which tone was played third after the cadence?</p><p>Please respond as quickly and as accurately as possible!</p>","7","","3","new_stimuli/mp3/melody_v7_v6_v5_^6_v5_v4_^5_^6_v5_.mp3"
"","603","html-button-response","238","1039287","0.0-21.0-4.1","46833","","<p>Which tone was played fourth after the cadence?</p><p>Please respond as quickly and as accurately as possible!</p>","5","","4","new_stimuli/mp3/melody_v7_v6_v5_^6_v5_v4_^5_^6_v5_.mp3"
"","612","html-button-response","239","1039900","0.0-21.0-5.1","46833","","<p>Which tone was played fifth after the cadence?</p><p>Please respond as quickly and as accurately as possible!</p>","7","","5","new_stimuli/mp3/melody_v7_v6_v5_^6_v5_v4_^5_^6_v5_.mp3"
"","524","html-button-response","240","1040424","0.0-21.0-6.1","46833","","<p>Which tone was played sixth after the cadence?</p><p>Please respond as quickly and as accurately as possible!</p>","9","","6","new_stimuli/mp3/melody_v7_v6_v5_^6_v5_v4_^5_^6_v5_.mp3"
"","2527","html-button-response","241","1042953","0.0-21.0-7.1","46833","","<p>Which tone was played seventh after the cadence?</p><p>Please respond as quickly and as accurately as possible!</p>","12","","7","new_stimuli/mp3/melody_v7_v6_v5_^6_v5_v4_^5_^6_v5_.mp3"
"","418","html-button-response","242","1043372","0.0-21.0-8.1","46833","","<p>Which tone was played eight after the cadence?</p><p>Please respond as quickly and as accurately as possible!</p>","11","","8","new_stimuli/mp3/melody_v7_v6_v5_^6_v5_v4_^5_^6_v5_.mp3"
"","901","html-button-response","243","1044274","0.0-21.0-9.1","46833","","<p>Which tone was played nineth after the cadence?</p><p>Please respond as quickly and as accurately as possible!</p>","11","","9","new_stimuli/mp3/melody_v7_v6_v5_^6_v5_v4_^5_^6_v5_.mp3"
"","null","audio-keyboard-response","244","1057205","0.0-21.0-0.2","46833","","new_stimuli/mp3/melody_^5_^6_v5_v4_v3_v2_v1_^2_^3_buffer.mp3","","null","",""
"","950","html-button-response","245","1058155","0.0-21.0-1.2","46833","","<p>Which tone was played first after the cadence?</p><p>Please respond as quickly and as accurately as possible!</p>","7","","1","new_stimuli/mp3/melody_^5_^6_v5_v4_v3_v2_v1_^2_^3_buffer.mp3"
"","773","html-button-response","246","1058928","0.0-21.0-2.2","46833","","<p>Which tone was played second after the cadence?</p><p>Please respond as quickly and as accurately as possible!</p>","9","","2","new_stimuli/mp3/melody_^5_^6_v5_v4_v3_v2_v1_^2_^3_buffer.mp3"
"","579","html-button-response","247","1059508","0.0-21.0-3.2","46833","","<p>Which tone was played third after the cadence?</p><p>Please respond as quickly and as accurately as possible!</p>","7","","3","new_stimuli/mp3/melody_^5_^6_v5_v4_v3_v2_v1_^2_^3_buffer.mp3"
"","635","html-button-response","248","1060145","0.0-21.0-4.2","46833","","<p>Which tone was played fourth after the cadence?</p><p>Please respond as quickly and as accurately as possible!</p>","5","","4","new_stimuli/mp3/melody_^5_^6_v5_v4_v3_v2_v1_^2_^3_buffer.mp3"
"","1023","html-button-response","249","1061168","0.0-21.0-5.2","46833","","<p>Which tone was played fifth after the cadence?</p><p>Please respond as quickly and as accurately as possible!</p>","2","","5","new_stimuli/mp3/melody_^5_^6_v5_v4_v3_v2_v1_^2_^3_buffer.mp3"
"","460","html-button-response","250","1061627","0.0-21.0-6.2","46833","","<p>Which tone was played sixth after the cadence?</p><p>Please respond as quickly and as accurately as possible!</p>","0","","6","new_stimuli/mp3/melody_^5_^6_v5_v4_v3_v2_v1_^2_^3_buffer.mp3"
"","498","html-button-response","251","1062127","0.0-21.0-7.2","46833","","<p>Which tone was played seventh after the cadence?</p><p>Please respond as quickly and as accurately as possible!</p>","2","","7","new_stimuli/mp3/melody_^5_^6_v5_v4_v3_v2_v1_^2_^3_buffer.mp3"
"","546","html-button-response","252","1062674","0.0-21.0-8.2","46833","","<p>Which tone was played eight after the cadence?</p><p>Please respond as quickly and as accurately as possible!</p>","4","","8","new_stimuli/mp3/melody_^5_^6_v5_v4_v3_v2_v1_^2_^3_buffer.mp3"
"","1909","html-button-response","253","1064584","0.0-21.0-9.2","46833","","<p>Which tone was played nineth after the cadence?</p><p>Please respond as quickly and as accurately as possible!</p>","6","","9","new_stimuli/mp3/melody_^5_^6_v5_v4_v3_v2_v1_^2_^3_buffer.mp3"
"","null","audio-keyboard-response","254","1077488","0.0-21.0-0.3","46833","","new_stimuli/mp3/melody_^2_^4_v3_v2_v1_v3_v2+_^3_^5+_.mp3","","null","",""
"","1009","html-button-response","255","1078498","0.0-21.0-1.3","46833","","<p>Which tone was played first after the cadence?</p><p>Please respond as quickly and as accurately as possible!</p>","0","","1","new_stimuli/mp3/melody_^2_^4_v3_v2_v1_v3_v2+_^3_^5+_.mp3"
"","830","html-button-response","256","1079328","0.0-21.0-2.3","46833","","<p>Which tone was played second after the cadence?</p><p>Please respond as quickly and as accurately as possible!</p>","4","","2","new_stimuli/mp3/melody_^2_^4_v3_v2_v1_v3_v2+_^3_^5+_.mp3"
"","545","html-button-response","257","1079875","0.0-21.0-3.3","46833","","<p>Which tone was played third after the cadence?</p><p>Please respond as quickly and as accurately as possible!</p>","2","","3","new_stimuli/mp3/melody_^2_^4_v3_v2_v1_v3_v2+_^3_^5+_.mp3"
"","531","html-button-response","258","1080407","0.0-21.0-4.3","46833","","<p>Which tone was played fourth after the cadence?</p><p>Please respond as quickly and as accurately as possible!</p>","0","","4","new_stimuli/mp3/melody_^2_^4_v3_v2_v1_v3_v2+_^3_^5+_.mp3"
"","918","html-button-response","259","1081326","0.0-21.0-5.3","46833","","<p>Which tone was played fifth after the cadence?</p><p>Please respond as quickly and as accurately as possible!</p>","10","","5","new_stimuli/mp3/melody_^2_^4_v3_v2_v1_v3_v2+_^3_^5+_.mp3"
"","877","html-button-response","260","1082203","0.0-21.0-6.3","46833","","<p>Which tone was played sixth after the cadence?</p><p>Please respond as quickly and as accurately as possible!</p>","0","","6","new_stimuli/mp3/melody_^2_^4_v3_v2_v1_v3_v2+_^3_^5+_.mp3"
"","740","html-button-response","261","1082945","0.0-21.0-7.3","46833","","<p>Which tone was played seventh after the cadence?</p><p>Please respond as quickly and as accurately as possible!</p>","3","","7","new_stimuli/mp3/melody_^2_^4_v3_v2_v1_v3_v2+_^3_^5+_.mp3"
"","1828","html-button-response","262","1084774","0.0-21.0-8.3","46833","","<p>Which tone was played eight after the cadence?</p><p>Please respond as quickly and as accurately as possible!</p>","5","","8","new_stimuli/mp3/melody_^2_^4_v3_v2_v1_v3_v2+_^3_^5+_.mp3"
"","473","html-button-response","263","1085249","0.0-21.0-9.3","46833","","<p>Which tone was played nineth after the cadence?</p><p>Please respond as quickly and as accurately as possible!</p>","7","","9","new_stimuli/mp3/melody_^2_^4_v3_v2_v1_v3_v2+_^3_^5+_.mp3"
"","null","audio-keyboard-response","264","1097863","0.0-21.0-0.4","46833","","new_stimuli/mp3/melody_v5_v4_v6+_^7_^3+_v3_v2_v5_^4_.mp3","","null","",""
"","1273","html-button-response","265","1099137","0.0-21.0-1.4","46833","","<p>Which tone was played first after the cadence?</p><p>Please respond as quickly and as accurately as possible!</p>","7","","1","new_stimuli/mp3/melody_v5_v4_v6+_^7_^3+_v3_v2_v5_^4_.mp3"
"","563","html-button-response","266","1099701","0.0-21.0-2.4","46833","","<p>Which tone was played second after the cadence?</p><p>Please respond as quickly and as accurately as possible!</p>","5","","2","new_stimuli/mp3/melody_v5_v4_v6+_^7_^3+_v3_v2_v5_^4_.mp3"
"","1207","html-button-response","267","1100909","0.0-21.0-3.4","46833","","<p>Which tone was played third after the cadence?</p><p>Please respond as quickly and as accurately as possible!</p>","4","","3","new_stimuli/mp3/melody_v5_v4_v6+_^7_^3+_v3_v2_v5_^4_.mp3"
"","1675","html-button-response","268","1102585","0.0-21.0-4.4","46833","","<p>Which tone was played fourth after the cadence?</p><p>Please respond as quickly and as accurately as possible!</p>","10","","4","new_stimuli/mp3/melody_v5_v4_v6+_^7_^3+_v3_v2_v5_^4_.mp3"
"","482","html-button-response","269","1103068","0.0-21.0-5.4","46833","","<p>Which tone was played fifth after the cadence?</p><p>Please respond as quickly and as accurately as possible!</p>","11","","5","new_stimuli/mp3/melody_v5_v4_v6+_^7_^3+_v3_v2_v5_^4_.mp3"
"","893","html-button-response","270","1103962","0.0-21.0-6.4","46833","","<p>Which tone was played sixth after the cadence?</p><p>Please respond as quickly and as accurately as possible!</p>","2","","6","new_stimuli/mp3/melody_v5_v4_v6+_^7_^3+_v3_v2_v5_^4_.mp3"
"","951","html-button-response","271","1104913","0.0-21.0-7.4","46833","","<p>Which tone was played seventh after the cadence?</p><p>Please respond as quickly and as accurately as possible!</p>","3","","7","new_stimuli/mp3/melody_v5_v4_v6+_^7_^3+_v3_v2_v5_^4_.mp3"
"","1418","html-button-response","272","1106331","0.0-21.0-8.4","46833","","<p>Which tone was played eight after the cadence?</p><p>Please respond as quickly and as accurately as possible!</p>","5","","8","new_stimuli/mp3/melody_v5_v4_v6+_^7_^3+_v3_v2_v5_^4_.mp3"
"","441","html-button-response","273","1106775","0.0-21.0-9.4","46833","","<p>Which tone was played nineth after the cadence?</p><p>Please respond as quickly and as accurately as possible!</p>","7","","9","new_stimuli/mp3/melody_v5_v4_v6+_^7_^3+_v3_v2_v5_^4_.mp3"
"","null","audio-keyboard-response","274","1119446","0.0-21.0-0.5","46833","","new_stimuli/mp3/melody_^2_^3_^4_^5_^6_v5_v4_v3_v2_buffer.mp3","","null","",""
"","1441","html-button-response","275","1120889","0.0-21.0-1.5","46833","","<p>Which tone was played first after the cadence?</p><p>Please respond as quickly and as accurately as possible!</p>","2","","1","new_stimuli/mp3/melody_^2_^3_^4_^5_^6_v5_v4_v3_v2_buffer.mp3"
"","1079","html-button-response","276","1121969","0.0-21.0-2.5","46833","","<p>Which tone was played second after the cadence?</p><p>Please respond as quickly and as accurately as possible!</p>","4","","2","new_stimuli/mp3/melody_^2_^3_^4_^5_^6_v5_v4_v3_v2_buffer.mp3"
"","613","html-button-response","277","1122583","0.0-21.0-3.5","46833","","<p>Which tone was played third after the cadence?</p><p>Please respond as quickly and as accurately as possible!</p>","5","","3","new_stimuli/mp3/melody_^2_^3_^4_^5_^6_v5_v4_v3_v2_buffer.mp3"
"","546","html-button-response","278","1123129","0.0-21.0-4.5","46833","","<p>Which tone was played fourth after the cadence?</p><p>Please respond as quickly and as accurately as possible!</p>","7","","4","new_stimuli/mp3/melody_^2_^3_^4_^5_^6_v5_v4_v3_v2_buffer.mp3"
"","409","html-button-response","279","1123541","0.0-21.0-5.5","46833","","<p>Which tone was played fifth after the cadence?</p><p>Please respond as quickly and as accurately as possible!</p>","9","","5","new_stimuli/mp3/melody_^2_^3_^4_^5_^6_v5_v4_v3_v2_buffer.mp3"
"","426","html-button-response","280","1123967","0.0-21.0-6.5","46833","","<p>Which tone was played sixth after the cadence?</p><p>Please respond as quickly and as accurately as possible!</p>","7","","6","new_stimuli/mp3/melody_^2_^3_^4_^5_^6_v5_v4_v3_v2_buffer.mp3"
"","646","html-button-response","281","1124613","0.0-21.0-7.5","46833","","<p>Which tone was played seventh after the cadence?</p><p>Please respond as quickly and as accurately as possible!</p>","5","","7","new_stimuli/mp3/melody_^2_^3_^4_^5_^6_v5_v4_v3_v2_buffer.mp3"
"","1216","html-button-response","282","1125831","0.0-21.0-8.5","46833","","<p>Which tone was played eight after the cadence?</p><p>Please respond as quickly and as accurately as possible!</p>","4","","8","new_stimuli/mp3/melody_^2_^3_^4_^5_^6_v5_v4_v3_v2_buffer.mp3"
"","643","html-button-response","283","1126473","0.0-21.0-9.5","46833","","<p>Which tone was played nineth after the cadence?</p><p>Please respond as quickly and as accurately as possible!</p>","2","","9","new_stimuli/mp3/melody_^2_^3_^4_^5_^6_v5_v4_v3_v2_buffer.mp3"
"","null","audio-keyboard-response","284","1139010","0.0-21.0-0.6","46833","","new_stimuli/mp3/melody_^3_^4_^5 _^6_v5_v4_v3_v2_v1_.mp3","","null","",""
"","1008","html-button-response","285","1140019","0.0-21.0-1.6","46833","","<p>Which tone was played first after the cadence?</p><p>Please respond as quickly and as accurately as possible!</p>","4","","1","new_stimuli/mp3/melody_^3_^4_^5 _^6_v5_v4_v3_v2_v1_.mp3"
"","433","html-button-response","286","1140453","0.0-21.0-2.6","46833","","<p>Which tone was played second after the cadence?</p><p>Please respond as quickly and as accurately as possible!</p>","5","","2","new_stimuli/mp3/melody_^3_^4_^5 _^6_v5_v4_v3_v2_v1_.mp3"
"","435","html-button-response","287","1140888","0.0-21.0-3.6","46833","","<p>Which tone was played third after the cadence?</p><p>Please respond as quickly and as accurately as possible!</p>","7","","3","new_stimuli/mp3/melody_^3_^4_^5 _^6_v5_v4_v3_v2_v1_.mp3"
"","346","html-button-response","288","1141236","0.0-21.0-4.6","46833","","<p>Which tone was played fourth after the cadence?</p><p>Please respond as quickly and as accurately as possible!</p>","9","","4","new_stimuli/mp3/melody_^3_^4_^5 _^6_v5_v4_v3_v2_v1_.mp3"
"","407","html-button-response","289","1141645","0.0-21.0-5.6","46833","","<p>Which tone was played fifth after the cadence?</p><p>Please respond as quickly and as accurately as possible!</p>","7","","5","new_stimuli/mp3/melody_^3_^4_^5 _^6_v5_v4_v3_v2_v1_.mp3"
"","420","html-button-response","290","1142064","0.0-21.0-6.6","46833","","<p>Which tone was played sixth after the cadence?</p><p>Please respond as quickly and as accurately as possible!</p>","5","","6","new_stimuli/mp3/melody_^3_^4_^5 _^6_v5_v4_v3_v2_v1_.mp3"
"","757","html-button-response","291","1142822","0.0-21.0-7.6","46833","","<p>Which tone was played seventh after the cadence?</p><p>Please respond as quickly and as accurately as possible!</p>","4","","7","new_stimuli/mp3/melody_^3_^4_^5 _^6_v5_v4_v3_v2_v1_.mp3"
"","619","html-button-response","292","1143443","0.0-21.0-8.6","46833","","<p>Which tone was played eight after the cadence?</p><p>Please respond as quickly and as accurately as possible!</p>","2","","8","new_stimuli/mp3/melody_^3_^4_^5 _^6_v5_v4_v3_v2_v1_.mp3"
"","684","html-button-response","293","1144127","0.0-21.0-9.6","46833","","<p>Which tone was played nineth after the cadence?</p><p>Please respond as quickly and as accurately as possible!</p>","0","","9","new_stimuli/mp3/melody_^3_^4_^5 _^6_v5_v4_v3_v2_v1_.mp3"
"","40193","survey-text","294","1184323","0.0-22.0","46833","{""Q0"":""Singing tonic to identify first pitch (with solfeg + tonicizing), imgaining playing the notes on my primary instrument (piano) to get relative pitches""}","","","","",""
"","20726","survey-text","295","1205052","0.0-23.0","46833","{""Q0"":""Few typos here and there (nineth -> ninth), but overall very cool! ""}","","","","",""
"","9722","survey-text","296","1214774","0.0-24.0","46833","{""Q0"":""Nope, just sang to myself. ""}","","","","",""
"","12923","survey-text","297","1227698","0.0-25.0","46833","{""Q0"":""Headphones. Had one ear off so I could listen to myself sing.""}","","","","",""
"","2524","survey-text","298","1230221","0.0-26.0","46833","{""Q0"":""Male""}","","","","",""
"","2298","survey-text","299","1232520","0.0-27.0","46833","{""Q0"":""Yes""}","","","","",""
"[{""page_index"":0,""viewing_time"":6227}]","6227","instructions","300","1238750","0.0-28.0","46833","","","","","",""
