"view_history","rt","trial_type","trial_index","time_elapsed","internal_node_id","subject","responses","stimulus","button_pressed","key_press","response_sequence","melody"
"[{""page_index"":0,""viewing_time"":7024.244999996881},{""page_index"":1,""viewing_time"":25654.585000000225},{""page_index"":2,""viewing_time"":3778.0750000019907}]","36457.89499999955","instructions","0","36468","0.0-0.0","48542","","","","","",""
"","4884.695000000647","survey-text","1","41355","0.0-1.0","48542","{""Q0"":""37""}","","","","",""
"","12015.744999996969","survey-text","2","53372","0.0-2.0","48542","{""Q0"":""Masters""}","","","","",""
"","9303.920000002108","survey-text","3","62677","0.0-3.0","48542","{""Q0"":""Numbers""}","","","","",""
"","4556.499999998778","survey-text","4","67235","0.0-4.0","48542","{""Q0"":""No""}","","","","",""
"","11844.685000000027","survey-text","5","79081","0.0-5.0","48542","{""Q0"":""1""}","","","","",""
"","7472.475000002305","survey-text","6","86554","0.0-6.0","48542","{""Q0"":""0""}","","","","",""
"[{""page_index"":0,""viewing_time"":10625.104999999166},{""page_index"":1,""viewing_time"":23219.45499999856},{""page_index"":2,""viewing_time"":2103.2350000023143}]","35948.06999999855","instructions","7","122502","0.0-7.0","48542","","","","","",""
"","20147.299999996903","audio-button-response","8","142651","0.0-8.0","48542","","stimuli/long/c-do.mp3","0","","",""
"","20739.590000001044","audio-button-response","9","163392","0.0-9.0","48542","","stimuli/long/a-le.mp3","8","","",""
"[{""page_index"":0,""viewing_time"":10471.22500000114},{""page_index"":1,""viewing_time"":28764.909999998054}]","39236.49999999907","instructions","10","202627","0.0-10.0","48542","","","","","",""
"","12702.45999999679","audio-button-response","11","215332","0.0-11.0-0.0","48542","","stimuli/long/c-sol.mp3","7","","",""
"","12819.320000002335","audio-button-response","12","228156","0.0-11.0-0.1","48542","","stimuli/long/a-sol.mp3","7","","",""
"","11924.13000000306","audio-button-response","13","240081","0.0-11.0-0.2","48542","","stimuli/long/c-do8.mp3","0","","",""
"","15598.989999998594","audio-button-response","14","255682","0.0-11.0-0.3","48542","","stimuli/long/e-me.mp3","2","","",""
"","null","audio-button-response","15","275684","0.0-11.0-0.4","48542","","stimuli/long/a-ti.mp3","null","","",""
"","10856.619999998657","audio-button-response","16","286542","0.0-11.0-0.5","48542","","stimuli/long/c-ra.mp3","2","","",""
"","8146.300000000396","audio-button-response","17","294690","0.0-11.0-0.6","48542","","stimuli/long/c-do.mp3","0","","",""
"","7377.939999998547","audio-button-response","18","302069","0.0-11.0-0.7","48542","","stimuli/long/a-do8.mp3","0","","",""
"","15977.60500000004","audio-button-response","19","318047","0.0-11.0-0.8","48542","","stimuli/long/c-me.mp3","8","","",""
"","15394.729999999981","audio-button-response","20","333445","0.0-11.0-0.9","48542","","stimuli/long/c-fa.mp3","3","","",""
"","10527.734999999695","audio-button-response","21","343974","0.0-11.0-0.10","48542","","stimuli/long/e-sol.mp3","7","","",""
"","9186.370000003139","audio-button-response","22","353162","0.0-11.0-0.11","48542","","stimuli/long/a-fi.mp3","1","","",""
"","13186.624999998487","audio-button-response","23","366350","0.0-11.0-0.12","48542","","stimuli/long/e-ra.mp3","2","","",""
"","7899.265000000014","audio-button-response","24","374250","0.0-11.0-0.13","48542","","stimuli/long/a-do.mp3","0","","",""
"","10922.444999996515","audio-button-response","25","385174","0.0-11.0-0.14","48542","","stimuli/long/e-mi.mp3","8","","",""
"","12801.344999999856","audio-button-response","26","397976","0.0-11.0-0.15","48542","","stimuli/long/e-do8.mp3","9","","",""
"","14949.35500000068","audio-button-response","27","412927","0.0-11.0-0.16","48542","","stimuli/long/a-me.mp3","5","","",""
"","12012.575000000652","audio-button-response","28","424941","0.0-11.0-0.17","48542","","stimuli/long/c-le.mp3","8","","",""
"","11095.020000000659","audio-button-response","29","436037","0.0-11.0-0.18","48542","","stimuli/long/e-ti.mp3","10","","",""
"","14322.650000001886","audio-button-response","30","450361","0.0-11.0-0.19","48542","","stimuli/long/c-ti.mp3","12","","",""
"","8158.45999999874","audio-button-response","31","458521","0.0-11.0-0.20","48542","","stimuli/long/e-do.mp3","0","","",""
"","15148.49999999936","audio-button-response","32","473670","0.0-11.0-0.21","48542","","stimuli/long/e-fi.mp3","10","","",""
"","12917.11999999825","audio-button-response","33","486589","0.0-11.0-0.22","48542","","stimuli/long/e-fa.mp3","9","","",""
"","11862.655000000843","audio-button-response","34","498453","0.0-11.0-0.23","48542","","stimuli/long/e-la.mp3","11","","",""
"","16183.440000000759","audio-button-response","35","514637","0.0-11.0-0.24","48542","","stimuli/long/a-te.mp3","5","","",""
"","12004.440000000526","audio-button-response","36","526643","0.0-11.0-0.25","48542","","stimuli/long/c-re.mp3","7","","",""
"","11945.535000002594","audio-button-response","37","538590","0.0-11.0-0.26","48542","","stimuli/long/c-la.mp3","9","","",""
"","12866.219999999856","audio-button-response","38","551457","0.0-11.0-0.27","48542","","stimuli/long/e-re.mp3","3","","",""
"","8026.389999999083","audio-button-response","39","559490","0.0-11.0-0.28","48542","","stimuli/long/c-mi.mp3","0","","",""
"","13655.36499999871","audio-button-response","40","573146","0.0-11.0-0.29","48542","","stimuli/long/e-le.mp3","12","","",""
"","12484.304999998072","audio-button-response","41","585632","0.0-11.0-0.30","48542","","stimuli/long/a-la.mp3","8","","",""
"","12031.015000000363","audio-button-response","42","597664","0.0-11.0-0.31","48542","","stimuli/long/c-fi.mp3","3","","",""
"","12822.935000000172","audio-button-response","43","610488","0.0-11.0-0.32","48542","","stimuli/long/e-te.mp3","11","","",""
"","11000.98000000068","audio-button-response","44","621490","0.0-11.0-0.33","48542","","stimuli/long/a-fa.mp3","5","","",""
"","12918.965000000782","audio-button-response","45","634411","0.0-11.0-0.34","48542","","stimuli/long/a-re.mp3","2","","",""
"","13674.885000000359","audio-button-response","46","648087","0.0-11.0-0.35","48542","","stimuli/long/a-le.mp3","9","","",""
"","13882.454999999027","audio-button-response","47","661970","0.0-11.0-0.36","48542","","stimuli/long/a-mi.mp3","4","","",""
"","11277.879999997793","audio-button-response","48","673250","0.0-11.0-0.37","48542","","stimuli/long/a-ra.mp3","2","","",""
"[{""page_index"":0,""viewing_time"":40480.18999999843},{""page_index"":1,""viewing_time"":1391.9650000025285}]","41872.479999998235","instructions","49","715121","0.0-12.0","48542","","","","","",""
"","null","audio-keyboard-response","50","724299","0.0-13.0-0.0","48542","","new_stimuli/mp3/melody_^2_v7-_.mp3","","null","",""
"","8012.015000000247","html-button-response","51","732312","0.0-13.0-1.0","48542","","<p>Which tone was played first after the cadence?</p><p>Please respond as quickly and as accurately as possible!</p>","4","","1","new_stimuli/mp3/melody_^2_v7-_.mp3"
"","8951.564999999362","html-button-response","52","741265","0.0-13.0-2.0","48542","","<p>Which tone was played second after the cadence?</p><p>Please respond as quickly and as accurately as possible!</p>","2","","2","new_stimuli/mp3/melody_^2_v7-_.mp3"
"","null","audio-keyboard-response","53","750460","0.0-13.0-0.1","48542","","new_stimuli/mp3/melody_v3_v2_buffer.mp3","","null","",""
"","9027.955000001355","html-button-response","54","759489","0.0-13.0-1.1","48542","","<p>Which tone was played first after the cadence?</p><p>Please respond as quickly and as accurately as possible!</p>","5","","1","new_stimuli/mp3/melody_v3_v2_buffer.mp3"
"","1426.4049999983981","html-button-response","55","760917","0.0-13.0-2.1","48542","","<p>Which tone was played second after the cadence?</p><p>Please respond as quickly and as accurately as possible!</p>","3","","2","new_stimuli/mp3/melody_v3_v2_buffer.mp3"
"","null","audio-keyboard-response","56","769982","0.0-13.0-0.2","48542","","new_stimuli/mp3/melody_v2_v1_.mp3","","null","",""
"","8467.740000000107","html-button-response","57","778450","0.0-13.0-1.2","48542","","<p>Which tone was played first after the cadence?</p><p>Please respond as quickly and as accurately as possible!</p>","2","","1","new_stimuli/mp3/melody_v2_v1_.mp3"
"","842.1200000011595","html-button-response","58","779294","0.0-13.0-2.2","48542","","<p>Which tone was played second after the cadence?</p><p>Please respond as quickly and as accurately as possible!</p>","0","","2","new_stimuli/mp3/melody_v2_v1_.mp3"
"","null","audio-keyboard-response","59","788748","0.0-13.0-0.3","48542","","new_stimuli/mp3/melody_^3_v4+_buffer.mp3","","null","",""
"","5601.935000002384","html-button-response","60","794352","0.0-13.0-1.3","48542","","<p>Which tone was played first after the cadence?</p><p>Please respond as quickly and as accurately as possible!</p>","7","","1","new_stimuli/mp3/melody_^3_v4+_buffer.mp3"
"","752.7649999974528","html-button-response","61","795106","0.0-13.0-2.3","48542","","<p>Which tone was played second after the cadence?</p><p>Please respond as quickly and as accurately as possible!</p>","9","","2","new_stimuli/mp3/melody_^3_v4+_buffer.mp3"
"","null","audio-keyboard-response","62","804561","0.0-13.0-0.4","48542","","new_stimuli/mp3/melody_v7_v3_buffer.mp3","","null","",""
"","7825.464999998105","html-button-response","63","812387","0.0-13.0-1.4","48542","","<p>Which tone was played first after the cadence?</p><p>Please respond as quickly and as accurately as possible!</p>","11","","1","new_stimuli/mp3/melody_v7_v3_buffer.mp3"
"","1858.5449999991106","html-button-response","64","814247","0.0-13.0-2.4","48542","","<p>Which tone was played second after the cadence?</p><p>Please respond as quickly and as accurately as possible!</p>","7","","2","new_stimuli/mp3/melody_v7_v3_buffer.mp3"
"","null","audio-keyboard-response","65","823257","0.0-13.0-0.5","48542","","new_stimuli/mp3/melody_^1_^2+_.mp3","","null","",""
"","4795.97999999905","html-button-response","66","828055","0.0-13.0-1.5","48542","","<p>Which tone was played first after the cadence?</p><p>Please respond as quickly and as accurately as possible!</p>","0","","1","new_stimuli/mp3/melody_^1_^2+_.mp3"
"","2000.3649999998743","html-button-response","67","830056","0.0-13.0-2.5","48542","","<p>Which tone was played second after the cadence?</p><p>Please respond as quickly and as accurately as possible!</p>","3","","2","new_stimuli/mp3/melody_^1_^2+_.mp3"
"","null","audio-keyboard-response","68","839226","0.0-13.0-0.6","48542","","new_stimuli/mp3/melody_^5_^1+_.mp3","","null","",""
"","7772.030000000144","html-button-response","69","847000","0.0-13.0-1.6","48542","","<p>Which tone was played first after the cadence?</p><p>Please respond as quickly and as accurately as possible!</p>","10","","1","new_stimuli/mp3/melody_^5_^1+_.mp3"
"","1125.7550000008196","html-button-response","70","848127","0.0-13.0-2.6","48542","","<p>Which tone was played second after the cadence?</p><p>Please respond as quickly and as accurately as possible!</p>","0","","2","new_stimuli/mp3/melody_^5_^1+_.mp3"
"","null","audio-keyboard-response","71","857297","0.0-13.0-0.7","48542","","new_stimuli/mp3/melody_v5_v1+_.mp3","","null","",""
"","3396.904999997816","html-button-response","72","860695","0.0-13.0-1.7","48542","","<p>Which tone was played first after the cadence?</p><p>Please respond as quickly and as accurately as possible!</p>","7","","1","new_stimuli/mp3/melody_v5_v1+_.mp3"
"","4875.439999999828","html-button-response","73","865572","0.0-13.0-2.7","48542","","<p>Which tone was played second after the cadence?</p><p>Please respond as quickly and as accurately as possible!</p>","1","","2","new_stimuli/mp3/melody_v5_v1+_.mp3"
"","null","audio-keyboard-response","74","874868","0.0-13.0-0.8","48542","","new_stimuli/mp3/melody_3_^6_buffer.mp3","","null","",""
"","14341.640000002342","html-button-response","75","889210","0.0-13.0-1.8","48542","","<p>Which tone was played first after the cadence?</p><p>Please respond as quickly and as accurately as possible!</p>","5","","1","new_stimuli/mp3/melody_3_^6_buffer.mp3"
"","1835.33499999973","html-button-response","76","891047","0.0-13.0-2.8","48542","","<p>Which tone was played second after the cadence?</p><p>Please respond as quickly and as accurately as possible!</p>","9","","2","new_stimuli/mp3/melody_3_^6_buffer.mp3"
"","null","audio-keyboard-response","77","900478","0.0-13.0-0.9","48542","","new_stimuli/mp3/melody_v4_v3_buffer.mp3","","null","",""
"","10932.614999997895","html-button-response","78","911412","0.0-13.0-1.9","48542","","<p>Which tone was played first after the cadence?</p><p>Please respond as quickly and as accurately as possible!</p>","5","","1","new_stimuli/mp3/melody_v4_v3_buffer.mp3"
"","2295.429999998305","html-button-response","79","913710","0.0-13.0-2.9","48542","","<p>Which tone was played second after the cadence?</p><p>Please respond as quickly and as accurately as possible!</p>","3","","2","new_stimuli/mp3/melody_v4_v3_buffer.mp3"
"[{""page_index"":0,""viewing_time"":4096.894999998738},{""page_index"":1,""viewing_time"":1335.8899999985006},{""page_index"":2,""viewing_time"":2606.0150000012945}]","8039.109999997891","instructions","80","921749","0.0-14.0","48542","","","","","",""
"","null","audio-keyboard-response","81","931702","0.0-15.0-0.0","48542","","new_stimuli/mp3/melody_v5_v4_v3_buffer.mp3","","null","",""
"","2144.5299999976996","html-button-response","82","933848","0.0-15.0-1.0","48542","","<p>Which tone was played first after the cadence?</p><p>Please respond as quickly and as accurately as possible!</p>","7","","1","new_stimuli/mp3/melody_v5_v4_v3_buffer.mp3"
"","680.7450000015087","html-button-response","83","934530","0.0-15.0-2.0","48542","","<p>Which tone was played second after the cadence?</p><p>Please respond as quickly and as accurately as possible!</p>","5","","2","new_stimuli/mp3/melody_v5_v4_v3_buffer.mp3"
"","1268.3599999982398","html-button-response","84","935799","0.0-15.0-3.0","48542","","<p>Which tone was played third after the cadence?</p><p>Please respond as quickly and as accurately as possible!</p>","4","","3","new_stimuli/mp3/melody_v5_v4_v3_buffer.mp3"
"","null","audio-keyboard-response","85","945360","0.0-15.0-0.1","48542","","new_stimuli/mp3/melody_v3_v2_v1_.mp3","","null","",""
"","2387.910000001313","html-button-response","86","947749","0.0-15.0-1.1","48542","","<p>Which tone was played first after the cadence?</p><p>Please respond as quickly and as accurately as possible!</p>","4","","1","new_stimuli/mp3/melody_v3_v2_v1_.mp3"
"","638.6999999996042","html-button-response","87","948389","0.0-15.0-2.1","48542","","<p>Which tone was played second after the cadence?</p><p>Please respond as quickly and as accurately as possible!</p>","2","","2","new_stimuli/mp3/melody_v3_v2_v1_.mp3"
"","842.6099999996368","html-button-response","88","949233","0.0-15.0-3.1","48542","","<p>Which tone was played third after the cadence?</p><p>Please respond as quickly and as accurately as possible!</p>","0","","3","new_stimuli/mp3/melody_v3_v2_v1_.mp3"
"","null","audio-keyboard-response","89","958793","0.0-15.0-0.2","48542","","new_stimuli/mp3/melody_v1_v7-_^7_.mp3","","null","",""
"","7716.4149999989895","html-button-response","90","966510","0.0-15.0-1.2","48542","","<p>Which tone was played first after the cadence?</p><p>Please respond as quickly and as accurately as possible!</p>","11","","1","new_stimuli/mp3/melody_v1_v7-_^7_.mp3"
"","1450.3399999993853","html-button-response","91","967962","0.0-15.0-2.2","48542","","<p>Which tone was played second after the cadence?</p><p>Please respond as quickly and as accurately as possible!</p>","7","","2","new_stimuli/mp3/melody_v1_v7-_^7_.mp3"
"","1074.8600000006845","html-button-response","92","969038","0.0-15.0-3.2","48542","","<p>Which tone was played third after the cadence?</p><p>Please respond as quickly and as accurately as possible!</p>","9","","3","new_stimuli/mp3/melody_v1_v7-_^7_.mp3"
"","null","audio-keyboard-response","93","979016","0.0-15.0-0.3","48542","","new_stimuli/mp3/melody_v2_v5_^3_buffer.mp3","","null","",""
"","6936.2849999998","html-button-response","94","985954","0.0-15.0-1.3","48542","","<p>Which tone was played first after the cadence?</p><p>Please respond as quickly and as accurately as possible!</p>","4","","1","new_stimuli/mp3/melody_v2_v5_^3_buffer.mp3"
"","1618.0199999980396","html-button-response","95","987573","0.0-15.0-2.3","48542","","<p>Which tone was played second after the cadence?</p><p>Please respond as quickly and as accurately as possible!</p>","9","","2","new_stimuli/mp3/melody_v2_v5_^3_buffer.mp3"
"","760.8650000001071","html-button-response","96","988336","0.0-15.0-3.3","48542","","<p>Which tone was played third after the cadence?</p><p>Please respond as quickly and as accurately as possible!</p>","7","","3","new_stimuli/mp3/melody_v2_v5_^3_buffer.mp3"
"","null","audio-keyboard-response","97","997974","0.0-15.0-0.4","48542","","new_stimuli/mp3/melody_6_^1_v5_.mp3","","null","",""
"","5630.179999996442","html-button-response","98","1003606","0.0-15.0-1.4","48542","","<p>Which tone was played first after the cadence?</p><p>Please respond as quickly and as accurately as possible!</p>","9","","1","new_stimuli/mp3/melody_6_^1_v5_.mp3"
"","4035.840000000433","html-button-response","99","1007643","0.0-15.0-2.4","48542","","<p>Which tone was played second after the cadence?</p><p>Please respond as quickly and as accurately as possible!</p>","12","","2","new_stimuli/mp3/melody_6_^1_v5_.mp3"
"","2216.710000000545","html-button-response","100","1009862","0.0-15.0-3.4","48542","","<p>Which tone was played third after the cadence?</p><p>Please respond as quickly and as accurately as possible!</p>","11","","3","new_stimuli/mp3/melody_6_^1_v5_.mp3"
"","null","audio-keyboard-response","101","1019765","0.0-15.0-0.5","48542","","new_stimuli/mp3/melody_^1_v6_v5+_.mp3","","null","",""
"","6736.419999997481","html-button-response","102","1026503","0.0-15.0-1.5","48542","","<p>Which tone was played first after the cadence?</p><p>Please respond as quickly and as accurately as possible!</p>","12","","1","new_stimuli/mp3/melody_^1_v6_v5+_.mp3"
"","4160.595000001253","html-button-response","103","1030665","0.0-15.0-2.5","48542","","<p>Which tone was played second after the cadence?</p><p>Please respond as quickly and as accurately as possible!</p>","8","","2","new_stimuli/mp3/melody_^1_v6_v5+_.mp3"
"","3169.335000002291","html-button-response","104","1033836","0.0-15.0-3.5","48542","","<p>Which tone was played third after the cadence?</p><p>Please respond as quickly and as accurately as possible!</p>","7","","3","new_stimuli/mp3/melody_^1_v6_v5+_.mp3"
"","null","audio-keyboard-response","105","1043530","0.0-15.0-0.6","48542","","new_stimuli/mp3/melody_v4_v3_v2_buffer.mp3","","null","",""
"","4782.005000001052","html-button-response","106","1048313","0.0-15.0-1.6","48542","","<p>Which tone was played first after the cadence?</p><p>Please respond as quickly and as accurately as possible!</p>","5","","1","new_stimuli/mp3/melody_v4_v3_v2_buffer.mp3"
"","984.2949999982957","html-button-response","107","1049299","0.0-15.0-2.6","48542","","<p>Which tone was played second after the cadence?</p><p>Please respond as quickly and as accurately as possible!</p>","4","","2","new_stimuli/mp3/melody_v4_v3_v2_buffer.mp3"
"","4388.385000002105","html-button-response","108","1053689","0.0-15.0-3.6","48542","","<p>Which tone was played third after the cadence?</p><p>Please respond as quickly and as accurately as possible!</p>","2","","3","new_stimuli/mp3/melody_v4_v3_v2_buffer.mp3"
"","null","audio-keyboard-response","109","1063197","0.0-15.0-0.7","48542","","new_stimuli/mp3/melody_1_v1+_^2_.mp3","","null","",""
"","1100.835000001127","html-button-response","110","1064299","0.0-15.0-1.7","48542","","<p>Which tone was played first after the cadence?</p><p>Please respond as quickly and as accurately as possible!</p>","0","","1","new_stimuli/mp3/melody_1_v1+_^2_.mp3"
"","510.40999999898486","html-button-response","111","1064811","0.0-15.0-2.7","48542","","<p>Which tone was played second after the cadence?</p><p>Please respond as quickly and as accurately as possible!</p>","1","","2","new_stimuli/mp3/melody_1_v1+_^2_.mp3"
"","644.3700000017416","html-button-response","112","1065456","0.0-15.0-3.7","48542","","<p>Which tone was played third after the cadence?</p><p>Please respond as quickly and as accurately as possible!</p>","2","","3","new_stimuli/mp3/melody_1_v1+_^2_.mp3"
"","null","audio-keyboard-response","113","1075044","0.0-15.0-0.8","48542","","new_stimuli/mp3/melody_v1_v7-_7-_buffer.mp3","","null","",""
"","12246.40000000014","html-button-response","114","1087291","0.0-15.0-1.8","48542","","<p>Which tone was played first after the cadence?</p><p>Please respond as quickly and as accurately as possible!</p>","4","","1","new_stimuli/mp3/melody_v1_v7-_7-_buffer.mp3"
"","403.93500000215136","html-button-response","115","1087697","0.0-15.0-2.8","48542","","<p>Which tone was played second after the cadence?</p><p>Please respond as quickly and as accurately as possible!</p>","3","","2","new_stimuli/mp3/melody_v1_v7-_7-_buffer.mp3"
"","216.39499999932013","html-button-response","116","1087914","0.0-15.0-3.8","48542","","<p>Which tone was played third after the cadence?</p><p>Please respond as quickly and as accurately as possible!</p>","3","","3","new_stimuli/mp3/melody_v1_v7-_7-_buffer.mp3"
"[{""page_index"":0,""viewing_time"":5816.859999998938},{""page_index"":1,""viewing_time"":2416.294999998994},{""page_index"":2,""viewing_time"":1952.4400000011083}]","10185.839999998221","instructions","117","1098100","0.0-16.0","48542","","","","","",""
"","null","audio-keyboard-response","118","1108683","0.0-17.0-0.0","48542","","new_stimuli/mp3/melody_v2_2_^3_^4_v2_.mp3","","null","",""
"","4022.509999998845","html-button-response","119","1112706","0.0-17.0-1.0","48542","","<p>Which tone was played first after the cadence?</p><p>Please respond as quickly and as accurately as possible!</p>","1","","1","new_stimuli/mp3/melody_v2_2_^3_^4_v2_.mp3"
"","672.2049999989104","html-button-response","120","1113380","0.0-17.0-2.0","48542","","<p>Which tone was played second after the cadence?</p><p>Please respond as quickly and as accurately as possible!</p>","1","","2","new_stimuli/mp3/melody_v2_2_^3_^4_v2_.mp3"
"","2056.919999999227","html-button-response","121","1115438","0.0-17.0-3.0","48542","","<p>Which tone was played third after the cadence?</p><p>Please respond as quickly and as accurately as possible!</p>","4","","3","new_stimuli/mp3/melody_v2_2_^3_^4_v2_.mp3"
"","974.494999998482","html-button-response","122","1116414","0.0-17.0-4.0","48542","","<p>Which tone was played fourth after the cadence?</p><p>Please respond as quickly and as accurately as possible!</p>","5","","4","new_stimuli/mp3/melody_v2_2_^3_^4_v2_.mp3"
"","1524.5250000008382","html-button-response","123","1117940","0.0-17.0-5.0","48542","","<p>Which tone was played fifth after the cadence?</p><p>Please respond as quickly and as accurately as possible!</p>","1","","5","new_stimuli/mp3/melody_v2_2_^3_^4_v2_.mp3"
"","null","audio-keyboard-response","124","1128645","0.0-17.0-0.1","48542","","new_stimuli/mp3/melody_^6_v5_v4_v3_v2_buffer.mp3","","null","",""
"","3364.1349999997765","html-button-response","125","1132010","0.0-17.0-1.1","48542","","<p>Which tone was played first after the cadence?</p><p>Please respond as quickly and as accurately as possible!</p>","9","","1","new_stimuli/mp3/melody_^6_v5_v4_v3_v2_buffer.mp3"
"","1070.9300000017975","html-button-response","126","1133083","0.0-17.0-2.1","48542","","<p>Which tone was played second after the cadence?</p><p>Please respond as quickly and as accurately as possible!</p>","7","","2","new_stimuli/mp3/melody_^6_v5_v4_v3_v2_buffer.mp3"
"","606.4750000005588","html-button-response","127","1133691","0.0-17.0-3.1","48542","","<p>Which tone was played third after the cadence?</p><p>Please respond as quickly and as accurately as possible!</p>","5","","3","new_stimuli/mp3/melody_^6_v5_v4_v3_v2_buffer.mp3"
"","4996.709999999497","html-button-response","128","1138688","0.0-17.0-4.1","48542","","<p>Which tone was played fourth after the cadence?</p><p>Please respond as quickly and as accurately as possible!</p>","4","","4","new_stimuli/mp3/melody_^6_v5_v4_v3_v2_buffer.mp3"
"","2776.3599999998696","html-button-response","129","1141466","0.0-17.0-5.1","48542","","<p>Which tone was played fifth after the cadence?</p><p>Please respond as quickly and as accurately as possible!</p>","2","","5","new_stimuli/mp3/melody_^6_v5_v4_v3_v2_buffer.mp3"
"","null","audio-keyboard-response","130","1152409","0.0-17.0-0.2","48542","","new_stimuli/mp3/melody_v5-_v3_3_^4+_v3_.mp3","","null","",""
"","6867.920000000624","html-button-response","131","1159278","0.0-17.0-1.2","48542","","<p>Which tone was played first after the cadence?</p><p>Please respond as quickly and as accurately as possible!</p>","3","","1","new_stimuli/mp3/melody_v5-_v3_3_^4+_v3_.mp3"
"","543.4649999989197","html-button-response","132","1159823","0.0-17.0-2.2","48542","","<p>Which tone was played second after the cadence?</p><p>Please respond as quickly and as accurately as possible!</p>","2","","2","new_stimuli/mp3/melody_v5-_v3_3_^4+_v3_.mp3"
"","492.40999999898486","html-button-response","133","1160317","0.0-17.0-3.2","48542","","<p>Which tone was played third after the cadence?</p><p>Please respond as quickly and as accurately as possible!</p>","2","","3","new_stimuli/mp3/melody_v5-_v3_3_^4+_v3_.mp3"
"","632.8049999976065","html-button-response","134","1160951","0.0-17.0-4.2","48542","","<p>Which tone was played fourth after the cadence?</p><p>Please respond as quickly and as accurately as possible!</p>","3","","4","new_stimuli/mp3/melody_v5-_v3_3_^4+_v3_.mp3"
"","1110.66500000027","html-button-response","135","1162063","0.0-17.0-5.2","48542","","<p>Which tone was played fifth after the cadence?</p><p>Please respond as quickly and as accurately as possible!</p>","2","","5","new_stimuli/mp3/melody_v5-_v3_3_^4+_v3_.mp3"
"","null","audio-keyboard-response","136","1172645","0.0-17.0-0.3","48542","","new_stimuli/mp3/melody_v5_v4_v3_v2_v1 _buffer.mp3","","null","",""
"","2020.120000001043","html-button-response","137","1174666","0.0-17.0-1.3","48542","","<p>Which tone was played first after the cadence?</p><p>Please respond as quickly and as accurately as possible!</p>","7","","1","new_stimuli/mp3/melody_v5_v4_v3_v2_v1 _buffer.mp3"
"","695.7450000008103","html-button-response","138","1175363","0.0-17.0-2.3","48542","","<p>Which tone was played second after the cadence?</p><p>Please respond as quickly and as accurately as possible!</p>","5","","2","new_stimuli/mp3/melody_v5_v4_v3_v2_v1 _buffer.mp3"
"","680.7049999989104","html-button-response","139","1176045","0.0-17.0-3.3","48542","","<p>Which tone was played third after the cadence?</p><p>Please respond as quickly and as accurately as possible!</p>","3","","3","new_stimuli/mp3/melody_v5_v4_v3_v2_v1 _buffer.mp3"
"","1795.2049999984447","html-button-response","140","1177841","0.0-17.0-4.3","48542","","<p>Which tone was played fourth after the cadence?</p><p>Please respond as quickly and as accurately as possible!</p>","2","","4","new_stimuli/mp3/melody_v5_v4_v3_v2_v1 _buffer.mp3"
"","778.9750000010245","html-button-response","141","1178623","0.0-17.0-5.3","48542","","<p>Which tone was played fifth after the cadence?</p><p>Please respond as quickly and as accurately as possible!</p>","0","","5","new_stimuli/mp3/melody_v5_v4_v3_v2_v1 _buffer.mp3"
"","null","audio-keyboard-response","142","1189258","0.0-17.0-0.4","48542","","new_stimuli/mp3/melody_v5_^6+_^7_^1_5_.mp3","","null","",""
"","11400.965000000782","html-button-response","143","1200660","0.0-17.0-1.4","48542","","<p>Which tone was played first after the cadence?</p><p>Please respond as quickly and as accurately as possible!</p>","2","","1","new_stimuli/mp3/melody_v5_^6+_^7_^1_5_.mp3"
"","1426.599999998929","html-button-response","144","1202088","0.0-17.0-2.4","48542","","<p>Which tone was played second after the cadence?</p><p>Please respond as quickly and as accurately as possible!</p>","4","","2","new_stimuli/mp3/melody_v5_^6+_^7_^1_5_.mp3"
"","1132.1950000019278","html-button-response","145","1203222","0.0-17.0-3.4","48542","","<p>Which tone was played third after the cadence?</p><p>Please respond as quickly and as accurately as possible!</p>","5","","3","new_stimuli/mp3/melody_v5_^6+_^7_^1_5_.mp3"
"","1102.7199999990407","html-button-response","146","1204326","0.0-17.0-4.4","48542","","<p>Which tone was played fourth after the cadence?</p><p>Please respond as quickly and as accurately as possible!</p>","7","","4","new_stimuli/mp3/melody_v5_^6+_^7_^1_5_.mp3"
"","3642.574999998091","html-button-response","147","1207970","0.0-17.0-5.4","48542","","<p>Which tone was played fifth after the cadence?</p><p>Please respond as quickly and as accurately as possible!</p>","5","","5","new_stimuli/mp3/melody_v5_^6+_^7_^1_5_.mp3"
"","null","audio-keyboard-response","148","1218915","0.0-17.0-0.5","48542","","new_stimuli/mp3/melody_^5_^6_v5_v4_v3_buffer.mp3","","null","",""
"","5044.644999998156","html-button-response","149","1223960","0.0-17.0-1.5","48542","","<p>Which tone was played first after the cadence?</p><p>Please respond as quickly and as accurately as possible!</p>","7","","1","new_stimuli/mp3/melody_^5_^6_v5_v4_v3_buffer.mp3"
"","1322.1350000023376","html-button-response","150","1225284","0.0-17.0-2.5","48542","","<p>Which tone was played second after the cadence?</p><p>Please respond as quickly and as accurately as possible!</p>","9","","2","new_stimuli/mp3/melody_^5_^6_v5_v4_v3_buffer.mp3"
"","705.4050000007264","html-button-response","151","1225991","0.0-17.0-3.5","48542","","<p>Which tone was played third after the cadence?</p><p>Please respond as quickly and as accurately as possible!</p>","7","","3","new_stimuli/mp3/melody_^5_^6_v5_v4_v3_buffer.mp3"
"","932.4400000006426","html-button-response","152","1226925","0.0-17.0-4.5","48542","","<p>Which tone was played fourth after the cadence?</p><p>Please respond as quickly and as accurately as possible!</p>","5","","4","new_stimuli/mp3/melody_^5_^6_v5_v4_v3_buffer.mp3"
"","4660.469999998808","html-button-response","153","1231587","0.0-17.0-5.5","48542","","<p>Which tone was played fifth after the cadence?</p><p>Please respond as quickly and as accurately as possible!</p>","4","","5","new_stimuli/mp3/melody_^5_^6_v5_v4_v3_buffer.mp3"
"","null","audio-keyboard-response","154","1242168","0.0-17.0-0.6","48542","","new_stimuli/mp3/melody_v5_v4_v3_v2_v1_.mp3","","null","",""
"","3594.3950000000186","html-button-response","155","1245764","0.0-17.0-1.6","48542","","<p>Which tone was played first after the cadence?</p><p>Please respond as quickly and as accurately as possible!</p>","7","","1","new_stimuli/mp3/melody_v5_v4_v3_v2_v1_.mp3"
"","957.1150000011548","html-button-response","156","1246723","0.0-17.0-2.6","48542","","<p>Which tone was played second after the cadence?</p><p>Please respond as quickly and as accurately as possible!</p>","5","","2","new_stimuli/mp3/melody_v5_v4_v3_v2_v1_.mp3"
"","875.8400000005495","html-button-response","157","1247600","0.0-17.0-3.6","48542","","<p>Which tone was played third after the cadence?</p><p>Please respond as quickly and as accurately as possible!</p>","4","","3","new_stimuli/mp3/melody_v5_v4_v3_v2_v1_.mp3"
"","930.5800000000745","html-button-response","158","1248532","0.0-17.0-4.6","48542","","<p>Which tone was played fourth after the cadence?</p><p>Please respond as quickly and as accurately as possible!</p>","2","","4","new_stimuli/mp3/melody_v5_v4_v3_v2_v1_.mp3"
"","1716.9200000027195","html-button-response","159","1250250","0.0-17.0-5.6","48542","","<p>Which tone was played fifth after the cadence?</p><p>Please respond as quickly and as accurately as possible!</p>","0","","5","new_stimuli/mp3/melody_v5_v4_v3_v2_v1_.mp3"
"","null","audio-keyboard-response","160","1260883","0.0-17.0-0.7","48542","","new_stimuli/mp3/melody_^6_v4_v3_^4_^5_.mp3","","null","",""
"","4501.915000000736","html-button-response","161","1265386","0.0-17.0-1.7","48542","","<p>Which tone was played first after the cadence?</p><p>Please respond as quickly and as accurately as possible!</p>","9","","1","new_stimuli/mp3/melody_^6_v4_v3_^4_^5_.mp3"
"","696.6649999995716","html-button-response","162","1266084","0.0-17.0-2.7","48542","","<p>Which tone was played second after the cadence?</p><p>Please respond as quickly and as accurately as possible!</p>","7","","2","new_stimuli/mp3/melody_^6_v4_v3_^4_^5_.mp3"
"","1484.2899999965448","html-button-response","163","1267570","0.0-17.0-3.7","48542","","<p>Which tone was played third after the cadence?</p><p>Please respond as quickly and as accurately as possible!</p>","5","","3","new_stimuli/mp3/melody_^6_v4_v3_^4_^5_.mp3"
"","1622.6400000015274","html-button-response","164","1269194","0.0-17.0-4.7","48542","","<p>Which tone was played fourth after the cadence?</p><p>Please respond as quickly and as accurately as possible!</p>","4","","4","new_stimuli/mp3/melody_^6_v4_v3_^4_^5_.mp3"
"","8313.05499999877","html-button-response","165","1277508","0.0-17.0-5.7","48542","","<p>Which tone was played fifth after the cadence?</p><p>Please respond as quickly and as accurately as possible!</p>","9","","5","new_stimuli/mp3/melody_^6_v4_v3_^4_^5_.mp3"
"[{""page_index"":0,""viewing_time"":3631.7500000004657},{""page_index"":1,""viewing_time"":1880.619999999879},{""page_index"":2,""viewing_time"":1212.1499999994412}]","6724.845000000671","instructions","166","1284234","0.0-18.0","48542","","","","","",""
"","null","audio-keyboard-response","167","1295938","0.0-19.0-0.0","48542","","new_stimuli/mp3/melody_^1_v7_v6_v5_v4_v3_v2_buffer.mp3","","null","",""
"","11875.869999999879","html-button-response","168","1307814","0.0-19.0-1.0","48542","","<p>Which tone was played first after the cadence?</p><p>Please respond as quickly and as accurately as possible!</p>","12","","1","new_stimuli/mp3/melody_^1_v7_v6_v5_v4_v3_v2_buffer.mp3"
"","2420.37500000163","html-button-response","169","1310236","0.0-19.0-2.0","48542","","<p>Which tone was played second after the cadence?</p><p>Please respond as quickly and as accurately as possible!</p>","11","","2","new_stimuli/mp3/melody_^1_v7_v6_v5_v4_v3_v2_buffer.mp3"
"","698.2700000007171","html-button-response","170","1310936","0.0-19.0-3.0","48542","","<p>Which tone was played third after the cadence?</p><p>Please respond as quickly and as accurately as possible!</p>","9","","3","new_stimuli/mp3/melody_^1_v7_v6_v5_v4_v3_v2_buffer.mp3"
"","784.6749999988824","html-button-response","171","1311722","0.0-19.0-4.0","48542","","<p>Which tone was played fourth after the cadence?</p><p>Please respond as quickly and as accurately as possible!</p>","7","","4","new_stimuli/mp3/melody_^1_v7_v6_v5_v4_v3_v2_buffer.mp3"
"","1400.9600000027567","html-button-response","172","1313125","0.0-19.0-5.0","48542","","<p>Which tone was played fifth after the cadence?</p><p>Please respond as quickly and as accurately as possible!</p>","5","","5","new_stimuli/mp3/melody_^1_v7_v6_v5_v4_v3_v2_buffer.mp3"
"","2602.9600000001956","html-button-response","173","1315730","0.0-19.0-6.0","48542","","<p>Which tone was played sixth after the cadence?</p><p>Please respond as quickly and as accurately as possible!</p>","4","","6","new_stimuli/mp3/melody_^1_v7_v6_v5_v4_v3_v2_buffer.mp3"
"","1018.6699999975972","html-button-response","174","1316750","0.0-19.0-7.0","48542","","<p>Which tone was played seventh after the cadence?</p><p>Please respond as quickly and as accurately as possible!</p>","2","","7","new_stimuli/mp3/melody_^1_v7_v6_v5_v4_v3_v2_buffer.mp3"
"","null","audio-keyboard-response","175","1328322","0.0-19.0-0.1","48542","","new_stimuli/mp3/melody_^5_^6_v5_v4_v3_v2_v1_buffer.mp3","","null","",""
"","7126.795000000158","html-button-response","176","1335450","0.0-19.0-1.1","48542","","<p>Which tone was played first after the cadence?</p><p>Please respond as quickly and as accurately as possible!</p>","7","","1","new_stimuli/mp3/melody_^5_^6_v5_v4_v3_v2_v1_buffer.mp3"
"","795.6000000012573","html-button-response","177","1336248","0.0-19.0-2.1","48542","","<p>Which tone was played second after the cadence?</p><p>Please respond as quickly and as accurately as possible!</p>","9","","2","new_stimuli/mp3/melody_^5_^6_v5_v4_v3_v2_v1_buffer.mp3"
"","688.945000001695","html-button-response","178","1336938","0.0-19.0-3.1","48542","","<p>Which tone was played third after the cadence?</p><p>Please respond as quickly and as accurately as possible!</p>","7","","3","new_stimuli/mp3/melody_^5_^6_v5_v4_v3_v2_v1_buffer.mp3"
"","656.7599999979138","html-button-response","179","1337596","0.0-19.0-4.1","48542","","<p>Which tone was played fourth after the cadence?</p><p>Please respond as quickly and as accurately as possible!</p>","5","","4","new_stimuli/mp3/melody_^5_^6_v5_v4_v3_v2_v1_buffer.mp3"
"","846.4950000015087","html-button-response","180","1338444","0.0-19.0-5.1","48542","","<p>Which tone was played fifth after the cadence?</p><p>Please respond as quickly and as accurately as possible!</p>","4","","5","new_stimuli/mp3/melody_^5_^6_v5_v4_v3_v2_v1_buffer.mp3"
"","566.6749999981839","html-button-response","181","1339012","0.0-19.0-6.1","48542","","<p>Which tone was played sixth after the cadence?</p><p>Please respond as quickly and as accurately as possible!</p>","2","","6","new_stimuli/mp3/melody_^5_^6_v5_v4_v3_v2_v1_buffer.mp3"
"","827.0349999982864","html-button-response","182","1339840","0.0-19.0-7.1","48542","","<p>Which tone was played seventh after the cadence?</p><p>Please respond as quickly and as accurately as possible!</p>","0","","7","new_stimuli/mp3/melody_^5_^6_v5_v4_v3_v2_v1_buffer.mp3"
"","null","audio-keyboard-response","183","1351541","0.0-19.0-0.2","48542","","new_stimuli/mp3/melody_^4_^5_^6_v5_v4_v3_v2_.mp3","","null","",""
"","2594.8800000005867","html-button-response","184","1354137","0.0-19.0-1.2","48542","","<p>Which tone was played first after the cadence?</p><p>Please respond as quickly and as accurately as possible!</p>","5","","1","new_stimuli/mp3/melody_^4_^5_^6_v5_v4_v3_v2_.mp3"
"","1038.964999999851","html-button-response","185","1355178","0.0-19.0-2.2","48542","","<p>Which tone was played second after the cadence?</p><p>Please respond as quickly and as accurately as possible!</p>","7","","2","new_stimuli/mp3/melody_^4_^5_^6_v5_v4_v3_v2_.mp3"
"","696.4100000006147","html-button-response","186","1355875","0.0-19.0-3.2","48542","","<p>Which tone was played third after the cadence?</p><p>Please respond as quickly and as accurately as possible!</p>","9","","3","new_stimuli/mp3/melody_^4_^5_^6_v5_v4_v3_v2_.mp3"
"","688.5549999971408","html-button-response","187","1356565","0.0-19.0-4.2","48542","","<p>Which tone was played fourth after the cadence?</p><p>Please respond as quickly and as accurately as possible!</p>","7","","4","new_stimuli/mp3/melody_^4_^5_^6_v5_v4_v3_v2_.mp3"
"","770.7250000021886","html-button-response","188","1357337","0.0-19.0-5.2","48542","","<p>Which tone was played fifth after the cadence?</p><p>Please respond as quickly and as accurately as possible!</p>","5","","5","new_stimuli/mp3/melody_^4_^5_^6_v5_v4_v3_v2_.mp3"
"","654.7900000005029","html-button-response","189","1357993","0.0-19.0-6.2","48542","","<p>Which tone was played sixth after the cadence?</p><p>Please respond as quickly and as accurately as possible!</p>","3","","6","new_stimuli/mp3/melody_^4_^5_^6_v5_v4_v3_v2_.mp3"
"","1732.6900000006426","html-button-response","190","1359727","0.0-19.0-7.2","48542","","<p>Which tone was played seventh after the cadence?</p><p>Please respond as quickly and as accurately as possible!</p>","2","","7","new_stimuli/mp3/melody_^4_^5_^6_v5_v4_v3_v2_.mp3"
"","null","audio-keyboard-response","191","1371690","0.0-19.0-0.3","48542","","new_stimuli/mp3/melody_1_^3_v1_^5_v3_v2_^3_.mp3","","null","",""
"","1053.3800000010524","html-button-response","192","1372744","0.0-19.0-1.3","48542","","<p>Which tone was played first after the cadence?</p><p>Please respond as quickly and as accurately as possible!</p>","0","","1","new_stimuli/mp3/melody_1_^3_v1_^5_v3_v2_^3_.mp3"
"","6648.71000000136","html-button-response","193","1379394","0.0-19.0-2.3","48542","","<p>Which tone was played second after the cadence?</p><p>Please respond as quickly and as accurately as possible!</p>","4","","2","new_stimuli/mp3/melody_1_^3_v1_^5_v3_v2_^3_.mp3"
"","637.8599999987055","html-button-response","194","1380034","0.0-19.0-3.3","48542","","<p>Which tone was played third after the cadence?</p><p>Please respond as quickly and as accurately as possible!</p>","0","","3","new_stimuli/mp3/melody_1_^3_v1_^5_v3_v2_^3_.mp3"
"","4071.7249999979977","html-button-response","195","1384108","0.0-19.0-4.3","48542","","<p>Which tone was played fourth after the cadence?</p><p>Please respond as quickly and as accurately as possible!</p>","7","","4","new_stimuli/mp3/melody_1_^3_v1_^5_v3_v2_^3_.mp3"
"","3886.8850000000093","html-button-response","196","1387996","0.0-19.0-5.3","48542","","<p>Which tone was played fifth after the cadence?</p><p>Please respond as quickly and as accurately as possible!</p>","0","","5","new_stimuli/mp3/melody_1_^3_v1_^5_v3_v2_^3_.mp3"
"","5018.22499999986","html-button-response","197","1393015","0.0-19.0-6.3","48542","","<p>Which tone was played sixth after the cadence?</p><p>Please respond as quickly and as accurately as possible!</p>","5","","6","new_stimuli/mp3/melody_1_^3_v1_^5_v3_v2_^3_.mp3"
"","712.7749999999069","html-button-response","198","1393730","0.0-19.0-7.3","48542","","<p>Which tone was played seventh after the cadence?</p><p>Please respond as quickly and as accurately as possible!</p>","4","","7","new_stimuli/mp3/melody_1_^3_v1_^5_v3_v2_^3_.mp3"
"","null","audio-keyboard-response","199","1405409","0.0-19.0-0.4","48542","","new_stimuli/mp3/melody_^4_v6-_v5-_^6-_^4_v2-_2-_.mp3","","null","",""
"","8728.769999997923","html-button-response","200","1414139","0.0-19.0-1.4","48542","","<p>Which tone was played first after the cadence?</p><p>Please respond as quickly and as accurately as possible!</p>","11","","1","new_stimuli/mp3/melody_^4_v6-_v5-_^6-_^4_v2-_2-_.mp3"
"","1694.639999997802","html-button-response","201","1415836","0.0-19.0-2.4","48542","","<p>Which tone was played second after the cadence?</p><p>Please respond as quickly and as accurately as possible!</p>","9","","2","new_stimuli/mp3/melody_^4_v6-_v5-_^6-_^4_v2-_2-_.mp3"
"","518.3500000019558","html-button-response","202","1416355","0.0-19.0-3.4","48542","","<p>Which tone was played third after the cadence?</p><p>Please respond as quickly and as accurately as possible!</p>","7","","3","new_stimuli/mp3/melody_^4_v6-_v5-_^6-_^4_v2-_2-_.mp3"
"","558.8099999986589","html-button-response","203","1416915","0.0-19.0-4.4","48542","","<p>Which tone was played fourth after the cadence?</p><p>Please respond as quickly and as accurately as possible!</p>","9","","4","new_stimuli/mp3/melody_^4_v6-_v5-_^6-_^4_v2-_2-_.mp3"
"","632.5749999997206","html-button-response","204","1417549","0.0-19.0-5.4","48542","","<p>Which tone was played fifth after the cadence?</p><p>Please respond as quickly and as accurately as possible!</p>","11","","5","new_stimuli/mp3/melody_^4_v6-_v5-_^6-_^4_v2-_2-_.mp3"
"","680.8299999975134","html-button-response","205","1418232","0.0-19.0-6.4","48542","","<p>Which tone was played sixth after the cadence?</p><p>Please respond as quickly and as accurately as possible!</p>","9","","6","new_stimuli/mp3/melody_^4_v6-_v5-_^6-_^4_v2-_2-_.mp3"
"","2240.354999997886","html-button-response","206","1420474","0.0-19.0-7.4","48542","","<p>Which tone was played seventh after the cadence?</p><p>Please respond as quickly and as accurately as possible!</p>","9","","7","new_stimuli/mp3/melody_^4_v6-_v5-_^6-_^4_v2-_2-_.mp3"
"","null","audio-keyboard-response","207","1432123","0.0-19.0-0.5","48542","","new_stimuli/mp3/melody_^6_v5+_v4_^5+_v3_v1_v7-_.mp3","","null","",""
"","8248.4150000019","html-button-response","208","1440372","0.0-19.0-1.5","48542","","<p>Which tone was played first after the cadence?</p><p>Please respond as quickly and as accurately as possible!</p>","10","","1","new_stimuli/mp3/melody_^6_v5+_v4_^5+_v3_v1_v7-_.mp3"
"","2709.804999998538","html-button-response","209","1443084","0.0-19.0-2.5","48542","","<p>Which tone was played second after the cadence?</p><p>Please respond as quickly and as accurately as possible!</p>","8","","2","new_stimuli/mp3/melody_^6_v5+_v4_^5+_v3_v1_v7-_.mp3"
"","590.6600000017788","html-button-response","210","1443676","0.0-19.0-3.5","48542","","<p>Which tone was played third after the cadence?</p><p>Please respond as quickly and as accurately as possible!</p>","7","","3","new_stimuli/mp3/melody_^6_v5+_v4_^5+_v3_v1_v7-_.mp3"
"","568.749999998603","html-button-response","211","1444246","0.0-19.0-4.5","48542","","<p>Which tone was played fourth after the cadence?</p><p>Please respond as quickly and as accurately as possible!</p>","6","","4","new_stimuli/mp3/melody_^6_v5+_v4_^5+_v3_v1_v7-_.mp3"
"","530.8850000000093","html-button-response","212","1444778","0.0-19.0-5.5","48542","","<p>Which tone was played fifth after the cadence?</p><p>Please respond as quickly and as accurately as possible!</p>","5","","5","new_stimuli/mp3/melody_^6_v5+_v4_^5+_v3_v1_v7-_.mp3"
"","2068.8249999985565","html-button-response","213","1446848","0.0-19.0-6.5","48542","","<p>Which tone was played sixth after the cadence?</p><p>Please respond as quickly and as accurately as possible!</p>","4","","6","new_stimuli/mp3/melody_^6_v5+_v4_^5+_v3_v1_v7-_.mp3"
"","4070.3600000014994","html-button-response","214","1450920","0.0-19.0-7.5","48542","","<p>Which tone was played seventh after the cadence?</p><p>Please respond as quickly and as accurately as possible!</p>","3","","7","new_stimuli/mp3/melody_^6_v5+_v4_^5+_v3_v1_v7-_.mp3"
"","null","audio-keyboard-response","215","1462621","0.0-19.0-0.6","48542","","new_stimuli/mp3/melody_v1_^2_v1_v7_^1_^3_v2_.mp3","","null","",""
"","1403.4599999976344","html-button-response","216","1464026","0.0-19.0-1.6","48542","","<p>Which tone was played first after the cadence?</p><p>Please respond as quickly and as accurately as possible!</p>","0","","1","new_stimuli/mp3/melody_v1_^2_v1_v7_^1_^3_v2_.mp3"
"","1152.6650000014342","html-button-response","217","1465180","0.0-19.0-2.6","48542","","<p>Which tone was played second after the cadence?</p><p>Please respond as quickly and as accurately as possible!</p>","2","","2","new_stimuli/mp3/melody_v1_^2_v1_v7_^1_^3_v2_.mp3"
"","736.3000000002794","html-button-response","218","1465918","0.0-19.0-3.6","48542","","<p>Which tone was played third after the cadence?</p><p>Please respond as quickly and as accurately as possible!</p>","0","","3","new_stimuli/mp3/melody_v1_^2_v1_v7_^1_^3_v2_.mp3"
"","1834.309999998426","html-button-response","219","1467753","0.0-19.0-4.6","48542","","<p>Which tone was played fourth after the cadence?</p><p>Please respond as quickly and as accurately as possible!</p>","11","","4","new_stimuli/mp3/melody_v1_^2_v1_v7_^1_^3_v2_.mp3"
"","10240.509999999544","html-button-response","220","1477995","0.0-19.0-5.6","48542","","<p>Which tone was played fifth after the cadence?</p><p>Please respond as quickly and as accurately as possible!</p>","0","","5","new_stimuli/mp3/melody_v1_^2_v1_v7_^1_^3_v2_.mp3"
"","976.320000001695","html-button-response","221","1478973","0.0-19.0-6.6","48542","","<p>Which tone was played sixth after the cadence?</p><p>Please respond as quickly and as accurately as possible!</p>","4","","6","new_stimuli/mp3/melody_v1_^2_v1_v7_^1_^3_v2_.mp3"
"","876.6649999998044","html-button-response","222","1479850","0.0-19.0-7.6","48542","","<p>Which tone was played seventh after the cadence?</p><p>Please respond as quickly and as accurately as possible!</p>","2","","7","new_stimuli/mp3/melody_v1_^2_v1_v7_^1_^3_v2_.mp3"
"[{""page_index"":0,""viewing_time"":2954.8299999989104},{""page_index"":1,""viewing_time"":1139.735000000568},{""page_index"":2,""viewing_time"":942.6099999982398}]","5037.4300000004005","instructions","223","1484888","0.0-20.0","48542","","","","","",""
"","null","audio-keyboard-response","224","1497583","0.0-21.0-0.0","48542","","new_stimuli/mp3/melody_^2_^3_^4_^5_^6_v5_v4_v3_v2_buffer.mp3","","null","",""
"","4161.094999999506","html-button-response","225","1501745","0.0-21.0-1.0","48542","","<p>Which tone was played first after the cadence?</p><p>Please respond as quickly and as accurately as possible!</p>","2","","1","new_stimuli/mp3/melody_^2_^3_^4_^5_^6_v5_v4_v3_v2_buffer.mp3"
"","963.980000000447","html-button-response","226","1502711","0.0-21.0-2.0","48542","","<p>Which tone was played second after the cadence?</p><p>Please respond as quickly and as accurately as possible!</p>","4","","2","new_stimuli/mp3/melody_^2_^3_^4_^5_^6_v5_v4_v3_v2_buffer.mp3"
"","1618.7549999994226","html-button-response","227","1504330","0.0-21.0-3.0","48542","","<p>Which tone was played third after the cadence?</p><p>Please respond as quickly and as accurately as possible!</p>","5","","3","new_stimuli/mp3/melody_^2_^3_^4_^5_^6_v5_v4_v3_v2_buffer.mp3"
"","648.5250000006054","html-button-response","228","1504980","0.0-21.0-4.0","48542","","<p>Which tone was played fourth after the cadence?</p><p>Please respond as quickly and as accurately as possible!</p>","7","","4","new_stimuli/mp3/melody_^2_^3_^4_^5_^6_v5_v4_v3_v2_buffer.mp3"
"","720.8850000025705","html-button-response","229","1505703","0.0-21.0-5.0","48542","","<p>Which tone was played fifth after the cadence?</p><p>Please respond as quickly and as accurately as possible!</p>","9","","5","new_stimuli/mp3/melody_^2_^3_^4_^5_^6_v5_v4_v3_v2_buffer.mp3"
"","836.5849999971688","html-button-response","230","1506541","0.0-21.0-6.0","48542","","<p>Which tone was played sixth after the cadence?</p><p>Please respond as quickly and as accurately as possible!</p>","7","","6","new_stimuli/mp3/melody_^2_^3_^4_^5_^6_v5_v4_v3_v2_buffer.mp3"
"","818.5200000007171","html-button-response","231","1507360","0.0-21.0-7.0","48542","","<p>Which tone was played seventh after the cadence?</p><p>Please respond as quickly and as accurately as possible!</p>","5","","7","new_stimuli/mp3/melody_^2_^3_^4_^5_^6_v5_v4_v3_v2_buffer.mp3"
"","713.1750000007451","html-button-response","232","1508075","0.0-21.0-8.0","48542","","<p>Which tone was played eight after the cadence?</p><p>Please respond as quickly and as accurately as possible!</p>","4","","8","new_stimuli/mp3/melody_^2_^3_^4_^5_^6_v5_v4_v3_v2_buffer.mp3"
"","869.0150000001304","html-button-response","233","1508946","0.0-21.0-9.0","48542","","<p>Which tone was played nineth after the cadence?</p><p>Please respond as quickly and as accurately as possible!</p>","2","","9","new_stimuli/mp3/melody_^2_^3_^4_^5_^6_v5_v4_v3_v2_buffer.mp3"
"","null","audio-keyboard-response","234","1521585","0.0-21.0-0.1","48542","","new_stimuli/mp3/melody_v5_v4_v6+_^7_^3+_v3_v2_v5_^4_.mp3","","null","",""
"","5324.51500000013","html-button-response","235","1526911","0.0-21.0-1.1","48542","","<p>Which tone was played first after the cadence?</p><p>Please respond as quickly and as accurately as possible!</p>","7","","1","new_stimuli/mp3/melody_v5_v4_v6+_^7_^3+_v3_v2_v5_^4_.mp3"
"","3193.1100000001024","html-button-response","236","1530106","0.0-21.0-2.1","48542","","<p>Which tone was played second after the cadence?</p><p>Please respond as quickly and as accurately as possible!</p>","4","","2","new_stimuli/mp3/melody_v5_v4_v6+_^7_^3+_v3_v2_v5_^4_.mp3"
"","891.6900000004098","html-button-response","237","1530999","0.0-21.0-3.1","48542","","<p>Which tone was played third after the cadence?</p><p>Please respond as quickly and as accurately as possible!</p>","2","","3","new_stimuli/mp3/melody_v5_v4_v6+_^7_^3+_v3_v2_v5_^4_.mp3"
"","2230.7199999995064","html-button-response","238","1533231","0.0-21.0-4.1","48542","","<p>Which tone was played fourth after the cadence?</p><p>Please respond as quickly and as accurately as possible!</p>","0","","4","new_stimuli/mp3/melody_v5_v4_v6+_^7_^3+_v3_v2_v5_^4_.mp3"
"","2186.924999997951","html-button-response","239","1535419","0.0-21.0-5.1","48542","","<p>Which tone was played fifth after the cadence?</p><p>Please respond as quickly and as accurately as possible!</p>","11","","5","new_stimuli/mp3/melody_v5_v4_v6+_^7_^3+_v3_v2_v5_^4_.mp3"
"","2314.8000000002794","html-button-response","240","1537735","0.0-21.0-6.1","48542","","<p>Which tone was played sixth after the cadence?</p><p>Please respond as quickly and as accurately as possible!</p>","8","","6","new_stimuli/mp3/melody_v5_v4_v6+_^7_^3+_v3_v2_v5_^4_.mp3"
"","610.0299999997951","html-button-response","241","1538347","0.0-21.0-7.1","48542","","<p>Which tone was played seventh after the cadence?</p><p>Please respond as quickly and as accurately as possible!</p>","7","","7","new_stimuli/mp3/melody_v5_v4_v6+_^7_^3+_v3_v2_v5_^4_.mp3"
"","901.1099999989383","html-button-response","242","1539249","0.0-21.0-8.1","48542","","<p>Which tone was played eight after the cadence?</p><p>Please respond as quickly and as accurately as possible!</p>","8","","8","new_stimuli/mp3/melody_v5_v4_v6+_^7_^3+_v3_v2_v5_^4_.mp3"
"","1130.6949999998324","html-button-response","243","1540381","0.0-21.0-9.1","48542","","<p>Which tone was played nineth after the cadence?</p><p>Please respond as quickly and as accurately as possible!</p>","9","","9","new_stimuli/mp3/melody_v5_v4_v6+_^7_^3+_v3_v2_v5_^4_.mp3"
"","null","audio-keyboard-response","244","1553314","0.0-21.0-0.2","48542","","new_stimuli/mp3/melody_^2_^4_v3_v2_v1_v3_v2+_^3_^5+_.mp3","","null","",""
"","5314.11999999918","html-button-response","245","1558629","0.0-21.0-1.2","48542","","<p>Which tone was played first after the cadence?</p><p>Please respond as quickly and as accurately as possible!</p>","2","","1","new_stimuli/mp3/melody_^2_^4_v3_v2_v1_v3_v2+_^3_^5+_.mp3"
"","3730.4450000009965","html-button-response","246","1562361","0.0-21.0-2.2","48542","","<p>Which tone was played second after the cadence?</p><p>Please respond as quickly and as accurately as possible!</p>","4","","2","new_stimuli/mp3/melody_^2_^4_v3_v2_v1_v3_v2+_^3_^5+_.mp3"
"","834.6550000023562","html-button-response","247","1563198","0.0-21.0-3.2","48542","","<p>Which tone was played third after the cadence?</p><p>Please respond as quickly and as accurately as possible!</p>","5","","3","new_stimuli/mp3/melody_^2_^4_v3_v2_v1_v3_v2+_^3_^5+_.mp3"
"","470.7349999989383","html-button-response","248","1563670","0.0-21.0-4.2","48542","","<p>Which tone was played fourth after the cadence?</p><p>Please respond as quickly and as accurately as possible!</p>","4","","4","new_stimuli/mp3/melody_^2_^4_v3_v2_v1_v3_v2+_^3_^5+_.mp3"
"","1361.9650000000838","html-button-response","249","1565033","0.0-21.0-5.2","48542","","<p>Which tone was played fifth after the cadence?</p><p>Please respond as quickly and as accurately as possible!</p>","2","","5","new_stimuli/mp3/melody_^2_^4_v3_v2_v1_v3_v2+_^3_^5+_.mp3"
"","726.7499999979045","html-button-response","250","1565761","0.0-21.0-6.2","48542","","<p>Which tone was played sixth after the cadence?</p><p>Please respond as quickly and as accurately as possible!</p>","0","","6","new_stimuli/mp3/melody_^2_^4_v3_v2_v1_v3_v2+_^3_^5+_.mp3"
"","1004.829999997979","html-button-response","251","1566767","0.0-21.0-7.2","48542","","<p>Which tone was played seventh after the cadence?</p><p>Please respond as quickly and as accurately as possible!</p>","10","","7","new_stimuli/mp3/melody_^2_^4_v3_v2_v1_v3_v2+_^3_^5+_.mp3"
"","640.72999999905","html-button-response","252","1567409","0.0-21.0-8.2","48542","","<p>Which tone was played eight after the cadence?</p><p>Please respond as quickly and as accurately as possible!</p>","11","","8","new_stimuli/mp3/melody_^2_^4_v3_v2_v1_v3_v2+_^3_^5+_.mp3"
"","534.7499999990687","html-button-response","253","1567945","0.0-21.0-9.2","48542","","<p>Which tone was played nineth after the cadence?</p><p>Please respond as quickly and as accurately as possible!</p>","12","","9","new_stimuli/mp3/melody_^2_^4_v3_v2_v1_v3_v2+_^3_^5+_.mp3"
"","null","audio-keyboard-response","254","1580585","0.0-21.0-0.3","48542","","new_stimuli/mp3/melody_^3_^4_v2_v7_^1_^2_^3_3_^4_.mp3","","null","",""
"","8795.1399999985","html-button-response","255","1589381","0.0-21.0-1.3","48542","","<p>Which tone was played first after the cadence?</p><p>Please respond as quickly and as accurately as possible!</p>","4","","1","new_stimuli/mp3/melody_^3_^4_v2_v7_^1_^2_^3_3_^4_.mp3"
"","798.399999999674","html-button-response","256","1590181","0.0-21.0-2.3","48542","","<p>Which tone was played second after the cadence?</p><p>Please respond as quickly and as accurately as possible!</p>","5","","2","new_stimuli/mp3/melody_^3_^4_v2_v7_^1_^2_^3_3_^4_.mp3"
"","460.7300000025425","html-button-response","257","1590643","0.0-21.0-3.3","48542","","<p>Which tone was played third after the cadence?</p><p>Please respond as quickly and as accurately as possible!</p>","4","","3","new_stimuli/mp3/melody_^3_^4_v2_v7_^1_^2_^3_3_^4_.mp3"
"","720.8499999979977","html-button-response","258","1591365","0.0-21.0-4.3","48542","","<p>Which tone was played fourth after the cadence?</p><p>Please respond as quickly and as accurately as possible!</p>","2","","4","new_stimuli/mp3/melody_^3_^4_v2_v7_^1_^2_^3_3_^4_.mp3"
"","2746.6849999981932","html-button-response","259","1594113","0.0-21.0-5.3","48542","","<p>Which tone was played fifth after the cadence?</p><p>Please respond as quickly and as accurately as possible!</p>","4","","5","new_stimuli/mp3/melody_^3_^4_v2_v7_^1_^2_^3_3_^4_.mp3"
"","568.1499999992084","html-button-response","260","1594684","0.0-21.0-6.3","48542","","<p>Which tone was played sixth after the cadence?</p><p>Please respond as quickly and as accurately as possible!</p>","5","","6","new_stimuli/mp3/melody_^3_^4_v2_v7_^1_^2_^3_3_^4_.mp3"
"","1231.6750000026077","html-button-response","261","1595917","0.0-21.0-7.3","48542","","<p>Which tone was played seventh after the cadence?</p><p>Please respond as quickly and as accurately as possible!</p>","7","","7","new_stimuli/mp3/melody_^3_^4_v2_v7_^1_^2_^3_3_^4_.mp3"
"","3281.2799999993294","html-button-response","262","1599199","0.0-21.0-8.3","48542","","<p>Which tone was played eight after the cadence?</p><p>Please respond as quickly and as accurately as possible!</p>","8","","8","new_stimuli/mp3/melody_^3_^4_v2_v7_^1_^2_^3_3_^4_.mp3"
"","2955.959999999497","html-button-response","263","1602157","0.0-21.0-9.3","48542","","<p>Which tone was played nineth after the cadence?</p><p>Please respond as quickly and as accurately as possible!</p>","9","","9","new_stimuli/mp3/melody_^3_^4_v2_v7_^1_^2_^3_3_^4_.mp3"
"","null","audio-keyboard-response","264","1614723","0.0-21.0-0.4","48542","","new_stimuli/mp3/melody_^3_^4_^5 _^6_v5_v4_v3_v2_v1_.mp3","","null","",""
"","6585.179999998305","html-button-response","265","1621309","0.0-21.0-1.4","48542","","<p>Which tone was played first after the cadence?</p><p>Please respond as quickly and as accurately as possible!</p>","7","","1","new_stimuli/mp3/melody_^3_^4_^5 _^6_v5_v4_v3_v2_v1_.mp3"
"","640.3749999990687","html-button-response","266","1621951","0.0-21.0-2.4","48542","","<p>Which tone was played second after the cadence?</p><p>Please respond as quickly and as accurately as possible!</p>","9","","2","new_stimuli/mp3/melody_^3_^4_^5 _^6_v5_v4_v3_v2_v1_.mp3"
"","574.6299999991897","html-button-response","267","1622527","0.0-21.0-3.4","48542","","<p>Which tone was played third after the cadence?</p><p>Please respond as quickly and as accurately as possible!</p>","7","","3","new_stimuli/mp3/melody_^3_^4_^5 _^6_v5_v4_v3_v2_v1_.mp3"
"","550.6349999995437","html-button-response","268","1623079","0.0-21.0-4.4","48542","","<p>Which tone was played fourth after the cadence?</p><p>Please respond as quickly and as accurately as possible!</p>","5","","4","new_stimuli/mp3/melody_^3_^4_^5 _^6_v5_v4_v3_v2_v1_.mp3"
"","566.6450000025798","html-button-response","269","1623647","0.0-21.0-5.4","48542","","<p>Which tone was played fifth after the cadence?</p><p>Please respond as quickly and as accurately as possible!</p>","3","","5","new_stimuli/mp3/melody_^3_^4_^5 _^6_v5_v4_v3_v2_v1_.mp3"
"","1238.085000000894","html-button-response","270","1624887","0.0-21.0-6.4","48542","","<p>Which tone was played sixth after the cadence?</p><p>Please respond as quickly and as accurately as possible!</p>","2","","6","new_stimuli/mp3/melody_^3_^4_^5 _^6_v5_v4_v3_v2_v1_.mp3"
"","2126.524999999674","html-button-response","271","1627015","0.0-21.0-7.4","48542","","<p>Which tone was played seventh after the cadence?</p><p>Please respond as quickly and as accurately as possible!</p>","0","","7","new_stimuli/mp3/melody_^3_^4_^5 _^6_v5_v4_v3_v2_v1_.mp3"
"","680.66999999783","html-button-response","272","1627697","0.0-21.0-8.4","48542","","<p>Which tone was played eight after the cadence?</p><p>Please respond as quickly and as accurately as possible!</p>","2","","8","new_stimuli/mp3/melody_^3_^4_^5 _^6_v5_v4_v3_v2_v1_.mp3"
"","2568.41999999946","html-button-response","273","1630266","0.0-21.0-9.4","48542","","<p>Which tone was played nineth after the cadence?</p><p>Please respond as quickly and as accurately as possible!</p>","4","","9","new_stimuli/mp3/melody_^3_^4_^5 _^6_v5_v4_v3_v2_v1_.mp3"
"","null","audio-keyboard-response","274","1643218","0.0-21.0-0.5","48542","","new_stimuli/mp3/melody_^5_^6_v5_v4_v3_v2_v1_^2_^3_buffer.mp3","","null","",""
"","4622.269999999786","html-button-response","275","1647842","0.0-21.0-1.5","48542","","<p>Which tone was played first after the cadence?</p><p>Please respond as quickly and as accurately as possible!</p>","7","","1","new_stimuli/mp3/melody_^5_^6_v5_v4_v3_v2_v1_^2_^3_buffer.mp3"
"","1236.724999998929","html-button-response","276","1649080","0.0-21.0-2.5","48542","","<p>Which tone was played second after the cadence?</p><p>Please respond as quickly and as accurately as possible!</p>","9","","2","new_stimuli/mp3/melody_^5_^6_v5_v4_v3_v2_v1_^2_^3_buffer.mp3"
"","526.1400000017602","html-button-response","277","1649608","0.0-21.0-3.5","48542","","<p>Which tone was played third after the cadence?</p><p>Please respond as quickly and as accurately as possible!</p>","7","","3","new_stimuli/mp3/melody_^5_^6_v5_v4_v3_v2_v1_^2_^3_buffer.mp3"
"","802.6649999993388","html-button-response","278","1650412","0.0-21.0-4.5","48542","","<p>Which tone was played fourth after the cadence?</p><p>Please respond as quickly and as accurately as possible!</p>","5","","4","new_stimuli/mp3/melody_^5_^6_v5_v4_v3_v2_v1_^2_^3_buffer.mp3"
"","1036.9199999987613","html-button-response","279","1651450","0.0-21.0-5.5","48542","","<p>Which tone was played fifth after the cadence?</p><p>Please respond as quickly and as accurately as possible!</p>","3","","5","new_stimuli/mp3/melody_^5_^6_v5_v4_v3_v2_v1_^2_^3_buffer.mp3"
"","810.6849999965634","html-button-response","280","1652262","0.0-21.0-6.5","48542","","<p>Which tone was played sixth after the cadence?</p><p>Please respond as quickly and as accurately as possible!</p>","2","","6","new_stimuli/mp3/melody_^5_^6_v5_v4_v3_v2_v1_^2_^3_buffer.mp3"
"","928.249999997206","html-button-response","281","1653191","0.0-21.0-7.5","48542","","<p>Which tone was played seventh after the cadence?</p><p>Please respond as quickly and as accurately as possible!</p>","0","","7","new_stimuli/mp3/melody_^5_^6_v5_v4_v3_v2_v1_^2_^3_buffer.mp3"
"","576.5050000008196","html-button-response","282","1653769","0.0-21.0-8.5","48542","","<p>Which tone was played eight after the cadence?</p><p>Please respond as quickly and as accurately as possible!</p>","2","","8","new_stimuli/mp3/melody_^5_^6_v5_v4_v3_v2_v1_^2_^3_buffer.mp3"
"","534.945000003092","html-button-response","283","1654306","0.0-21.0-9.5","48542","","<p>Which tone was played nineth after the cadence?</p><p>Please respond as quickly and as accurately as possible!</p>","3","","9","new_stimuli/mp3/melody_^5_^6_v5_v4_v3_v2_v1_^2_^3_buffer.mp3"
"","null","audio-keyboard-response","284","1666948","0.0-21.0-0.6","48542","","new_stimuli/mp3/melody_v7_v6_v5_^6_v5_v4_^5_^6_v5_.mp3","","null","",""
"","8434.209999999497","html-button-response","285","1675383","0.0-21.0-1.6","48542","","<p>Which tone was played first after the cadence?</p><p>Please respond as quickly and as accurately as possible!</p>","9","","1","new_stimuli/mp3/melody_v7_v6_v5_^6_v5_v4_^5_^6_v5_.mp3"
"","663.9599999981001","html-button-response","286","1676049","0.0-21.0-2.6","48542","","<p>Which tone was played second after the cadence?</p><p>Please respond as quickly and as accurately as possible!</p>","7","","2","new_stimuli/mp3/melody_v7_v6_v5_^6_v5_v4_^5_^6_v5_.mp3"
"","519.1750000012107","html-button-response","287","1676569","0.0-21.0-3.6","48542","","<p>Which tone was played third after the cadence?</p><p>Please respond as quickly and as accurately as possible!</p>","6","","3","new_stimuli/mp3/melody_v7_v6_v5_^6_v5_v4_^5_^6_v5_.mp3"
"","451.8550000030082","html-button-response","288","1677023","0.0-21.0-4.6","48542","","<p>Which tone was played fourth after the cadence?</p><p>Please respond as quickly and as accurately as possible!</p>","5","","4","new_stimuli/mp3/melody_v7_v6_v5_^6_v5_v4_^5_^6_v5_.mp3"
"","478.40500000165775","html-button-response","289","1677502","0.0-21.0-5.6","48542","","<p>Which tone was played fifth after the cadence?</p><p>Please respond as quickly and as accurately as possible!</p>","4","","5","new_stimuli/mp3/melody_v7_v6_v5_^6_v5_v4_^5_^6_v5_.mp3"
"","433.2350000005681","html-button-response","290","1677937","0.0-21.0-6.6","48542","","<p>Which tone was played sixth after the cadence?</p><p>Please respond as quickly and as accurately as possible!</p>","5","","6","new_stimuli/mp3/melody_v7_v6_v5_^6_v5_v4_^5_^6_v5_.mp3"
"","534.2100000015926","html-button-response","291","1678472","0.0-21.0-7.6","48542","","<p>Which tone was played seventh after the cadence?</p><p>Please respond as quickly and as accurately as possible!</p>","7","","7","new_stimuli/mp3/melody_v7_v6_v5_^6_v5_v4_^5_^6_v5_.mp3"
"","519.355000000447","html-button-response","292","1678993","0.0-21.0-8.6","48542","","<p>Which tone was played eight after the cadence?</p><p>Please respond as quickly and as accurately as possible!</p>","8","","8","new_stimuli/mp3/melody_v7_v6_v5_^6_v5_v4_^5_^6_v5_.mp3"
"","1961.854999997886","html-button-response","293","1680956","0.0-21.0-9.6","48542","","<p>Which tone was played nineth after the cadence?</p><p>Please respond as quickly and as accurately as possible!</p>","11","","9","new_stimuli/mp3/melody_v7_v6_v5_^6_v5_v4_^5_^6_v5_.mp3"
"","44799.1949999996","survey-text","294","1725755","0.0-22.0","48542","{""Q0"":""I attempted to sing the intervals using the numbers. I have not attempted aural tests since the late 90s so this has been quite a challange! ""}","","","","",""
"","44710.66499999864","survey-text","295","1770465","0.0-23.0","48542","{""Q0"":""I felt like I may have been more accurate between 3 and 5 notes but I am not sure I performed any better than chance.  ""}","","","","",""
"","25673.979999999516","survey-text","296","1796139","0.0-24.0","48542","{""Q0"":""No I was tempted to get a guitar out but thought this would be cheating. I relied on humming the notes only""}","","","","",""
"","13881.334999998333","survey-text","297","1810021","0.0-25.0","48542","{""Q0"":""I listened through my laptop speakers which were quite loud. ""}","","","","",""
"","2882.6149999985937","survey-text","298","1812905","0.0-26.0","48542","{""Q0"":""Male""}","","","","",""
"","4022.4500000001863","survey-text","299","1816929","0.0-27.0","48542","{""Q0"":""Yes""}","","","","",""
"[{""page_index"":0,""viewing_time"":3800.715000001248}]","3801.0450000001583","instructions","300","1820731","0.0-28.0","48542","","","","","",""
