"view_history","rt","trial_type","trial_index","time_elapsed","internal_node_id","subject","responses","stimulus","button_pressed","key_press","response_sequence","melody"
"[{""page_index"":0,""viewing_time"":22722379.169999857},{""page_index"":1,""viewing_time"":16494.70499996096},{""page_index"":2,""viewing_time"":2016.0950000844896}]","22740890.939999837","instructions","0","68643864","0.0-0.0","49229","","","","","",""
"","3426.639999959618","survey-text","1","68647297","0.0-1.0","49229","{""Q0"":""29""}","","","","",""
"","4553.014999952167","survey-text","2","68651851","0.0-2.0","49229","{""Q0"":""Bachelors""}","","","","",""
"","22724.544999886304","survey-text","3","68674577","0.0-3.0","49229","{""Q0"":""Moveable Do, Do-Based Minor""}","","","","",""
"","3137.450000040233","survey-text","4","68677715","0.0-4.0","49229","{""Q0"":""No""}","","","","",""
"","35188.964999981225","survey-text","5","68712904","0.0-5.0","49229","{""Q0"":""100""}","","","","",""
"","6490.179999962449","survey-text","6","68719396","0.0-6.0","49229","{""Q0"":""0""}","","","","",""
"[{""page_index"":0,""viewing_time"":3412.8449999280274},{""page_index"":1,""viewing_time"":11806.150000073016},{""page_index"":2,""viewing_time"":1220.6699999533594}]","16440.029999937862","instructions","7","68735836","0.0-7.0","49229","","","","","",""
"","8150.415000043809","audio-button-response","8","68743990","0.0-8.0","49229","","stimuli/long/c-do.mp3","0","","",""
"","7719.7900000065565","audio-button-response","9","68751711","0.0-9.0","49229","","stimuli/long/a-le.mp3","8","","",""
"[{""page_index"":0,""viewing_time"":7718.445000004023},{""page_index"":1,""viewing_time"":23690.310000207275}]","31409.0250001736","instructions","10","68783119","0.0-10.0","49229","","","","","",""
"","10844.12500006333","audio-button-response","11","68793968","0.0-11.0-0.0","49229","","stimuli/long/e-la.mp3","9","","",""
"","9531.664999898523","audio-button-response","12","68803501","0.0-11.0-0.1","49229","","stimuli/long/a-fa.mp3","5","","",""
"","7592.720000073314","audio-button-response","13","68811095","0.0-11.0-0.2","49229","","stimuli/long/e-ti.mp3","11","","",""
"","8964.685000017285","audio-button-response","14","68820061","0.0-11.0-0.3","49229","","stimuli/long/a-do.mp3","0","","",""
"","14422.144999958575","audio-button-response","15","68834484","0.0-11.0-0.4","49229","","stimuli/long/c-fi.mp3","2","","",""
"","9450.680000010878","audio-button-response","16","68843936","0.0-11.0-0.5","49229","","stimuli/long/a-mi.mp3","4","","",""
"","8638.919999822974","audio-button-response","17","68852576","0.0-11.0-0.6","49229","","stimuli/long/c-do8.mp3","12","","",""
"","7711.984999943525","audio-button-response","18","68860289","0.0-11.0-0.7","49229","","stimuli/long/e-sol.mp3","7","","",""
"","11762.820000063628","audio-button-response","19","68872053","0.0-11.0-0.8","49229","","stimuli/long/c-ti.mp3","10","","",""
"","12138.795000039041","audio-button-response","20","68884192","0.0-11.0-0.9","49229","","stimuli/long/a-do8.mp3","7","","",""
"","12036.135000176728","audio-button-response","21","68896230","0.0-11.0-0.10","49229","","stimuli/long/c-mi.mp3","5","","",""
"","8237.625000067055","audio-button-response","22","68904468","0.0-11.0-0.11","49229","","stimuli/long/c-fa.mp3","8","","",""
"","8477.81500010565","audio-button-response","23","68912947","0.0-11.0-0.12","49229","","stimuli/long/a-fi.mp3","11","","",""
"","10268.22500000894","audio-button-response","24","68923217","0.0-11.0-0.13","49229","","stimuli/long/a-te.mp3","10","","",""
"","8036.739999894053","audio-button-response","25","68931255","0.0-11.0-0.14","49229","","stimuli/long/e-fi.mp3","6","","",""
"","10637.64499989152","audio-button-response","26","68941894","0.0-11.0-0.15","49229","","stimuli/long/e-te.mp3","9","","",""
"","14743.095000039786","audio-button-response","27","68956638","0.0-11.0-0.16","49229","","stimuli/long/a-me.mp3","10","","",""
"","9538.365000158548","audio-button-response","28","68966178","0.0-11.0-0.17","49229","","stimuli/long/c-le.mp3","6","","",""
"","12800.074999917299","audio-button-response","29","68978979","0.0-11.0-0.18","49229","","stimuli/long/a-re.mp3","2","","",""
"","7950.6049999035895","audio-button-response","30","68986931","0.0-11.0-0.19","49229","","stimuli/long/a-la.mp3","9","","",""
"","17706.350000109524","audio-button-response","31","69004638","0.0-11.0-0.20","49229","","stimuli/long/e-re.mp3","8","","",""
"","10816.995000001043","audio-button-response","32","69015456","0.0-11.0-0.21","49229","","stimuli/long/a-sol.mp3","7","","",""
"","9634.190000128001","audio-button-response","33","69025092","0.0-11.0-0.22","49229","","stimuli/long/c-do.mp3","0","","",""
"","13010.290000125766","audio-button-response","34","69038103","0.0-11.0-0.23","49229","","stimuli/long/c-ra.mp3","1","","",""
"","8278.244999933988","audio-button-response","35","69046382","0.0-11.0-0.24","49229","","stimuli/long/c-re.mp3","2","","",""
"","14664.815000027418","audio-button-response","36","69061048","0.0-11.0-0.25","49229","","stimuli/long/e-mi.mp3","8","","",""
"","8396.930000044405","audio-button-response","37","69069446","0.0-11.0-0.26","49229","","stimuli/long/c-me.mp3","3","","",""
"","11642.350000094622","audio-button-response","38","69081090","0.0-11.0-0.27","49229","","stimuli/long/e-fa.mp3","5","","",""
"","12754.255000032485","audio-button-response","39","69093845","0.0-11.0-0.28","49229","","stimuli/long/c-la.mp3","9","","",""
"","8164.720000002533","audio-button-response","40","69102011","0.0-11.0-0.29","49229","","stimuli/long/e-do8.mp3","12","","",""
"","9296.470000177622","audio-button-response","41","69111309","0.0-11.0-0.30","49229","","stimuli/long/e-ra.mp3","1","","",""
"","9924.30500011146","audio-button-response","42","69121234","0.0-11.0-0.31","49229","","stimuli/long/e-me.mp3","3","","",""
"","11620.540000036359","audio-button-response","43","69132856","0.0-11.0-0.32","49229","","stimuli/long/c-sol.mp3","7","","",""
"","10716.784999936819","audio-button-response","44","69143573","0.0-11.0-0.33","49229","","stimuli/long/a-le.mp3","8","","",""
"","12158.319999929518","audio-button-response","45","69155733","0.0-11.0-0.34","49229","","stimuli/long/a-ti.mp3","11","","",""
"","7214.244999922812","audio-button-response","46","69162948","0.0-11.0-0.35","49229","","stimuli/long/e-do.mp3","0","","",""
"","9792.660000033677","audio-button-response","47","69172742","0.0-11.0-0.36","49229","","stimuli/long/a-ra.mp3","1","","",""
"","10832.415000066161","audio-button-response","48","69183576","0.0-11.0-0.37","49229","","stimuli/long/e-le.mp3","8","","",""
"[{""page_index"":0,""viewing_time"":12547.53000009805},{""page_index"":1,""viewing_time"":1145.7049997970462}]","13693.449999902397","instructions","49","69197269","0.0-12.0","49229","","","","","",""
"","null","audio-keyboard-response","50","69206724","0.0-13.0-0.0","49229","","new_stimuli/mp3/melody_^3_v4+_buffer.mp3","","null","",""
"","8404.069999929518","html-button-response","51","69215130","0.0-13.0-1.0","49229","","<p>Which tone was played first after the cadence?</p><p>Please respond as quickly and as accurately as possible!</p>","0","","1","new_stimuli/mp3/melody_^3_v4+_buffer.mp3"
"","764.7400000095367","html-button-response","52","69215896","0.0-13.0-2.0","49229","","<p>Which tone was played second after the cadence?</p><p>Please respond as quickly and as accurately as possible!</p>","2","","2","new_stimuli/mp3/melody_^3_v4+_buffer.mp3"
"","null","audio-keyboard-response","53","69225351","0.0-13.0-0.1","49229","","new_stimuli/mp3/melody_v7_v3_buffer.mp3","","null","",""
"","10674.510000038892","html-button-response","54","69236026","0.0-13.0-1.1","49229","","<p>Which tone was played first after the cadence?</p><p>Please respond as quickly and as accurately as possible!</p>","12","","1","new_stimuli/mp3/melody_v7_v3_buffer.mp3"
"","682.7849999554455","html-button-response","55","69236711","0.0-13.0-2.1","49229","","<p>Which tone was played second after the cadence?</p><p>Please respond as quickly and as accurately as possible!</p>","9","","2","new_stimuli/mp3/melody_v7_v3_buffer.mp3"
"","null","audio-keyboard-response","56","69245882","0.0-13.0-0.2","49229","","new_stimuli/mp3/melody_^2_v7-_.mp3","","null","",""
"","11332.625000040978","html-button-response","57","69257216","0.0-13.0-1.2","49229","","<p>Which tone was played first after the cadence?</p><p>Please respond as quickly and as accurately as possible!</p>","8","","1","new_stimuli/mp3/melody_^2_v7-_.mp3"
"","584.2850001044571","html-button-response","58","69257802","0.0-13.0-2.2","49229","","<p>Which tone was played second after the cadence?</p><p>Please respond as quickly and as accurately as possible!</p>","5","","2","new_stimuli/mp3/melody_^2_v7-_.mp3"
"","null","audio-keyboard-response","59","69266971","0.0-13.0-0.3","49229","","new_stimuli/mp3/melody_v5_v1+_.mp3","","null","",""
"","1685.444999948144","html-button-response","60","69268659","0.0-13.0-1.3","49229","","<p>Which tone was played first after the cadence?</p><p>Please respond as quickly and as accurately as possible!</p>","7","","1","new_stimuli/mp3/melody_v5_v1+_.mp3"
"","666.5300000458956","html-button-response","61","69269327","0.0-13.0-2.3","49229","","<p>Which tone was played second after the cadence?</p><p>Please respond as quickly and as accurately as possible!</p>","1","","2","new_stimuli/mp3/melody_v5_v1+_.mp3"
"","null","audio-keyboard-response","62","69278389","0.0-13.0-0.4","49229","","new_stimuli/mp3/melody_v2_v1_.mp3","","null","",""
"","5998.849999859929","html-button-response","63","69284389","0.0-13.0-1.4","49229","","<p>Which tone was played first after the cadence?</p><p>Please respond as quickly and as accurately as possible!</p>","2","","1","new_stimuli/mp3/melody_v2_v1_.mp3"
"","634.6750000976026","html-button-response","64","69285025","0.0-13.0-2.4","49229","","<p>Which tone was played second after the cadence?</p><p>Please respond as quickly and as accurately as possible!</p>","0","","2","new_stimuli/mp3/melody_v2_v1_.mp3"
"","null","audio-keyboard-response","65","69294219","0.0-13.0-0.5","49229","","new_stimuli/mp3/melody_v3_v2_buffer.mp3","","null","",""
"","3298.534999832511","html-button-response","66","69297519","0.0-13.0-1.5","49229","","<p>Which tone was played first after the cadence?</p><p>Please respond as quickly and as accurately as possible!</p>","5","","1","new_stimuli/mp3/melody_v3_v2_buffer.mp3"
"","592.6599998474121","html-button-response","67","69298112","0.0-13.0-2.5","49229","","<p>Which tone was played second after the cadence?</p><p>Please respond as quickly and as accurately as possible!</p>","3","","2","new_stimuli/mp3/melody_v3_v2_buffer.mp3"
"","null","audio-keyboard-response","68","69307407","0.0-13.0-0.6","49229","","new_stimuli/mp3/melody_3_^6_buffer.mp3","","null","",""
"","7293.4950001090765","html-button-response","69","69314702","0.0-13.0-1.6","49229","","<p>Which tone was played first after the cadence?</p><p>Please respond as quickly and as accurately as possible!</p>","4","","1","new_stimuli/mp3/melody_3_^6_buffer.mp3"
"","2539.20500003919","html-button-response","70","69317242","0.0-13.0-2.6","49229","","<p>Which tone was played second after the cadence?</p><p>Please respond as quickly and as accurately as possible!</p>","9","","2","new_stimuli/mp3/melody_3_^6_buffer.mp3"
"","null","audio-keyboard-response","71","69326412","0.0-13.0-0.7","49229","","new_stimuli/mp3/melody_^5_^1+_.mp3","","null","",""
"","9845.760000169277","html-button-response","72","69336259","0.0-13.0-1.7","49229","","<p>Which tone was played first after the cadence?</p><p>Please respond as quickly and as accurately as possible!</p>","5","","1","new_stimuli/mp3/melody_^5_^1+_.mp3"
"","810.4199999943376","html-button-response","73","69337071","0.0-13.0-2.7","49229","","<p>Which tone was played second after the cadence?</p><p>Please respond as quickly and as accurately as possible!</p>","11","","2","new_stimuli/mp3/melody_^5_^1+_.mp3"
"","null","audio-keyboard-response","74","69346503","0.0-13.0-0.8","49229","","new_stimuli/mp3/melody_v4_v3_buffer.mp3","","null","",""
"","17602.865000020713","html-button-response","75","69364106","0.0-13.0-1.8","49229","","<p>Which tone was played first after the cadence?</p><p>Please respond as quickly and as accurately as possible!</p>","8","","1","new_stimuli/mp3/melody_v4_v3_buffer.mp3"
"","368.2099999859929","html-button-response","76","69364476","0.0-13.0-2.8","49229","","<p>Which tone was played second after the cadence?</p><p>Please respond as quickly and as accurately as possible!</p>","7","","2","new_stimuli/mp3/melody_v4_v3_buffer.mp3"
"","null","audio-keyboard-response","77","69373489","0.0-13.0-0.9","49229","","new_stimuli/mp3/melody_^1_^2+_.mp3","","null","",""
"","3297.6500000804663","html-button-response","78","69376788","0.0-13.0-1.9","49229","","<p>Which tone was played first after the cadence?</p><p>Please respond as quickly and as accurately as possible!</p>","0","","1","new_stimuli/mp3/melody_^1_^2+_.mp3"
"","624.1450000070035","html-button-response","79","69377414","0.0-13.0-2.9","49229","","<p>Which tone was played second after the cadence?</p><p>Please respond as quickly and as accurately as possible!</p>","3","","2","new_stimuli/mp3/melody_^1_^2+_.mp3"
"[{""page_index"":0,""viewing_time"":14326.42499986291},{""page_index"":1,""viewing_time"":1444.2600000202656},{""page_index"":2,""viewing_time"":1228.0250000730157}]","16998.939999848604","instructions","80","69394413","0.0-14.0","49229","","","","","",""
"","null","audio-keyboard-response","81","69403970","0.0-15.0-0.0","49229","","new_stimuli/mp3/melody_v3_v2_v1_.mp3","","null","",""
"","2292.61999996379","html-button-response","82","69406264","0.0-15.0-1.0","49229","","<p>Which tone was played first after the cadence?</p><p>Please respond as quickly and as accurately as possible!</p>","4","","1","new_stimuli/mp3/melody_v3_v2_v1_.mp3"
"","643.3449999913573","html-button-response","83","69406908","0.0-15.0-2.0","49229","","<p>Which tone was played second after the cadence?</p><p>Please respond as quickly and as accurately as possible!</p>","2","","2","new_stimuli/mp3/melody_v3_v2_v1_.mp3"
"","617.8549998477101","html-button-response","84","69407527","0.0-15.0-3.0","49229","","<p>Which tone was played third after the cadence?</p><p>Please respond as quickly and as accurately as possible!</p>","0","","3","new_stimuli/mp3/melody_v3_v2_v1_.mp3"
"","null","audio-keyboard-response","85","69417031","0.0-15.0-0.1","49229","","new_stimuli/mp3/melody_1_v1+_^2_.mp3","","null","",""
"","5638.070000100881","html-button-response","86","69422670","0.0-15.0-1.1","49229","","<p>Which tone was played first after the cadence?</p><p>Please respond as quickly and as accurately as possible!</p>","0","","1","new_stimuli/mp3/melody_1_v1+_^2_.mp3"
"","427.8499998636544","html-button-response","87","69423099","0.0-15.0-2.1","49229","","<p>Which tone was played second after the cadence?</p><p>Please respond as quickly and as accurately as possible!</p>","1","","2","new_stimuli/mp3/melody_1_v1+_^2_.mp3"
"","353.06999995559454","html-button-response","88","69423453","0.0-15.0-3.1","49229","","<p>Which tone was played third after the cadence?</p><p>Please respond as quickly and as accurately as possible!</p>","2","","3","new_stimuli/mp3/melody_1_v1+_^2_.mp3"
"","null","audio-keyboard-response","89","69433040","0.0-15.0-0.2","49229","","new_stimuli/mp3/melody_v1_v7-_7-_buffer.mp3","","null","",""
"","15253.994999922812","html-button-response","90","69448295","0.0-15.0-1.2","49229","","<p>Which tone was played first after the cadence?</p><p>Please respond as quickly and as accurately as possible!</p>","12","","1","new_stimuli/mp3/melody_v1_v7-_7-_buffer.mp3"
"","1334.229999922216","html-button-response","91","69449631","0.0-15.0-2.2","49229","","<p>Which tone was played second after the cadence?</p><p>Please respond as quickly and as accurately as possible!</p>","10","","2","new_stimuli/mp3/melody_v1_v7-_7-_buffer.mp3"
"","320.6299999728799","html-button-response","92","69449953","0.0-15.0-3.2","49229","","<p>Which tone was played third after the cadence?</p><p>Please respond as quickly and as accurately as possible!</p>","10","","3","new_stimuli/mp3/melody_v1_v7-_7-_buffer.mp3"
"","null","audio-keyboard-response","93","69459591","0.0-15.0-0.3","49229","","new_stimuli/mp3/melody_6_^1_v5_.mp3","","null","",""
"","11769.564999967813","html-button-response","94","69471362","0.0-15.0-1.3","49229","","<p>Which tone was played first after the cadence?</p><p>Please respond as quickly and as accurately as possible!</p>","9","","1","new_stimuli/mp3/melody_6_^1_v5_.mp3"
"","2936.155000001192","html-button-response","95","69474300","0.0-15.0-2.3","49229","","<p>Which tone was played second after the cadence?</p><p>Please respond as quickly and as accurately as possible!</p>","12","","2","new_stimuli/mp3/melody_6_^1_v5_.mp3"
"","1168.5499998256564","html-button-response","96","69475470","0.0-15.0-3.3","49229","","<p>Which tone was played third after the cadence?</p><p>Please respond as quickly and as accurately as possible!</p>","5","","3","new_stimuli/mp3/melody_6_^1_v5_.mp3"
"","null","audio-keyboard-response","97","69485028","0.0-15.0-0.4","49229","","new_stimuli/mp3/melody_v1_v7-_^7_.mp3","","null","",""
"","3856.2650000676513","html-button-response","98","69488886","0.0-15.0-1.4","49229","","<p>Which tone was played first after the cadence?</p><p>Please respond as quickly and as accurately as possible!</p>","9","","1","new_stimuli/mp3/melody_v1_v7-_^7_.mp3"
"","756.4599998295307","html-button-response","99","69489643","0.0-15.0-2.4","49229","","<p>Which tone was played second after the cadence?</p><p>Please respond as quickly and as accurately as possible!</p>","7","","2","new_stimuli/mp3/melody_v1_v7-_^7_.mp3"
"","328.4950000233948","html-button-response","100","69489973","0.0-15.0-3.4","49229","","<p>Which tone was played third after the cadence?</p><p>Please respond as quickly and as accurately as possible!</p>","8","","3","new_stimuli/mp3/melody_v1_v7-_^7_.mp3"
"","null","audio-keyboard-response","101","69499662","0.0-15.0-0.5","49229","","new_stimuli/mp3/melody_v4_v3_v2_buffer.mp3","","null","",""
"","4373.910000082105","html-button-response","102","69504038","0.0-15.0-1.5","49229","","<p>Which tone was played first after the cadence?</p><p>Please respond as quickly and as accurately as possible!</p>","5","","1","new_stimuli/mp3/melody_v4_v3_v2_buffer.mp3"
"","640.0699999630451","html-button-response","103","69504679","0.0-15.0-2.5","49229","","<p>Which tone was played second after the cadence?</p><p>Please respond as quickly and as accurately as possible!</p>","4","","2","new_stimuli/mp3/melody_v4_v3_v2_buffer.mp3"
"","592.779999833554","html-button-response","104","69505273","0.0-15.0-3.5","49229","","<p>Which tone was played third after the cadence?</p><p>Please respond as quickly and as accurately as possible!</p>","2","","3","new_stimuli/mp3/melody_v4_v3_v2_buffer.mp3"
"","null","audio-keyboard-response","105","69515248","0.0-15.0-0.6","49229","","new_stimuli/mp3/melody_v2_v5_^3_buffer.mp3","","null","",""
"","11272.964999780059","html-button-response","106","69526522","0.0-15.0-1.6","49229","","<p>Which tone was played first after the cadence?</p><p>Please respond as quickly and as accurately as possible!</p>","2","","1","new_stimuli/mp3/melody_v2_v5_^3_buffer.mp3"
"","848.3100000284612","html-button-response","107","69527372","0.0-15.0-2.6","49229","","<p>Which tone was played second after the cadence?</p><p>Please respond as quickly and as accurately as possible!</p>","9","","2","new_stimuli/mp3/melody_v2_v5_^3_buffer.mp3"
"","584.5399999544024","html-button-response","108","69527957","0.0-15.0-3.6","49229","","<p>Which tone was played third after the cadence?</p><p>Please respond as quickly and as accurately as possible!</p>","7","","3","new_stimuli/mp3/melody_v2_v5_^3_buffer.mp3"
"","null","audio-keyboard-response","109","69537910","0.0-15.0-0.7","49229","","new_stimuli/mp3/melody_v5_v4_v3_buffer.mp3","","null","",""
"","3564.8950000740588","html-button-response","110","69541476","0.0-15.0-1.7","49229","","<p>Which tone was played first after the cadence?</p><p>Please respond as quickly and as accurately as possible!</p>","7","","1","new_stimuli/mp3/melody_v5_v4_v3_buffer.mp3"
"","591.0300000086427","html-button-response","111","69542068","0.0-15.0-2.7","49229","","<p>Which tone was played second after the cadence?</p><p>Please respond as quickly and as accurately as possible!</p>","5","","2","new_stimuli/mp3/melody_v5_v4_v3_buffer.mp3"
"","402.9549998231232","html-button-response","112","69542472","0.0-15.0-3.7","49229","","<p>Which tone was played third after the cadence?</p><p>Please respond as quickly and as accurately as possible!</p>","4","","3","new_stimuli/mp3/melody_v5_v4_v3_buffer.mp3"
"","null","audio-keyboard-response","113","69552375","0.0-15.0-0.8","49229","","new_stimuli/mp3/melody_^1_v6_v5+_.mp3","","null","",""
"","3232.3150001466274","html-button-response","114","69555609","0.0-15.0-1.8","49229","","<p>Which tone was played first after the cadence?</p><p>Please respond as quickly and as accurately as possible!</p>","12","","1","new_stimuli/mp3/melody_^1_v6_v5+_.mp3"
"","2374.749999959022","html-button-response","115","69557985","0.0-15.0-2.8","49229","","<p>Which tone was played second after the cadence?</p><p>Please respond as quickly and as accurately as possible!</p>","9","","2","new_stimuli/mp3/melody_^1_v6_v5+_.mp3"
"","468.75","html-button-response","116","69558455","0.0-15.0-3.8","49229","","<p>Which tone was played third after the cadence?</p><p>Please respond as quickly and as accurately as possible!</p>","8","","3","new_stimuli/mp3/melody_^1_v6_v5+_.mp3"
"[{""page_index"":0,""viewing_time"":16412.869999881834},{""page_index"":1,""viewing_time"":4245.730000086129},{""page_index"":2,""viewing_time"":1650.2350000664592}]","22309.045000001788","instructions","117","69580764","0.0-16.0","49229","","","","","",""
"","null","audio-keyboard-response","118","69591395","0.0-17.0-0.0","49229","","new_stimuli/mp3/melody_^6_v4_v3_^4_^5_.mp3","","null","",""
"","13897.959999974817","html-button-response","119","69605294","0.0-17.0-1.0","49229","","<p>Which tone was played first after the cadence?</p><p>Please respond as quickly and as accurately as possible!</p>","9","","1","new_stimuli/mp3/melody_^6_v4_v3_^4_^5_.mp3"
"","608.4249999821186","html-button-response","120","69605904","0.0-17.0-2.0","49229","","<p>Which tone was played second after the cadence?</p><p>Please respond as quickly and as accurately as possible!</p>","7","","2","new_stimuli/mp3/melody_^6_v4_v3_^4_^5_.mp3"
"","526.2599999532104","html-button-response","121","69606431","0.0-17.0-3.0","49229","","<p>Which tone was played third after the cadence?</p><p>Please respond as quickly and as accurately as possible!</p>","5","","3","new_stimuli/mp3/melody_^6_v4_v3_^4_^5_.mp3"
"","526.8850000575185","html-button-response","122","69606959","0.0-17.0-4.0","49229","","<p>Which tone was played fourth after the cadence?</p><p>Please respond as quickly and as accurately as possible!</p>","7","","4","new_stimuli/mp3/melody_^6_v4_v3_^4_^5_.mp3"
"","461.1150000728667","html-button-response","123","69607422","0.0-17.0-5.0","49229","","<p>Which tone was played fifth after the cadence?</p><p>Please respond as quickly and as accurately as possible!</p>","8","","5","new_stimuli/mp3/melody_^6_v4_v3_^4_^5_.mp3"
"","null","audio-keyboard-response","124","69618132","0.0-17.0-0.1","49229","","new_stimuli/mp3/melody_^6_v5_v4_v3_v2_buffer.mp3","","null","",""
"","2858.3050000034273","html-button-response","125","69620991","0.0-17.0-1.1","49229","","<p>Which tone was played first after the cadence?</p><p>Please respond as quickly and as accurately as possible!</p>","9","","1","new_stimuli/mp3/melody_^6_v5_v4_v3_v2_buffer.mp3"
"","616.7349999323487","html-button-response","126","69621609","0.0-17.0-2.1","49229","","<p>Which tone was played second after the cadence?</p><p>Please respond as quickly and as accurately as possible!</p>","7","","2","new_stimuli/mp3/melody_^6_v5_v4_v3_v2_buffer.mp3"
"","724.3800000287592","html-button-response","127","69622335","0.0-17.0-3.1","49229","","<p>Which tone was played third after the cadence?</p><p>Please respond as quickly and as accurately as possible!</p>","5","","3","new_stimuli/mp3/melody_^6_v5_v4_v3_v2_buffer.mp3"
"","526.8999999389052","html-button-response","128","69622863","0.0-17.0-4.1","49229","","<p>Which tone was played fourth after the cadence?</p><p>Please respond as quickly and as accurately as possible!</p>","4","","4","new_stimuli/mp3/melody_^6_v5_v4_v3_v2_buffer.mp3"
"","526.8399999439716","html-button-response","129","69623391","0.0-17.0-5.1","49229","","<p>Which tone was played fifth after the cadence?</p><p>Please respond as quickly and as accurately as possible!</p>","2","","5","new_stimuli/mp3/melody_^6_v5_v4_v3_v2_buffer.mp3"
"","null","audio-keyboard-response","130","69633973","0.0-17.0-0.2","49229","","new_stimuli/mp3/melody_v2_2_^3_^4_v2_.mp3","","null","",""
"","8820.420000001788","html-button-response","131","69642795","0.0-17.0-1.2","49229","","<p>Which tone was played first after the cadence?</p><p>Please respond as quickly and as accurately as possible!</p>","2","","1","new_stimuli/mp3/melody_v2_2_^3_^4_v2_.mp3"
"","654.390000037849","html-button-response","132","69643450","0.0-17.0-2.2","49229","","<p>Which tone was played second after the cadence?</p><p>Please respond as quickly and as accurately as possible!</p>","2","","2","new_stimuli/mp3/melody_v2_2_^3_^4_v2_.mp3"
"","806.8199998214841","html-button-response","133","69644258","0.0-17.0-3.2","49229","","<p>Which tone was played third after the cadence?</p><p>Please respond as quickly and as accurately as possible!</p>","4","","3","new_stimuli/mp3/melody_v2_2_^3_^4_v2_.mp3"
"","600.4899998642504","html-button-response","134","69644860","0.0-17.0-4.2","49229","","<p>Which tone was played fourth after the cadence?</p><p>Please respond as quickly and as accurately as possible!</p>","5","","4","new_stimuli/mp3/melody_v2_2_^3_^4_v2_.mp3"
"","806.9950002245605","html-button-response","135","69645668","0.0-17.0-5.2","49229","","<p>Which tone was played fifth after the cadence?</p><p>Please respond as quickly and as accurately as possible!</p>","2","","5","new_stimuli/mp3/melody_v2_2_^3_^4_v2_.mp3"
"","null","audio-keyboard-response","136","69656298","0.0-17.0-0.3","49229","","new_stimuli/mp3/melody_v5_^6+_^7_^1_5_.mp3","","null","",""
"","9450.710000000894","html-button-response","137","69665750","0.0-17.0-1.3","49229","","<p>Which tone was played first after the cadence?</p><p>Please respond as quickly and as accurately as possible!</p>","7","","1","new_stimuli/mp3/melody_v5_^6+_^7_^1_5_.mp3"
"","1119.9449999257922","html-button-response","138","69666872","0.0-17.0-2.3","49229","","<p>Which tone was played second after the cadence?</p><p>Please respond as quickly and as accurately as possible!</p>","9","","2","new_stimuli/mp3/melody_v5_^6+_^7_^1_5_.mp3"
"","642.579999987036","html-button-response","139","69667515","0.0-17.0-3.3","49229","","<p>Which tone was played third after the cadence?</p><p>Please respond as quickly and as accurately as possible!</p>","11","","3","new_stimuli/mp3/melody_v5_^6+_^7_^1_5_.mp3"
"","452.60500000044703","html-button-response","140","69667969","0.0-17.0-4.3","49229","","<p>Which tone was played fourth after the cadence?</p><p>Please respond as quickly and as accurately as possible!</p>","12","","4","new_stimuli/mp3/melody_v5_^6+_^7_^1_5_.mp3"
"","861.2500000745058","html-button-response","141","69668832","0.0-17.0-5.3","49229","","<p>Which tone was played fifth after the cadence?</p><p>Please respond as quickly and as accurately as possible!</p>","7","","5","new_stimuli/mp3/melody_v5_^6+_^7_^1_5_.mp3"
"","null","audio-keyboard-response","142","69679779","0.0-17.0-0.4","49229","","new_stimuli/mp3/melody_^5_^6_v5_v4_v3_buffer.mp3","","null","",""
"","7103.039999958128","html-button-response","143","69686883","0.0-17.0-1.4","49229","","<p>Which tone was played first after the cadence?</p><p>Please respond as quickly and as accurately as possible!</p>","7","","1","new_stimuli/mp3/melody_^5_^6_v5_v4_v3_buffer.mp3"
"","708.1849998794496","html-button-response","144","69687593","0.0-17.0-2.4","49229","","<p>Which tone was played second after the cadence?</p><p>Please respond as quickly and as accurately as possible!</p>","9","","2","new_stimuli/mp3/melody_^5_^6_v5_v4_v3_buffer.mp3"
"","587.049999974668","html-button-response","145","69688181","0.0-17.0-3.4","49229","","<p>Which tone was played third after the cadence?</p><p>Please respond as quickly and as accurately as possible!</p>","7","","3","new_stimuli/mp3/melody_^5_^6_v5_v4_v3_buffer.mp3"
"","556.504999987781","html-button-response","146","69688739","0.0-17.0-4.4","49229","","<p>Which tone was played fourth after the cadence?</p><p>Please respond as quickly and as accurately as possible!</p>","5","","4","new_stimuli/mp3/melody_^5_^6_v5_v4_v3_buffer.mp3"
"","386.7900001332164","html-button-response","147","69689127","0.0-17.0-5.4","49229","","<p>Which tone was played fifth after the cadence?</p><p>Please respond as quickly and as accurately as possible!</p>","4","","5","new_stimuli/mp3/melody_^5_^6_v5_v4_v3_buffer.mp3"
"","null","audio-keyboard-response","148","69700072","0.0-17.0-0.5","49229","","new_stimuli/mp3/melody_v5-_v3_3_^4+_v3_.mp3","","null","",""
"","14096.875000048429","html-button-response","149","69714170","0.0-17.0-1.5","49229","","<p>Which tone was played first after the cadence?</p><p>Please respond as quickly and as accurately as possible!</p>","8","","1","new_stimuli/mp3/melody_v5-_v3_3_^4+_v3_.mp3"
"","790.5300001166761","html-button-response","150","69714962","0.0-17.0-2.5","49229","","<p>Which tone was played second after the cadence?</p><p>Please respond as quickly and as accurately as possible!</p>","5","","2","new_stimuli/mp3/melody_v5-_v3_3_^4+_v3_.mp3"
"","732.5199998430908","html-button-response","151","69715695","0.0-17.0-3.5","49229","","<p>Which tone was played third after the cadence?</p><p>Please respond as quickly and as accurately as possible!</p>","5","","3","new_stimuli/mp3/melody_v5-_v3_3_^4+_v3_.mp3"
"","1421.270000051707","html-button-response","152","69717118","0.0-17.0-4.5","49229","","<p>Which tone was played fourth after the cadence?</p><p>Please respond as quickly and as accurately as possible!</p>","5","","4","new_stimuli/mp3/melody_v5-_v3_3_^4+_v3_.mp3"
"","598.9749999716878","html-button-response","153","69717718","0.0-17.0-5.5","49229","","<p>Which tone was played fifth after the cadence?</p><p>Please respond as quickly and as accurately as possible!</p>","8","","5","new_stimuli/mp3/melody_v5-_v3_3_^4+_v3_.mp3"
"","null","audio-keyboard-response","154","69728295","0.0-17.0-0.6","49229","","new_stimuli/mp3/melody_v5_v4_v3_v2_v1_.mp3","","null","",""
"","889.3399999961257","html-button-response","155","69729186","0.0-17.0-1.6","49229","","<p>Which tone was played first after the cadence?</p><p>Please respond as quickly and as accurately as possible!</p>","7","","1","new_stimuli/mp3/melody_v5_v4_v3_v2_v1_.mp3"
"","674.2199999317527","html-button-response","156","69729861","0.0-17.0-2.6","49229","","<p>Which tone was played second after the cadence?</p><p>Please respond as quickly and as accurately as possible!</p>","5","","2","new_stimuli/mp3/melody_v5_v4_v3_v2_v1_.mp3"
"","521.4599999561906","html-button-response","157","69730384","0.0-17.0-3.6","49229","","<p>Which tone was played third after the cadence?</p><p>Please respond as quickly and as accurately as possible!</p>","4","","3","new_stimuli/mp3/melody_v5_v4_v3_v2_v1_.mp3"
"","532.0999999530613","html-button-response","158","69730917","0.0-17.0-4.6","49229","","<p>Which tone was played fourth after the cadence?</p><p>Please respond as quickly and as accurately as possible!</p>","2","","4","new_stimuli/mp3/melody_v5_v4_v3_v2_v1_.mp3"
"","544.8300000280142","html-button-response","159","69731463","0.0-17.0-5.6","49229","","<p>Which tone was played fifth after the cadence?</p><p>Please respond as quickly and as accurately as possible!</p>","0","","5","new_stimuli/mp3/melody_v5_v4_v3_v2_v1_.mp3"
"","null","audio-keyboard-response","160","69742041","0.0-17.0-0.7","49229","","new_stimuli/mp3/melody_v5_v4_v3_v2_v1 _buffer.mp3","","null","",""
"","868.5450002104044","html-button-response","161","69742911","0.0-17.0-1.7","49229","","<p>Which tone was played first after the cadence?</p><p>Please respond as quickly and as accurately as possible!</p>","7","","1","new_stimuli/mp3/melody_v5_v4_v3_v2_v1 _buffer.mp3"
"","593.8999999761581","html-button-response","162","69743506","0.0-17.0-2.7","49229","","<p>Which tone was played second after the cadence?</p><p>Please respond as quickly and as accurately as possible!</p>","5","","2","new_stimuli/mp3/melody_v5_v4_v3_v2_v1 _buffer.mp3"
"","501.40499998629093","html-button-response","163","69744009","0.0-17.0-3.7","49229","","<p>Which tone was played third after the cadence?</p><p>Please respond as quickly and as accurately as possible!</p>","4","","3","new_stimuli/mp3/melody_v5_v4_v3_v2_v1 _buffer.mp3"
"","584.8850000165403","html-button-response","164","69744595","0.0-17.0-4.7","49229","","<p>Which tone was played fourth after the cadence?</p><p>Please respond as quickly and as accurately as possible!</p>","2","","4","new_stimuli/mp3/melody_v5_v4_v3_v2_v1 _buffer.mp3"
"","492.4550000578165","html-button-response","165","69745088","0.0-17.0-5.7","49229","","<p>Which tone was played fifth after the cadence?</p><p>Please respond as quickly and as accurately as possible!</p>","0","","5","new_stimuli/mp3/melody_v5_v4_v3_v2_v1 _buffer.mp3"
"[{""page_index"":0,""viewing_time"":10581.3850001432},{""page_index"":1,""viewing_time"":1240.1749999262393},{""page_index"":2,""viewing_time"":783.7849999777973}]","12605.570000130683","instructions","166","69757694","0.0-18.0","49229","","","","","",""
"","null","audio-keyboard-response","167","69769654","0.0-19.0-0.0","49229","","new_stimuli/mp3/melody_1_^3_v1_^5_v3_v2_^3_.mp3","","null","",""
"","7514.535000082105","html-button-response","168","69777170","0.0-19.0-1.0","49229","","<p>Which tone was played first after the cadence?</p><p>Please respond as quickly and as accurately as possible!</p>","0","","1","new_stimuli/mp3/melody_1_^3_v1_^5_v3_v2_^3_.mp3"
"","608.5699999257922","html-button-response","169","69777780","0.0-19.0-2.0","49229","","<p>Which tone was played second after the cadence?</p><p>Please respond as quickly and as accurately as possible!</p>","2","","2","new_stimuli/mp3/melody_1_^3_v1_^5_v3_v2_^3_.mp3"
"","824.5500000193715","html-button-response","170","69778606","0.0-19.0-3.0","49229","","<p>Which tone was played third after the cadence?</p><p>Please respond as quickly and as accurately as possible!</p>","0","","3","new_stimuli/mp3/melody_1_^3_v1_^5_v3_v2_^3_.mp3"
"","2490.884999975562","html-button-response","171","69781098","0.0-19.0-4.0","49229","","<p>Which tone was played fourth after the cadence?</p><p>Please respond as quickly and as accurately as possible!</p>","5","","4","new_stimuli/mp3/melody_1_^3_v1_^5_v3_v2_^3_.mp3"
"","433.7200000882149","html-button-response","172","69781533","0.0-19.0-5.0","49229","","<p>Which tone was played fifth after the cadence?</p><p>Please respond as quickly and as accurately as possible!</p>","4","","5","new_stimuli/mp3/melody_1_^3_v1_^5_v3_v2_^3_.mp3"
"","3669.1550000086427","html-button-response","173","69785203","0.0-19.0-6.0","49229","","<p>Which tone was played sixth after the cadence?</p><p>Please respond as quickly and as accurately as possible!</p>","2","","6","new_stimuli/mp3/melody_1_^3_v1_^5_v3_v2_^3_.mp3"
"","555.1100000739098","html-button-response","174","69785760","0.0-19.0-7.0","49229","","<p>Which tone was played seventh after the cadence?</p><p>Please respond as quickly and as accurately as possible!</p>","4","","7","new_stimuli/mp3/melody_1_^3_v1_^5_v3_v2_^3_.mp3"
"","null","audio-keyboard-response","175","69797407","0.0-19.0-0.1","49229","","new_stimuli/mp3/melody_^6_v5+_v4_^5+_v3_v1_v7-_.mp3","","null","",""
"","9824.359999969602","html-button-response","176","69807233","0.0-19.0-1.1","49229","","<p>Which tone was played first after the cadence?</p><p>Please respond as quickly and as accurately as possible!</p>","11","","1","new_stimuli/mp3/melody_^6_v5+_v4_^5+_v3_v1_v7-_.mp3"
"","1878.8550000190735","html-button-response","177","69809113","0.0-19.0-2.1","49229","","<p>Which tone was played second after the cadence?</p><p>Please respond as quickly and as accurately as possible!</p>","10","","2","new_stimuli/mp3/melody_^6_v5+_v4_^5+_v3_v1_v7-_.mp3"
"","830.8949999064207","html-button-response","178","69809945","0.0-19.0-3.1","49229","","<p>Which tone was played third after the cadence?</p><p>Please respond as quickly and as accurately as possible!</p>","4","","3","new_stimuli/mp3/melody_^6_v5+_v4_^5+_v3_v1_v7-_.mp3"
"","1103.7500000111759","html-button-response","179","69811050","0.0-19.0-4.1","49229","","<p>Which tone was played fourth after the cadence?</p><p>Please respond as quickly and as accurately as possible!</p>","10","","4","new_stimuli/mp3/melody_^6_v5+_v4_^5+_v3_v1_v7-_.mp3"
"","5213.234999913722","html-button-response","180","69816265","0.0-19.0-5.1","49229","","<p>Which tone was played fifth after the cadence?</p><p>Please respond as quickly and as accurately as possible!</p>","9","","5","new_stimuli/mp3/melody_^6_v5+_v4_^5+_v3_v1_v7-_.mp3"
"","500.6350001767278","html-button-response","181","69816767","0.0-19.0-6.1","49229","","<p>Which tone was played sixth after the cadence?</p><p>Please respond as quickly and as accurately as possible!</p>","8","","6","new_stimuli/mp3/melody_^6_v5+_v4_^5+_v3_v1_v7-_.mp3"
"","600.2899999730289","html-button-response","182","69817368","0.0-19.0-7.1","49229","","<p>Which tone was played seventh after the cadence?</p><p>Please respond as quickly and as accurately as possible!</p>","4","","7","new_stimuli/mp3/melody_^6_v5+_v4_^5+_v3_v1_v7-_.mp3"
"","null","audio-keyboard-response","183","69829066","0.0-19.0-0.2","49229","","new_stimuli/mp3/melody_^1_v7_v6_v5_v4_v3_v2_buffer.mp3","","null","",""
"","1552.1499998867512","html-button-response","184","69830620","0.0-19.0-1.2","49229","","<p>Which tone was played first after the cadence?</p><p>Please respond as quickly and as accurately as possible!</p>","12","","1","new_stimuli/mp3/melody_^1_v7_v6_v5_v4_v3_v2_buffer.mp3"
"","512.1249998956919","html-button-response","185","69831134","0.0-19.0-2.2","49229","","<p>Which tone was played second after the cadence?</p><p>Please respond as quickly and as accurately as possible!</p>","11","","2","new_stimuli/mp3/melody_^1_v7_v6_v5_v4_v3_v2_buffer.mp3"
"","716.9149999953806","html-button-response","186","69831852","0.0-19.0-3.2","49229","","<p>Which tone was played third after the cadence?</p><p>Please respond as quickly and as accurately as possible!</p>","9","","3","new_stimuli/mp3/melody_^1_v7_v6_v5_v4_v3_v2_buffer.mp3"
"","654.2899999767542","html-button-response","187","69832508","0.0-19.0-4.2","49229","","<p>Which tone was played fourth after the cadence?</p><p>Please respond as quickly and as accurately as possible!</p>","7","","4","new_stimuli/mp3/melody_^1_v7_v6_v5_v4_v3_v2_buffer.mp3"
"","627.4549998342991","html-button-response","188","69833136","0.0-19.0-5.2","49229","","<p>Which tone was played fifth after the cadence?</p><p>Please respond as quickly and as accurately as possible!</p>","5","","5","new_stimuli/mp3/melody_^1_v7_v6_v5_v4_v3_v2_buffer.mp3"
"","774.0849999263883","html-button-response","189","69833911","0.0-19.0-6.2","49229","","<p>Which tone was played sixth after the cadence?</p><p>Please respond as quickly and as accurately as possible!</p>","4","","6","new_stimuli/mp3/melody_^1_v7_v6_v5_v4_v3_v2_buffer.mp3"
"","724.8549999184906","html-button-response","190","69834637","0.0-19.0-7.2","49229","","<p>Which tone was played seventh after the cadence?</p><p>Please respond as quickly and as accurately as possible!</p>","2","","7","new_stimuli/mp3/melody_^1_v7_v6_v5_v4_v3_v2_buffer.mp3"
"","null","audio-keyboard-response","191","69846335","0.0-19.0-0.3","49229","","new_stimuli/mp3/melody_^4_^5_^6_v5_v4_v3_v2_.mp3","","null","",""
"","2718.5249999165535","html-button-response","192","69849055","0.0-19.0-1.3","49229","","<p>Which tone was played first after the cadence?</p><p>Please respond as quickly and as accurately as possible!</p>","0","","1","new_stimuli/mp3/melody_^4_^5_^6_v5_v4_v3_v2_.mp3"
"","708.1599999219179","html-button-response","193","69849765","0.0-19.0-2.3","49229","","<p>Which tone was played second after the cadence?</p><p>Please respond as quickly and as accurately as possible!</p>","2","","2","new_stimuli/mp3/melody_^4_^5_^6_v5_v4_v3_v2_.mp3"
"","573.730000063777","html-button-response","194","69850341","0.0-19.0-3.3","49229","","<p>Which tone was played third after the cadence?</p><p>Please respond as quickly and as accurately as possible!</p>","4","","3","new_stimuli/mp3/melody_^4_^5_^6_v5_v4_v3_v2_.mp3"
"","592.8900002017617","html-button-response","195","69850935","0.0-19.0-4.3","49229","","<p>Which tone was played fourth after the cadence?</p><p>Please respond as quickly and as accurately as possible!</p>","2","","4","new_stimuli/mp3/melody_^4_^5_^6_v5_v4_v3_v2_.mp3"
"","539.0749999769032","html-button-response","196","69851475","0.0-19.0-5.3","49229","","<p>Which tone was played fifth after the cadence?</p><p>Please respond as quickly and as accurately as possible!</p>","0","","5","new_stimuli/mp3/melody_^4_^5_^6_v5_v4_v3_v2_.mp3"
"","825.209999922663","html-button-response","197","69852301","0.0-19.0-6.3","49229","","<p>Which tone was played sixth after the cadence?</p><p>Please respond as quickly and as accurately as possible!</p>","11","","6","new_stimuli/mp3/melody_^4_^5_^6_v5_v4_v3_v2_.mp3"
"","732.7350000850856","html-button-response","198","69853035","0.0-19.0-7.3","49229","","<p>Which tone was played seventh after the cadence?</p><p>Please respond as quickly and as accurately as possible!</p>","9","","7","new_stimuli/mp3/melody_^4_^5_^6_v5_v4_v3_v2_.mp3"
"","null","audio-keyboard-response","199","69864714","0.0-19.0-0.4","49229","","new_stimuli/mp3/melody_^4_v6-_v5-_^6-_^4_v2-_2-_.mp3","","null","",""
"","11293.645000085235","html-button-response","200","69876008","0.0-19.0-1.4","49229","","<p>Which tone was played first after the cadence?</p><p>Please respond as quickly and as accurately as possible!</p>","12","","1","new_stimuli/mp3/melody_^4_v6-_v5-_^6-_^4_v2-_2-_.mp3"
"","782.6649998314679","html-button-response","201","69876792","0.0-19.0-2.4","49229","","<p>Which tone was played second after the cadence?</p><p>Please respond as quickly and as accurately as possible!</p>","6","","2","new_stimuli/mp3/melody_^4_v6-_v5-_^6-_^4_v2-_2-_.mp3"
"","700.3550000973046","html-button-response","202","69877494","0.0-19.0-3.4","49229","","<p>Which tone was played third after the cadence?</p><p>Please respond as quickly and as accurately as possible!</p>","7","","3","new_stimuli/mp3/melody_^4_v6-_v5-_^6-_^4_v2-_2-_.mp3"
"","561.4749998785555","html-button-response","203","69878057","0.0-19.0-4.4","49229","","<p>Which tone was played fourth after the cadence?</p><p>Please respond as quickly and as accurately as possible!</p>","5","","4","new_stimuli/mp3/melody_^4_v6-_v5-_^6-_^4_v2-_2-_.mp3"
"","746.4600000530481","html-button-response","204","69878804","0.0-19.0-5.4","49229","","<p>Which tone was played fifth after the cadence?</p><p>Please respond as quickly and as accurately as possible!</p>","12","","5","new_stimuli/mp3/melody_^4_v6-_v5-_^6-_^4_v2-_2-_.mp3"
"","650.8150000609457","html-button-response","205","69879456","0.0-19.0-6.4","49229","","<p>Which tone was played sixth after the cadence?</p><p>Please respond as quickly and as accurately as possible!</p>","7","","6","new_stimuli/mp3/melody_^4_v6-_v5-_^6-_^4_v2-_2-_.mp3"
"","410.3950001299381","html-button-response","206","69879868","0.0-19.0-7.4","49229","","<p>Which tone was played seventh after the cadence?</p><p>Please respond as quickly and as accurately as possible!</p>","7","","7","new_stimuli/mp3/melody_^4_v6-_v5-_^6-_^4_v2-_2-_.mp3"
"","null","audio-keyboard-response","207","69891566","0.0-19.0-0.5","49229","","new_stimuli/mp3/melody_v1_^2_v1_v7_^1_^3_v2_.mp3","","null","",""
"","1116.2300000451505","html-button-response","208","69892684","0.0-19.0-1.5","49229","","<p>Which tone was played first after the cadence?</p><p>Please respond as quickly and as accurately as possible!</p>","0","","1","new_stimuli/mp3/melody_v1_^2_v1_v7_^1_^3_v2_.mp3"
"","698.8599998876452","html-button-response","209","69893384","0.0-19.0-2.5","49229","","<p>Which tone was played second after the cadence?</p><p>Please respond as quickly and as accurately as possible!</p>","2","","2","new_stimuli/mp3/melody_v1_^2_v1_v7_^1_^3_v2_.mp3"
"","635.049999922514","html-button-response","210","69894020","0.0-19.0-3.5","49229","","<p>Which tone was played third after the cadence?</p><p>Please respond as quickly and as accurately as possible!</p>","0","","3","new_stimuli/mp3/melody_v1_^2_v1_v7_^1_^3_v2_.mp3"
"","1062.924999974668","html-button-response","211","69895084","0.0-19.0-4.5","49229","","<p>Which tone was played fourth after the cadence?</p><p>Please respond as quickly and as accurately as possible!</p>","11","","4","new_stimuli/mp3/melody_v1_^2_v1_v7_^1_^3_v2_.mp3"
"","732.2799998819828","html-button-response","212","69895818","0.0-19.0-5.5","49229","","<p>Which tone was played fifth after the cadence?</p><p>Please respond as quickly and as accurately as possible!</p>","12","","5","new_stimuli/mp3/melody_v1_^2_v1_v7_^1_^3_v2_.mp3"
"","3769.0049998909235","html-button-response","213","69899588","0.0-19.0-6.5","49229","","<p>Which tone was played sixth after the cadence?</p><p>Please respond as quickly and as accurately as possible!</p>","4","","6","new_stimuli/mp3/melody_v1_^2_v1_v7_^1_^3_v2_.mp3"
"","559.4499998278916","html-button-response","214","69900149","0.0-19.0-7.5","49229","","<p>Which tone was played seventh after the cadence?</p><p>Please respond as quickly and as accurately as possible!</p>","2","","7","new_stimuli/mp3/melody_v1_^2_v1_v7_^1_^3_v2_.mp3"
"","null","audio-keyboard-response","215","69911721","0.0-19.0-0.6","49229","","new_stimuli/mp3/melody_^5_^6_v5_v4_v3_v2_v1_buffer.mp3","","null","",""
"","1971.3000000938773","html-button-response","216","69913693","0.0-19.0-1.6","49229","","<p>Which tone was played first after the cadence?</p><p>Please respond as quickly and as accurately as possible!</p>","7","","1","new_stimuli/mp3/melody_^5_^6_v5_v4_v3_v2_v1_buffer.mp3"
"","676.3949999585748","html-button-response","217","69914371","0.0-19.0-2.6","49229","","<p>Which tone was played second after the cadence?</p><p>Please respond as quickly and as accurately as possible!</p>","9","","2","new_stimuli/mp3/melody_^5_^6_v5_v4_v3_v2_v1_buffer.mp3"
"","764.1799999400973","html-button-response","218","69915136","0.0-19.0-3.6","49229","","<p>Which tone was played third after the cadence?</p><p>Please respond as quickly and as accurately as possible!</p>","7","","3","new_stimuli/mp3/melody_^5_^6_v5_v4_v3_v2_v1_buffer.mp3"
"","799.2050000503659","html-button-response","219","69915937","0.0-19.0-4.6","49229","","<p>Which tone was played fourth after the cadence?</p><p>Please respond as quickly and as accurately as possible!</p>","5","","4","new_stimuli/mp3/melody_^5_^6_v5_v4_v3_v2_v1_buffer.mp3"
"","1480.7349999919534","html-button-response","220","69917418","0.0-19.0-5.6","49229","","<p>Which tone was played fifth after the cadence?</p><p>Please respond as quickly and as accurately as possible!</p>","4","","5","new_stimuli/mp3/melody_^5_^6_v5_v4_v3_v2_v1_buffer.mp3"
"","667.0949999243021","html-button-response","221","69918087","0.0-19.0-6.6","49229","","<p>Which tone was played sixth after the cadence?</p><p>Please respond as quickly and as accurately as possible!</p>","2","","6","new_stimuli/mp3/melody_^5_^6_v5_v4_v3_v2_v1_buffer.mp3"
"","526.735000077635","html-button-response","222","69918614","0.0-19.0-7.6","49229","","<p>Which tone was played seventh after the cadence?</p><p>Please respond as quickly and as accurately as possible!</p>","0","","7","new_stimuli/mp3/melody_^5_^6_v5_v4_v3_v2_v1_buffer.mp3"
"[{""page_index"":0,""viewing_time"":7642.800000030547},{""page_index"":1,""viewing_time"":964.1449998617172},{""page_index"":2,""viewing_time"":1337.809999935329}]","9945.139999967068","instructions","223","69928560","0.0-20.0","49229","","","","","",""
"","null","audio-keyboard-response","224","69941517","0.0-21.0-0.0","49229","","new_stimuli/mp3/melody_^5_^6_v5_v4_v3_v2_v1_^2_^3_buffer.mp3","","null","",""
"","2122.884999960661","html-button-response","225","69943641","0.0-21.0-1.0","49229","","<p>Which tone was played first after the cadence?</p><p>Please respond as quickly and as accurately as possible!</p>","7","","1","new_stimuli/mp3/melody_^5_^6_v5_v4_v3_v2_v1_^2_^3_buffer.mp3"
"","596.989999987185","html-button-response","226","69944239","0.0-21.0-2.0","49229","","<p>Which tone was played second after the cadence?</p><p>Please respond as quickly and as accurately as possible!</p>","9","","2","new_stimuli/mp3/melody_^5_^6_v5_v4_v3_v2_v1_^2_^3_buffer.mp3"
"","576.1549999006093","html-button-response","227","69944817","0.0-21.0-3.0","49229","","<p>Which tone was played third after the cadence?</p><p>Please respond as quickly and as accurately as possible!</p>","7","","3","new_stimuli/mp3/melody_^5_^6_v5_v4_v3_v2_v1_^2_^3_buffer.mp3"
"","675.130000103265","html-button-response","228","69945493","0.0-21.0-4.0","49229","","<p>Which tone was played fourth after the cadence?</p><p>Please respond as quickly and as accurately as possible!</p>","5","","4","new_stimuli/mp3/melody_^5_^6_v5_v4_v3_v2_v1_^2_^3_buffer.mp3"
"","566.6700000911951","html-button-response","229","69946061","0.0-21.0-5.0","49229","","<p>Which tone was played fifth after the cadence?</p><p>Please respond as quickly and as accurately as possible!</p>","4","","5","new_stimuli/mp3/melody_^5_^6_v5_v4_v3_v2_v1_^2_^3_buffer.mp3"
"","751.1050000339746","html-button-response","230","69946813","0.0-21.0-6.0","49229","","<p>Which tone was played sixth after the cadence?</p><p>Please respond as quickly and as accurately as possible!</p>","2","","6","new_stimuli/mp3/melody_^5_^6_v5_v4_v3_v2_v1_^2_^3_buffer.mp3"
"","946.6750000156462","html-button-response","231","69947761","0.0-21.0-7.0","49229","","<p>Which tone was played seventh after the cadence?</p><p>Please respond as quickly and as accurately as possible!</p>","0","","7","new_stimuli/mp3/melody_^5_^6_v5_v4_v3_v2_v1_^2_^3_buffer.mp3"
"","592.569999858737","html-button-response","232","69948354","0.0-21.0-8.0","49229","","<p>Which tone was played eight after the cadence?</p><p>Please respond as quickly and as accurately as possible!</p>","2","","8","new_stimuli/mp3/melody_^5_^6_v5_v4_v3_v2_v1_^2_^3_buffer.mp3"
"","667.2499999403954","html-button-response","233","69949023","0.0-21.0-9.0","49229","","<p>Which tone was played nineth after the cadence?</p><p>Please respond as quickly and as accurately as possible!</p>","4","","9","new_stimuli/mp3/melody_^5_^6_v5_v4_v3_v2_v1_^2_^3_buffer.mp3"
"","null","audio-keyboard-response","234","69961665","0.0-21.0-0.1","49229","","new_stimuli/mp3/melody_^3_^4_v2_v7_^1_^2_^3_3_^4_.mp3","","null","",""
"","10157.215000130236","html-button-response","235","69971824","0.0-21.0-1.1","49229","","<p>Which tone was played first after the cadence?</p><p>Please respond as quickly and as accurately as possible!</p>","5","","1","new_stimuli/mp3/melody_^3_^4_v2_v7_^1_^2_^3_3_^4_.mp3"
"","1780.100000090897","html-button-response","236","69973605","0.0-21.0-2.1","49229","","<p>Which tone was played second after the cadence?</p><p>Please respond as quickly and as accurately as possible!</p>","8","","2","new_stimuli/mp3/melody_^3_^4_v2_v7_^1_^2_^3_3_^4_.mp3"
"","841.6399999968708","html-button-response","237","69974448","0.0-21.0-3.1","49229","","<p>Which tone was played third after the cadence?</p><p>Please respond as quickly and as accurately as possible!</p>","5","","3","new_stimuli/mp3/melody_^3_^4_v2_v7_^1_^2_^3_3_^4_.mp3"
"","1103.230000011623","html-button-response","238","69975553","0.0-21.0-4.1","49229","","<p>Which tone was played fourth after the cadence?</p><p>Please respond as quickly and as accurately as possible!</p>","4","","4","new_stimuli/mp3/melody_^3_^4_v2_v7_^1_^2_^3_3_^4_.mp3"
"","3077.044999923557","html-button-response","239","69978631","0.0-21.0-5.1","49229","","<p>Which tone was played fifth after the cadence?</p><p>Please respond as quickly and as accurately as possible!</p>","2","","5","new_stimuli/mp3/melody_^3_^4_v2_v7_^1_^2_^3_3_^4_.mp3"
"","962.390000000596","html-button-response","240","69979595","0.0-21.0-6.1","49229","","<p>Which tone was played sixth after the cadence?</p><p>Please respond as quickly and as accurately as possible!</p>","0","","6","new_stimuli/mp3/melody_^3_^4_v2_v7_^1_^2_^3_3_^4_.mp3"
"","2613.115000076592","html-button-response","241","69982209","0.0-21.0-7.1","49229","","<p>Which tone was played seventh after the cadence?</p><p>Please respond as quickly and as accurately as possible!</p>","2","","7","new_stimuli/mp3/melody_^3_^4_v2_v7_^1_^2_^3_3_^4_.mp3"
"","1342.595000050962","html-button-response","242","69983553","0.0-21.0-8.1","49229","","<p>Which tone was played eight after the cadence?</p><p>Please respond as quickly and as accurately as possible!</p>","4","","8","new_stimuli/mp3/melody_^3_^4_v2_v7_^1_^2_^3_3_^4_.mp3"
"","141.08499977737665","html-button-response","243","69983695","0.0-21.0-9.1","49229","","<p>Which tone was played nineth after the cadence?</p><p>Please respond as quickly and as accurately as possible!</p>","4","","9","new_stimuli/mp3/melody_^3_^4_v2_v7_^1_^2_^3_3_^4_.mp3"
"","null","audio-keyboard-response","244","69996627","0.0-21.0-0.2","49229","","new_stimuli/mp3/melody_^2_^4_v3_v2_v1_v3_v2+_^3_^5+_.mp3","","null","",""
"","4515.520000133663","html-button-response","245","70001144","0.0-21.0-1.2","49229","","<p>Which tone was played first after the cadence?</p><p>Please respond as quickly and as accurately as possible!</p>","0","","1","new_stimuli/mp3/melody_^2_^4_v3_v2_v1_v3_v2+_^3_^5+_.mp3"
"","912.8849999979138","html-button-response","246","70002058","0.0-21.0-2.2","49229","","<p>Which tone was played second after the cadence?</p><p>Please respond as quickly and as accurately as possible!</p>","3","","2","new_stimuli/mp3/melody_^2_^4_v3_v2_v1_v3_v2+_^3_^5+_.mp3"
"","2218.830000139773","html-button-response","247","70004278","0.0-21.0-3.2","49229","","<p>Which tone was played third after the cadence?</p><p>Please respond as quickly and as accurately as possible!</p>","2","","3","new_stimuli/mp3/melody_^2_^4_v3_v2_v1_v3_v2+_^3_^5+_.mp3"
"","1368.640000000596","html-button-response","248","70005648","0.0-21.0-4.2","49229","","<p>Which tone was played fourth after the cadence?</p><p>Please respond as quickly and as accurately as possible!</p>","0","","4","new_stimuli/mp3/melody_^2_^4_v3_v2_v1_v3_v2+_^3_^5+_.mp3"
"","1912.7149998694658","html-button-response","249","70007562","0.0-21.0-5.2","49229","","<p>Which tone was played fifth after the cadence?</p><p>Please respond as quickly and as accurately as possible!</p>","3","","5","new_stimuli/mp3/melody_^2_^4_v3_v2_v1_v3_v2+_^3_^5+_.mp3"
"","1960.5050000846386","html-button-response","250","70009524","0.0-21.0-6.2","49229","","<p>Which tone was played sixth after the cadence?</p><p>Please respond as quickly and as accurately as possible!</p>","5","","6","new_stimuli/mp3/melody_^2_^4_v3_v2_v1_v3_v2+_^3_^5+_.mp3"
"","2103.369999907911","html-button-response","251","70011628","0.0-21.0-7.2","49229","","<p>Which tone was played seventh after the cadence?</p><p>Please respond as quickly and as accurately as possible!</p>","8","","7","new_stimuli/mp3/melody_^2_^4_v3_v2_v1_v3_v2+_^3_^5+_.mp3"
"","4156.805000036955","html-button-response","252","70015786","0.0-21.0-8.2","49229","","<p>Which tone was played eight after the cadence?</p><p>Please respond as quickly and as accurately as possible!</p>","7","","8","new_stimuli/mp3/melody_^2_^4_v3_v2_v1_v3_v2+_^3_^5+_.mp3"
"","953.9799999929965","html-button-response","253","70016742","0.0-21.0-9.2","49229","","<p>Which tone was played nineth after the cadence?</p><p>Please respond as quickly and as accurately as possible!</p>","3","","9","new_stimuli/mp3/melody_^2_^4_v3_v2_v1_v3_v2+_^3_^5+_.mp3"
"","null","audio-keyboard-response","254","70029308","0.0-21.0-0.3","49229","","new_stimuli/mp3/melody_^3_^4_^5 _^6_v5_v4_v3_v2_v1_.mp3","","null","",""
"","9213.944999970496","html-button-response","255","70038523","0.0-21.0-1.3","49229","","<p>Which tone was played first after the cadence?</p><p>Please respond as quickly and as accurately as possible!</p>","2","","1","new_stimuli/mp3/melody_^3_^4_^5 _^6_v5_v4_v3_v2_v1_.mp3"
"","758.3999999314547","html-button-response","256","70039283","0.0-21.0-2.3","49229","","<p>Which tone was played second after the cadence?</p><p>Please respond as quickly and as accurately as possible!</p>","4","","2","new_stimuli/mp3/melody_^3_^4_^5 _^6_v5_v4_v3_v2_v1_.mp3"
"","1566.469999961555","html-button-response","257","70040851","0.0-21.0-3.3","49229","","<p>Which tone was played third after the cadence?</p><p>Please respond as quickly and as accurately as possible!</p>","5","","3","new_stimuli/mp3/melody_^3_^4_^5 _^6_v5_v4_v3_v2_v1_.mp3"
"","524.4550001807511","html-button-response","258","70041377","0.0-21.0-4.3","49229","","<p>Which tone was played fourth after the cadence?</p><p>Please respond as quickly and as accurately as possible!</p>","4","","4","new_stimuli/mp3/melody_^3_^4_^5 _^6_v5_v4_v3_v2_v1_.mp3"
"","716.9600001089275","html-button-response","259","70042094","0.0-21.0-5.3","49229","","<p>Which tone was played fifth after the cadence?</p><p>Please respond as quickly and as accurately as possible!</p>","2","","5","new_stimuli/mp3/melody_^3_^4_^5 _^6_v5_v4_v3_v2_v1_.mp3"
"","1154.7949998676777","html-button-response","260","70043251","0.0-21.0-6.3","49229","","<p>Which tone was played sixth after the cadence?</p><p>Please respond as quickly and as accurately as possible!</p>","0","","6","new_stimuli/mp3/melody_^3_^4_^5 _^6_v5_v4_v3_v2_v1_.mp3"
"","2208.935000002384","html-button-response","261","70045461","0.0-21.0-7.3","49229","","<p>Which tone was played seventh after the cadence?</p><p>Please respond as quickly and as accurately as possible!</p>","11","","7","new_stimuli/mp3/melody_^3_^4_^5 _^6_v5_v4_v3_v2_v1_.mp3"
"","1376.4450000599027","html-button-response","262","70046839","0.0-21.0-8.3","49229","","<p>Which tone was played eight after the cadence?</p><p>Please respond as quickly and as accurately as possible!</p>","0","","8","new_stimuli/mp3/melody_^3_^4_^5 _^6_v5_v4_v3_v2_v1_.mp3"
"","584.4350000843406","html-button-response","263","70047424","0.0-21.0-9.3","49229","","<p>Which tone was played nineth after the cadence?</p><p>Please respond as quickly and as accurately as possible!</p>","2","","9","new_stimuli/mp3/melody_^3_^4_^5 _^6_v5_v4_v3_v2_v1_.mp3"
"","null","audio-keyboard-response","264","70060120","0.0-21.0-0.4","49229","","new_stimuli/mp3/melody_^2_^3_^4_^5_^6_v5_v4_v3_v2_buffer.mp3","","null","",""
"","3558.7349999696016","html-button-response","265","70063680","0.0-21.0-1.4","49229","","<p>Which tone was played first after the cadence?</p><p>Please respond as quickly and as accurately as possible!</p>","2","","1","new_stimuli/mp3/melody_^2_^3_^4_^5_^6_v5_v4_v3_v2_buffer.mp3"
"","772.8800000622869","html-button-response","266","70064454","0.0-21.0-2.4","49229","","<p>Which tone was played second after the cadence?</p><p>Please respond as quickly and as accurately as possible!</p>","4","","2","new_stimuli/mp3/melody_^2_^3_^4_^5_^6_v5_v4_v3_v2_buffer.mp3"
"","642.8249999880791","html-button-response","267","70065098","0.0-21.0-3.4","49229","","<p>Which tone was played third after the cadence?</p><p>Please respond as quickly and as accurately as possible!</p>","5","","3","new_stimuli/mp3/melody_^2_^3_^4_^5_^6_v5_v4_v3_v2_buffer.mp3"
"","832.8950000032783","html-button-response","268","70065932","0.0-21.0-4.4","49229","","<p>Which tone was played fourth after the cadence?</p><p>Please respond as quickly and as accurately as possible!</p>","7","","4","new_stimuli/mp3/melody_^2_^3_^4_^5_^6_v5_v4_v3_v2_buffer.mp3"
"","767.1250000149012","html-button-response","269","70066700","0.0-21.0-5.4","49229","","<p>Which tone was played fifth after the cadence?</p><p>Please respond as quickly and as accurately as possible!</p>","9","","5","new_stimuli/mp3/melody_^2_^3_^4_^5_^6_v5_v4_v3_v2_buffer.mp3"
"","598.7599999681115","html-button-response","270","70067300","0.0-21.0-6.4","49229","","<p>Which tone was played sixth after the cadence?</p><p>Please respond as quickly and as accurately as possible!</p>","7","","6","new_stimuli/mp3/melody_^2_^3_^4_^5_^6_v5_v4_v3_v2_buffer.mp3"
"","758.7749999985099","html-button-response","271","70068060","0.0-21.0-7.4","49229","","<p>Which tone was played seventh after the cadence?</p><p>Please respond as quickly and as accurately as possible!</p>","5","","7","new_stimuli/mp3/melody_^2_^3_^4_^5_^6_v5_v4_v3_v2_buffer.mp3"
"","600.8599998913705","html-button-response","272","70068662","0.0-21.0-8.4","49229","","<p>Which tone was played eight after the cadence?</p><p>Please respond as quickly and as accurately as possible!</p>","4","","8","new_stimuli/mp3/melody_^2_^3_^4_^5_^6_v5_v4_v3_v2_buffer.mp3"
"","684.5850001573563","html-button-response","273","70069347","0.0-21.0-9.4","49229","","<p>Which tone was played nineth after the cadence?</p><p>Please respond as quickly and as accurately as possible!</p>","2","","9","new_stimuli/mp3/melody_^2_^3_^4_^5_^6_v5_v4_v3_v2_buffer.mp3"
"","null","audio-keyboard-response","274","70081987","0.0-21.0-0.5","49229","","new_stimuli/mp3/melody_v7_v6_v5_^6_v5_v4_^5_^6_v5_.mp3","","null","",""
"","1797.315000090748","html-button-response","275","70083785","0.0-21.0-1.5","49229","","<p>Which tone was played first after the cadence?</p><p>Please respond as quickly and as accurately as possible!</p>","11","","1","new_stimuli/mp3/melody_v7_v6_v5_^6_v5_v4_^5_^6_v5_.mp3"
"","839.1100000590086","html-button-response","276","70084626","0.0-21.0-2.5","49229","","<p>Which tone was played second after the cadence?</p><p>Please respond as quickly and as accurately as possible!</p>","9","","2","new_stimuli/mp3/melody_v7_v6_v5_^6_v5_v4_^5_^6_v5_.mp3"
"","914.3799999728799","html-button-response","277","70085541","0.0-21.0-3.5","49229","","<p>Which tone was played third after the cadence?</p><p>Please respond as quickly and as accurately as possible!</p>","7","","3","new_stimuli/mp3/melody_v7_v6_v5_^6_v5_v4_^5_^6_v5_.mp3"
"","840.9400000236928","html-button-response","278","70086383","0.0-21.0-4.5","49229","","<p>Which tone was played fourth after the cadence?</p><p>Please respond as quickly and as accurately as possible!</p>","9","","4","new_stimuli/mp3/melody_v7_v6_v5_^6_v5_v4_^5_^6_v5_.mp3"
"","774.9400001466274","html-button-response","279","70087159","0.0-21.0-5.5","49229","","<p>Which tone was played fifth after the cadence?</p><p>Please respond as quickly and as accurately as possible!</p>","7","","5","new_stimuli/mp3/melody_v7_v6_v5_^6_v5_v4_^5_^6_v5_.mp3"
"","1572.6000000722706","html-button-response","280","70088733","0.0-21.0-6.5","49229","","<p>Which tone was played sixth after the cadence?</p><p>Please respond as quickly and as accurately as possible!</p>","5","","6","new_stimuli/mp3/melody_v7_v6_v5_^6_v5_v4_^5_^6_v5_.mp3"
"","6459.934999931604","html-button-response","281","70095194","0.0-21.0-7.5","49229","","<p>Which tone was played seventh after the cadence?</p><p>Please respond as quickly and as accurately as possible!</p>","7","","7","new_stimuli/mp3/melody_v7_v6_v5_^6_v5_v4_^5_^6_v5_.mp3"
"","1193.7200000993907","html-button-response","282","70096389","0.0-21.0-8.5","49229","","<p>Which tone was played eight after the cadence?</p><p>Please respond as quickly and as accurately as possible!</p>","4","","8","new_stimuli/mp3/melody_v7_v6_v5_^6_v5_v4_^5_^6_v5_.mp3"
"","318.7700000144541","html-button-response","283","70096709","0.0-21.0-9.5","49229","","<p>Which tone was played nineth after the cadence?</p><p>Please respond as quickly and as accurately as possible!</p>","5","","9","new_stimuli/mp3/melody_v7_v6_v5_^6_v5_v4_^5_^6_v5_.mp3"
"","null","audio-keyboard-response","284","70109350","0.0-21.0-0.6","49229","","new_stimuli/mp3/melody_v5_v4_v6+_^7_^3+_v3_v2_v5_^4_.mp3","","null","",""
"","5039.17999984324","html-button-response","285","70114391","0.0-21.0-1.6","49229","","<p>Which tone was played first after the cadence?</p><p>Please respond as quickly and as accurately as possible!</p>","5","","1","new_stimuli/mp3/melody_v5_v4_v6+_^7_^3+_v3_v2_v5_^4_.mp3"
"","690.6749999634922","html-button-response","286","70115083","0.0-21.0-2.6","49229","","<p>Which tone was played second after the cadence?</p><p>Please respond as quickly and as accurately as possible!</p>","4","","2","new_stimuli/mp3/melody_v5_v4_v6+_^7_^3+_v3_v2_v5_^4_.mp3"
"","1764.3100000023842","html-button-response","287","70116848","0.0-21.0-3.6","49229","","<p>Which tone was played third after the cadence?</p><p>Please respond as quickly and as accurately as possible!</p>","1","","3","new_stimuli/mp3/melody_v5_v4_v6+_^7_^3+_v3_v2_v5_^4_.mp3"
"","3299.175000052899","html-button-response","288","70120149","0.0-21.0-4.6","49229","","<p>Which tone was played fourth after the cadence?</p><p>Please respond as quickly and as accurately as possible!</p>","11","","4","new_stimuli/mp3/melody_v5_v4_v6+_^7_^3+_v3_v2_v5_^4_.mp3"
"","980.0450000911951","html-button-response","289","70121130","0.0-21.0-5.6","49229","","<p>Which tone was played fifth after the cadence?</p><p>Please respond as quickly and as accurately as possible!</p>","12","","5","new_stimuli/mp3/melody_v5_v4_v6+_^7_^3+_v3_v2_v5_^4_.mp3"
"","2834.759999997914","html-button-response","290","70123966","0.0-21.0-6.6","49229","","<p>Which tone was played sixth after the cadence?</p><p>Please respond as quickly and as accurately as possible!</p>","1","","6","new_stimuli/mp3/melody_v5_v4_v6+_^7_^3+_v3_v2_v5_^4_.mp3"
"","6756.560000129044","html-button-response","291","70130724","0.0-21.0-7.6","49229","","<p>Which tone was played seventh after the cadence?</p><p>Please respond as quickly and as accurately as possible!</p>","7","","7","new_stimuli/mp3/melody_v5_v4_v6+_^7_^3+_v3_v2_v5_^4_.mp3"
"","460.1950000524521","html-button-response","292","70131185","0.0-21.0-8.6","49229","","<p>Which tone was played eight after the cadence?</p><p>Please respond as quickly and as accurately as possible!</p>","5","","8","new_stimuli/mp3/melody_v5_v4_v6+_^7_^3+_v3_v2_v5_^4_.mp3"
"","268.8150000758469","html-button-response","293","70131455","0.0-21.0-9.6","49229","","<p>Which tone was played nineth after the cadence?</p><p>Please respond as quickly and as accurately as possible!</p>","4","","9","new_stimuli/mp3/melody_v5_v4_v6+_^7_^3+_v3_v2_v5_^4_.mp3"
"","103294.02500018477","survey-text","294","70234747","0.0-22.0","49229","{""Q0"":""I tried to sing the roots along with the cadence to get the tonic, then tried to find the starting note from there. For the longer ones, I was comparing to familiar melodies like walking up and down scales in order to store that many notes simultaneously, but when things got chromatic and weird I often found myself just not remembering the last few notes at all.""}","","","","",""
"","21985.77000014484","survey-text","295","70256733","0.0-23.0","49229","{""Q0"":""Thanks for reminding me how bad I am at aural skills.""}","","","","",""
"","34967.96000003815","survey-text","296","70291701","0.0-24.0","49229","{""Q0"":""I sang, so depends whether you count that as external, but no, no piano or I probably would've done a whole lot better.""}","","","","",""
"","4282.859999921173","survey-text","297","70295986","0.0-25.0","49229","{""Q0"":""Headphones.""}","","","","",""
"","11364.655000157654","survey-text","298","70307351","0.0-26.0","49229","{""Q0"":""Agender/non-binary""}","","","","",""
"","2953.9800002239645","survey-text","299","70310306","0.0-27.0","49229","{""Q0"":""Yes.""}","","","","",""
"[{""page_index"":0,""viewing_time"":4138.610000025481}]","4138.860000062734","instructions","300","70314446","0.0-28.0","49229","","","","","",""
