"view_history","rt","trial_type","trial_index","time_elapsed","internal_node_id","subject","responses","stimulus","button_pressed","key_press","response_sequence","melody"
"[{""page_index"":0,""viewing_time"":2901.0199999902397},{""page_index"":1,""viewing_time"":17983.67500002496},{""page_index"":2,""viewing_time"":3515.824999893084}]","24401.254999917","instructions","0","24403","0.0-0.0","4983","","","","","",""
"","2535.3749999776483","survey-text","1","26942","0.0-1.0","4983","{""Q0"":""25""}","","","","",""
"","8435.06499985233","survey-text","2","35379","0.0-2.0","4983","{""Q0"":""Completed master's degree""}","","","","",""
"","7450.620000017807","survey-text","3","42830","0.0-3.0","4983","{""Q0"":""None""}","","","","",""
"","2526.2449998408556","survey-text","4","45358","0.0-4.0","4983","{""Q0"":""Yes""}","","","","",""
"","9586.674999911338","survey-text","5","54945","0.0-5.0","4983","{""Q0"":""60 weeks""}","","","","",""
"","6968.759999843314","survey-text","6","61915","0.0-6.0","4983","{""Q0"":""0""}","","","","",""
"[{""page_index"":0,""viewing_time"":4138.435000088066},{""page_index"":1,""viewing_time"":38426.95499979891},{""page_index"":2,""viewing_time"":3789.165000198409}]","46354.959999909624","instructions","7","108269","0.0-7.0","4983","","","","","",""
"","39628.250000067055","audio-button-response","8","147993","0.0-8.0","4983","","stimuli/long/c-do.mp3","0","","",""
"","9500.334999989718","audio-button-response","9","157495","0.0-9.0","4983","","stimuli/long/a-le.mp3","8","","",""
"[{""page_index"":0,""viewing_time"":9638.389999978244},{""page_index"":1,""viewing_time"":2402.1050001028925}]","12040.88500002399","instructions","10","169536","0.0-10.0","4983","","","","","",""
"","8401.63500001654","audio-button-response","11","177941","0.0-11.0-0.0","4983","","stimuli/long/a-te.mp3","10","","",""
"","10992.580000078306","audio-button-response","12","188936","0.0-11.0-0.1","4983","","stimuli/long/a-do8.mp3","0","","",""
"","14725.88500007987","audio-button-response","13","203664","0.0-11.0-0.2","4983","","stimuli/long/c-ra.mp3","1","","",""
"","10594.824999803677","audio-button-response","14","214261","0.0-11.0-0.3","4983","","stimuli/long/c-fi.mp3","6","","",""
"","9320.115000009537","audio-button-response","15","223583","0.0-11.0-0.4","4983","","stimuli/long/c-ti.mp3","11","","",""
"","11686.689999885857","audio-button-response","16","235272","0.0-11.0-0.5","4983","","stimuli/long/c-la.mp3","9","","",""
"","9935.640000039712","audio-button-response","17","245210","0.0-11.0-0.6","4983","","stimuli/long/a-fa.mp3","5","","",""
"","12268.159999977797","audio-button-response","18","257481","0.0-11.0-0.7","4983","","stimuli/long/e-te.mp3","2","","",""
"","11853.920000139624","audio-button-response","19","269338","0.0-11.0-0.8","4983","","stimuli/long/a-le.mp3","8","","",""
"","10674.385000020266","audio-button-response","20","280014","0.0-11.0-0.9","4983","","stimuli/long/a-sol.mp3","7","","",""
"","7605.20499991253","audio-button-response","21","287621","0.0-11.0-0.10","4983","","stimuli/long/a-do.mp3","0","","",""
"","9777.79999980703","audio-button-response","22","297401","0.0-11.0-0.11","4983","","stimuli/long/e-sol.mp3","7","","",""
"","8406.67499997653","audio-button-response","23","305810","0.0-11.0-0.12","4983","","stimuli/long/e-mi.mp3","4","","",""
"","10923.805000027642","audio-button-response","24","316736","0.0-11.0-0.13","4983","","stimuli/long/c-re.mp3","2","","",""
"","9535.924999974668","audio-button-response","25","326274","0.0-11.0-0.14","4983","","stimuli/long/e-fa.mp3","5","","",""
"","13767.089999979362","audio-button-response","26","340043","0.0-11.0-0.15","4983","","stimuli/long/a-me.mp3","8","","",""
"","9641.604999778792","audio-button-response","27","349686","0.0-11.0-0.16","4983","","stimuli/long/e-me.mp3","3","","",""
"","14384.534999961033","audio-button-response","28","364073","0.0-11.0-0.17","4983","","stimuli/long/e-re.mp3","2","","",""
"","15007.680000038818","audio-button-response","29","379085","0.0-11.0-0.18","4983","","stimuli/long/a-mi.mp3","9","","",""
"","11741.394999902695","audio-button-response","30","390829","0.0-11.0-0.19","4983","","stimuli/long/c-me.mp3","3","","",""
"","8364.385000197217","audio-button-response","31","399196","0.0-11.0-0.20","4983","","stimuli/long/c-sol.mp3","7","","",""
"","12749.150000046939","audio-button-response","32","411947","0.0-11.0-0.21","4983","","stimuli/long/c-mi.mp3","4","","",""
"","11064.495000056922","audio-button-response","33","423014","0.0-11.0-0.22","4983","","stimuli/long/a-la.mp3","9","","",""
"","11909.685000078753","audio-button-response","34","434926","0.0-11.0-0.23","4983","","stimuli/long/e-fi.mp3","6","","",""
"","9278.260000050068","audio-button-response","35","444207","0.0-11.0-0.24","4983","","stimuli/long/a-ti.mp3","11","","",""
"","11349.480000091717","audio-button-response","36","455558","0.0-11.0-0.25","4983","","stimuli/long/a-fi.mp3","6","","",""
"","12313.09499987401","audio-button-response","37","467873","0.0-11.0-0.26","4983","","stimuli/long/e-le.mp3","8","","",""
"","13021.185000194237","audio-button-response","38","480896","0.0-11.0-0.27","4983","","stimuli/long/a-re.mp3","2","","",""
"","10457.350000040606","audio-button-response","39","491356","0.0-11.0-0.28","4983","","stimuli/long/e-la.mp3","9","","",""
"","8542.754999827594","audio-button-response","40","499901","0.0-11.0-0.29","4983","","stimuli/long/c-do.mp3","0","","",""
"","8671.890000114217","audio-button-response","41","508575","0.0-11.0-0.30","4983","","stimuli/long/c-fa.mp3","5","","",""
"","8500.119999982417","audio-button-response","42","517077","0.0-11.0-0.31","4983","","stimuli/long/e-do8.mp3","12","","",""
"","12681.024999823421","audio-button-response","43","529761","0.0-11.0-0.32","4983","","stimuli/long/c-le.mp3","8","","",""
"","14311.870000092313","audio-button-response","44","544075","0.0-11.0-0.33","4983","","stimuli/long/e-ti.mp3","11","","",""
"","7729.67499983497","audio-button-response","45","551807","0.0-11.0-0.34","4983","","stimuli/long/e-do.mp3","0","","",""
"","7916.399999987334","audio-button-response","46","559725","0.0-11.0-0.35","4983","","stimuli/long/c-do8.mp3","12","","",""
"","11007.360000163317","audio-button-response","47","570735","0.0-11.0-0.36","4983","","stimuli/long/e-ra.mp3","1","","",""
"","9500.944999977946","audio-button-response","48","580238","0.0-11.0-0.37","4983","","stimuli/long/a-ra.mp3","1","","",""
"[{""page_index"":0,""viewing_time"":51048.094999976456},{""page_index"":1,""viewing_time"":786.0000000800937}]","51834.52000003308","instructions","49","632072","0.0-12.0","4983","","","","","",""
"","null","audio-keyboard-response","50","641532","0.0-13.0-0.0","4983","","new_stimuli/mp3/melody_^3_v4+_buffer.mp3","","null","",""
"","6001.214999938384","html-button-response","51","647535","0.0-13.0-1.0","4983","","<p>Which tone was played first after the cadence?</p>","4","","1","new_stimuli/mp3/melody_^3_v4+_buffer.mp3"
"","3012.940000044182","html-button-response","52","650551","0.0-13.0-2.0","4983","","<p>Which tone was played second after the cadence?</p>","6","","2","new_stimuli/mp3/melody_^3_v4+_buffer.mp3"
"","null","audio-keyboard-response","53","659746","0.0-13.0-0.1","4983","","new_stimuli/mp3/melody_v3_v2_buffer.mp3","","null","",""
"","1512.4099999666214","html-button-response","54","661261","0.0-13.0-1.1","4983","","<p>Which tone was played first after the cadence?</p>","4","","1","new_stimuli/mp3/melody_v3_v2_buffer.mp3"
"","1283.8449999690056","html-button-response","55","662546","0.0-13.0-2.1","4983","","<p>Which tone was played second after the cadence?</p>","2","","2","new_stimuli/mp3/melody_v3_v2_buffer.mp3"
"","null","audio-keyboard-response","56","671716","0.0-13.0-0.2","4983","","new_stimuli/mp3/melody_^5_^1+_.mp3","","null","",""
"","2200.4650000017136","html-button-response","57","673918","0.0-13.0-1.2","4983","","<p>Which tone was played first after the cadence?</p>","7","","1","new_stimuli/mp3/melody_^5_^1+_.mp3"
"","10894.464999902993","html-button-response","58","684814","0.0-13.0-2.2","4983","","<p>Which tone was played second after the cadence?</p>","1","","2","new_stimuli/mp3/melody_^5_^1+_.mp3"
"","null","audio-keyboard-response","59","694111","0.0-13.0-0.3","4983","","new_stimuli/mp3/melody_3_^6_buffer.mp3","","null","",""
"","3744.5000000298023","html-button-response","60","697859","0.0-13.0-1.3","4983","","<p>Which tone was played first after the cadence?</p>","4","","1","new_stimuli/mp3/melody_3_^6_buffer.mp3"
"","5444.1700000315905","html-button-response","61","703305","0.0-13.0-2.3","4983","","<p>Which tone was played second after the cadence?</p>","9","","2","new_stimuli/mp3/melody_3_^6_buffer.mp3"
"","null","audio-keyboard-response","62","712373","0.0-13.0-0.4","4983","","new_stimuli/mp3/melody_v2_v1_.mp3","","null","",""
"","851.869999896735","html-button-response","63","713227","0.0-13.0-1.4","4983","","<p>Which tone was played first after the cadence?</p>","2","","1","new_stimuli/mp3/melody_v2_v1_.mp3"
"","799.7000000905246","html-button-response","64","714028","0.0-13.0-2.4","4983","","<p>Which tone was played second after the cadence?</p>","0","","2","new_stimuli/mp3/melody_v2_v1_.mp3"
"","null","audio-keyboard-response","65","723483","0.0-13.0-0.5","4983","","new_stimuli/mp3/melody_v7_v3_buffer.mp3","","null","",""
"","1702.690000180155","html-button-response","66","725188","0.0-13.0-1.5","4983","","<p>Which tone was played first after the cadence?</p>","11","","1","new_stimuli/mp3/melody_v7_v3_buffer.mp3"
"","2584.210000000894","html-button-response","67","727775","0.0-13.0-2.5","4983","","<p>Which tone was played second after the cadence?</p>","4","","2","new_stimuli/mp3/melody_v7_v3_buffer.mp3"
"","null","audio-keyboard-response","68","736945","0.0-13.0-0.6","4983","","new_stimuli/mp3/melody_v5_v1+_.mp3","","null","",""
"","1294.2349999211729","html-button-response","69","738242","0.0-13.0-1.6","4983","","<p>Which tone was played first after the cadence?</p>","7","","1","new_stimuli/mp3/melody_v5_v1+_.mp3"
"","3494.169999845326","html-button-response","70","741738","0.0-13.0-2.6","4983","","<p>Which tone was played second after the cadence?</p>","1","","2","new_stimuli/mp3/melody_v5_v1+_.mp3"
"","null","audio-keyboard-response","71","750906","0.0-13.0-0.7","4983","","new_stimuli/mp3/melody_^2_v7-_.mp3","","null","",""
"","2380.2900000009686","html-button-response","72","753288","0.0-13.0-1.7","4983","","<p>Which tone was played first after the cadence?</p>","2","","1","new_stimuli/mp3/melody_^2_v7-_.mp3"
"","3008.2600000314415","html-button-response","73","756299","0.0-13.0-2.7","4983","","<p>Which tone was played second after the cadence?</p>","10","","2","new_stimuli/mp3/melody_^2_v7-_.mp3"
"","null","audio-keyboard-response","74","765732","0.0-13.0-0.8","4983","","new_stimuli/mp3/melody_v4_v3_buffer.mp3","","null","",""
"","2345.8499999251217","html-button-response","75","768080","0.0-13.0-1.8","4983","","<p>Which tone was played first after the cadence?</p>","5","","1","new_stimuli/mp3/melody_v4_v3_buffer.mp3"
"","1464.339999947697","html-button-response","76","769546","0.0-13.0-2.8","4983","","<p>Which tone was played second after the cadence?</p>","4","","2","new_stimuli/mp3/melody_v4_v3_buffer.mp3"
"","null","audio-keyboard-response","77","778560","0.0-13.0-0.9","4983","","new_stimuli/mp3/melody_^1_^2+_.mp3","","null","",""
"","2807.0500001776963","html-button-response","78","781369","0.0-13.0-1.9","4983","","<p>Which tone was played first after the cadence?</p>","0","","1","new_stimuli/mp3/melody_^1_^2+_.mp3"
"","1324.6300001628697","html-button-response","79","782697","0.0-13.0-2.9","4983","","<p>Which tone was played second after the cadence?</p>","3","","2","new_stimuli/mp3/melody_^1_^2+_.mp3"
"[{""page_index"":0,""viewing_time"":3804.9550000578165},{""page_index"":1,""viewing_time"":1067.839999916032},{""page_index"":2,""viewing_time"":871.9200000632554}]","5745.125000132248","instructions","80","788443","0.0-14.0","4983","","","","","",""
"","null","audio-keyboard-response","81","798343","0.0-15.0-0.0","4983","","new_stimuli/mp3/melody_^1_v6_v5+_.mp3","","null","",""
"","1746.8550000339746","html-button-response","82","800092","0.0-15.0-1.0","4983","","<p>Which tone was played first after the cadence?</p>","0","","1","new_stimuli/mp3/melody_^1_v6_v5+_.mp3"
"","2999.0149999503046","html-button-response","83","803094","0.0-15.0-2.0","4983","","<p>Which tone was played second after the cadence?</p>","9","","2","new_stimuli/mp3/melody_^1_v6_v5+_.mp3"
"","1945.395000046119","html-button-response","84","805043","0.0-15.0-3.0","4983","","<p>Which tone was played third after the cadence?</p>","8","","3","new_stimuli/mp3/melody_^1_v6_v5+_.mp3"
"","null","audio-keyboard-response","85","814603","0.0-15.0-0.1","4983","","new_stimuli/mp3/melody_v1_v7-_^7_.mp3","","null","",""
"","1322.8449998423457","html-button-response","86","815927","0.0-15.0-1.1","4983","","<p>Which tone was played first after the cadence?</p>","0","","1","new_stimuli/mp3/melody_v1_v7-_^7_.mp3"
"","1552.3349998984486","html-button-response","87","817482","0.0-15.0-2.1","4983","","<p>Which tone was played second after the cadence?</p>","10","","2","new_stimuli/mp3/melody_v1_v7-_^7_.mp3"
"","927.3899998515844","html-button-response","88","818411","0.0-15.0-3.1","4983","","<p>Which tone was played third after the cadence?</p>","11","","3","new_stimuli/mp3/melody_v1_v7-_^7_.mp3"
"","null","audio-keyboard-response","89","827919","0.0-15.0-0.2","4983","","new_stimuli/mp3/melody_1_v1+_^2_.mp3","","null","",""
"","1450.955000007525","html-button-response","90","829371","0.0-15.0-1.2","4983","","<p>Which tone was played first after the cadence?</p>","0","","1","new_stimuli/mp3/melody_1_v1+_^2_.mp3"
"","1940.7899999059737","html-button-response","91","831314","0.0-15.0-2.2","4983","","<p>Which tone was played second after the cadence?</p>","1","","2","new_stimuli/mp3/melody_1_v1+_^2_.mp3"
"","778.1700000632554","html-button-response","92","832094","0.0-15.0-3.2","4983","","<p>Which tone was played third after the cadence?</p>","2","","3","new_stimuli/mp3/melody_1_v1+_^2_.mp3"
"","null","audio-keyboard-response","93","842071","0.0-15.0-0.3","4983","","new_stimuli/mp3/melody_v2_v5_^3_buffer.mp3","","null","",""
"","2221.390000078827","html-button-response","94","844295","0.0-15.0-1.3","4983","","<p>Which tone was played first after the cadence?</p>","2","","1","new_stimuli/mp3/melody_v2_v5_^3_buffer.mp3"
"","5200.470000039786","html-button-response","95","849497","0.0-15.0-2.3","4983","","<p>Which tone was played second after the cadence?</p>","7","","2","new_stimuli/mp3/melody_v2_v5_^3_buffer.mp3"
"","1353.459999896586","html-button-response","96","850853","0.0-15.0-3.3","4983","","<p>Which tone was played third after the cadence?</p>","4","","3","new_stimuli/mp3/melody_v2_v5_^3_buffer.mp3"
"","null","audio-keyboard-response","97","860496","0.0-15.0-0.4","4983","","new_stimuli/mp3/melody_6_^1_v5_.mp3","","null","",""
"","2007.3949999641627","html-button-response","98","862505","0.0-15.0-1.4","4983","","<p>Which tone was played first after the cadence?</p>","9","","1","new_stimuli/mp3/melody_6_^1_v5_.mp3"
"","1710.9499999787658","html-button-response","99","864218","0.0-15.0-2.4","4983","","<p>Which tone was played second after the cadence?</p>","12","","2","new_stimuli/mp3/melody_6_^1_v5_.mp3"
"","1641.8399999383837","html-button-response","100","865862","0.0-15.0-3.4","4983","","<p>Which tone was played third after the cadence?</p>","7","","3","new_stimuli/mp3/melody_6_^1_v5_.mp3"
"","null","audio-keyboard-response","101","875449","0.0-15.0-0.5","4983","","new_stimuli/mp3/melody_v1_v7-_7-_buffer.mp3","","null","",""
"","854.6599999535829","html-button-response","102","876306","0.0-15.0-1.5","4983","","<p>Which tone was played first after the cadence?</p>","12","","1","new_stimuli/mp3/melody_v1_v7-_7-_buffer.mp3"
"","2019.7349998634309","html-button-response","103","878328","0.0-15.0-2.5","4983","","<p>Which tone was played second after the cadence?</p>","10","","2","new_stimuli/mp3/melody_v1_v7-_7-_buffer.mp3"
"","554.8500001896173","html-button-response","104","878886","0.0-15.0-3.5","4983","","<p>Which tone was played third after the cadence?</p>","10","","3","new_stimuli/mp3/melody_v1_v7-_7-_buffer.mp3"
"","null","audio-keyboard-response","105","888841","0.0-15.0-0.6","4983","","new_stimuli/mp3/melody_v5_v4_v3_buffer.mp3","","null","",""
"","892.0250001829118","html-button-response","106","889735","0.0-15.0-1.6","4983","","<p>Which tone was played first after the cadence?</p>","7","","1","new_stimuli/mp3/melody_v5_v4_v3_buffer.mp3"
"","713.8900000136346","html-button-response","107","890451","0.0-15.0-2.6","4983","","<p>Which tone was played second after the cadence?</p>","5","","2","new_stimuli/mp3/melody_v5_v4_v3_buffer.mp3"
"","1246.7649998143315","html-button-response","108","891699","0.0-15.0-3.6","4983","","<p>Which tone was played third after the cadence?</p>","4","","3","new_stimuli/mp3/melody_v5_v4_v3_buffer.mp3"
"","null","audio-keyboard-response","109","901391","0.0-15.0-0.7","4983","","new_stimuli/mp3/melody_v4_v3_v2_buffer.mp3","","null","",""
"","983.6999999824911","html-button-response","110","902376","0.0-15.0-1.7","4983","","<p>Which tone was played first after the cadence?</p>","5","","1","new_stimuli/mp3/melody_v4_v3_v2_buffer.mp3"
"","892.8100001066923","html-button-response","111","903271","0.0-15.0-2.7","4983","","<p>Which tone was played second after the cadence?</p>","4","","2","new_stimuli/mp3/melody_v4_v3_v2_buffer.mp3"
"","1433.9449999388307","html-button-response","112","904707","0.0-15.0-3.7","4983","","<p>Which tone was played third after the cadence?</p>","2","","3","new_stimuli/mp3/melody_v4_v3_v2_buffer.mp3"
"","null","audio-keyboard-response","113","914266","0.0-15.0-0.8","4983","","new_stimuli/mp3/melody_v3_v2_v1_.mp3","","null","",""
"","1237.0349999982864","html-button-response","114","915505","0.0-15.0-1.8","4983","","<p>Which tone was played first after the cadence?</p>","4","","1","new_stimuli/mp3/melody_v3_v2_v1_.mp3"
"","666.620000032708","html-button-response","115","916173","0.0-15.0-2.8","4983","","<p>Which tone was played second after the cadence?</p>","2","","2","new_stimuli/mp3/melody_v3_v2_v1_.mp3"
"","611.670000012964","html-button-response","116","916787","0.0-15.0-3.8","4983","","<p>Which tone was played third after the cadence?</p>","0","","3","new_stimuli/mp3/melody_v3_v2_v1_.mp3"
"[{""page_index"":0,""viewing_time"":6259.070000145584},{""page_index"":1,""viewing_time"":2018.0949999485165},{""page_index"":2,""viewing_time"":18160.945000126958}]","26438.520000083372","instructions","117","943225","0.0-16.0","4983","","","","","",""
"","null","audio-keyboard-response","118","953937","0.0-17.0-0.0","4983","","new_stimuli/mp3/melody_^6_v5_v4_v3_v2_buffer.mp3","","null","",""
"","3599.72000005655","html-button-response","119","957539","0.0-17.0-1.0","4983","","<p>Which tone was played first after the cadence?</p>","9","","1","new_stimuli/mp3/melody_^6_v5_v4_v3_v2_buffer.mp3"
"","751.6199999954551","html-button-response","120","958292","0.0-17.0-2.0","4983","","<p>Which tone was played second after the cadence?</p>","7","","2","new_stimuli/mp3/melody_^6_v5_v4_v3_v2_buffer.mp3"
"","918.5800000559539","html-button-response","121","959213","0.0-17.0-3.0","4983","","<p>Which tone was played third after the cadence?</p>","5","","3","new_stimuli/mp3/melody_^6_v5_v4_v3_v2_buffer.mp3"
"","2090.0799999944866","html-button-response","122","961304","0.0-17.0-4.0","4983","","<p>Which tone was played fourth after the cadence?</p>","4","","4","new_stimuli/mp3/melody_^6_v5_v4_v3_v2_buffer.mp3"
"","895.9449999965727","html-button-response","123","962202","0.0-17.0-5.0","4983","","<p>Which tone was played fifth after the cadence?</p>","2","","5","new_stimuli/mp3/melody_^6_v5_v4_v3_v2_buffer.mp3"
"","null","audio-keyboard-response","124","972785","0.0-17.0-0.1","4983","","new_stimuli/mp3/melody_v5_v4_v3_v2_v1 _buffer.mp3","","null","",""
"","986.5749999880791","html-button-response","125","973774","0.0-17.0-1.1","4983","","<p>Which tone was played first after the cadence?</p>","7","","1","new_stimuli/mp3/melody_v5_v4_v3_v2_v1 _buffer.mp3"
"","681.3799999654293","html-button-response","126","974457","0.0-17.0-2.1","4983","","<p>Which tone was played second after the cadence?</p>","5","","2","new_stimuli/mp3/melody_v5_v4_v3_v2_v1 _buffer.mp3"
"","838.4250001981854","html-button-response","127","975298","0.0-17.0-3.1","4983","","<p>Which tone was played third after the cadence?</p>","4","","3","new_stimuli/mp3/melody_v5_v4_v3_v2_v1 _buffer.mp3"
"","599.495000205934","html-button-response","128","975901","0.0-17.0-4.1","4983","","<p>Which tone was played fourth after the cadence?</p>","2","","4","new_stimuli/mp3/melody_v5_v4_v3_v2_v1 _buffer.mp3"
"","540.3950000181794","html-button-response","129","976443","0.0-17.0-5.1","4983","","<p>Which tone was played fifth after the cadence?</p>","0","","5","new_stimuli/mp3/melody_v5_v4_v3_v2_v1 _buffer.mp3"
"","null","audio-keyboard-response","130","987024","0.0-17.0-0.2","4983","","new_stimuli/mp3/melody_v2_2_^3_^4_v2_.mp3","","null","",""
"","3090.095000108704","html-button-response","131","990116","0.0-17.0-1.2","4983","","<p>Which tone was played first after the cadence?</p>","2","","1","new_stimuli/mp3/melody_v2_2_^3_^4_v2_.mp3"
"","1052.65500000678","html-button-response","132","991171","0.0-17.0-2.2","4983","","<p>Which tone was played second after the cadence?</p>","2","","2","new_stimuli/mp3/melody_v2_2_^3_^4_v2_.mp3"
"","900.2450001426041","html-button-response","133","992073","0.0-17.0-3.2","4983","","<p>Which tone was played third after the cadence?</p>","4","","3","new_stimuli/mp3/melody_v2_2_^3_^4_v2_.mp3"
"","603.8800000678748","html-button-response","134","992678","0.0-17.0-4.2","4983","","<p>Which tone was played fourth after the cadence?</p>","5","","4","new_stimuli/mp3/melody_v2_2_^3_^4_v2_.mp3"
"","698.1999999843538","html-button-response","135","993378","0.0-17.0-5.2","4983","","<p>Which tone was played fifth after the cadence?</p>","2","","5","new_stimuli/mp3/melody_v2_2_^3_^4_v2_.mp3"
"","null","audio-keyboard-response","136","1004323","0.0-17.0-0.3","4983","","new_stimuli/mp3/melody_v5-_v3_3_^4+_v3_.mp3","","null","",""
"","1209.440000122413","html-button-response","137","1005534","0.0-17.0-1.3","4983","","<p>Which tone was played first after the cadence?</p>","6","","1","new_stimuli/mp3/melody_v5-_v3_3_^4+_v3_.mp3"
"","1228.1750000547618","html-button-response","138","1006764","0.0-17.0-2.3","4983","","<p>Which tone was played second after the cadence?</p>","4","","2","new_stimuli/mp3/melody_v5-_v3_3_^4+_v3_.mp3"
"","632.3549998924136","html-button-response","139","1007399","0.0-17.0-3.3","4983","","<p>Which tone was played third after the cadence?</p>","4","","3","new_stimuli/mp3/melody_v5-_v3_3_^4+_v3_.mp3"
"","870.1949999667704","html-button-response","140","1008271","0.0-17.0-4.3","4983","","<p>Which tone was played fourth after the cadence?</p>","6","","4","new_stimuli/mp3/melody_v5-_v3_3_^4+_v3_.mp3"
"","720.0599999632686","html-button-response","141","1008993","0.0-17.0-5.3","4983","","<p>Which tone was played fifth after the cadence?</p>","4","","5","new_stimuli/mp3/melody_v5-_v3_3_^4+_v3_.mp3"
"","null","audio-keyboard-response","142","1019624","0.0-17.0-0.4","4983","","new_stimuli/mp3/melody_v5_^6+_^7_^1_5_.mp3","","null","",""
"","834.3750000931323","html-button-response","143","1020461","0.0-17.0-1.4","4983","","<p>Which tone was played first after the cadence?</p>","7","","1","new_stimuli/mp3/melody_v5_^6+_^7_^1_5_.mp3"
"","760.7500001322478","html-button-response","144","1021223","0.0-17.0-2.4","4983","","<p>Which tone was played second after the cadence?</p>","9","","2","new_stimuli/mp3/melody_v5_^6+_^7_^1_5_.mp3"
"","789.5649999845773","html-button-response","145","1022015","0.0-17.0-3.4","4983","","<p>Which tone was played third after the cadence?</p>","11","","3","new_stimuli/mp3/melody_v5_^6+_^7_^1_5_.mp3"
"","596.129999961704","html-button-response","146","1022613","0.0-17.0-4.4","4983","","<p>Which tone was played fourth after the cadence?</p>","12","","4","new_stimuli/mp3/melody_v5_^6+_^7_^1_5_.mp3"
"","682.2800000663847","html-button-response","147","1023298","0.0-17.0-5.4","4983","","<p>Which tone was played fifth after the cadence?</p>","7","","5","new_stimuli/mp3/melody_v5_^6+_^7_^1_5_.mp3"
"","null","audio-keyboard-response","148","1033933","0.0-17.0-0.5","4983","","new_stimuli/mp3/melody_^6_v4_v3_^4_^5_.mp3","","null","",""
"","1135.2550000883639","html-button-response","149","1035071","0.0-17.0-1.5","4983","","<p>Which tone was played first after the cadence?</p>","9","","1","new_stimuli/mp3/melody_^6_v4_v3_^4_^5_.mp3"
"","1145.869999891147","html-button-response","150","1036219","0.0-17.0-2.5","4983","","<p>Which tone was played second after the cadence?</p>","5","","2","new_stimuli/mp3/melody_^6_v4_v3_^4_^5_.mp3"
"","679.7350000124425","html-button-response","151","1036900","0.0-17.0-3.5","4983","","<p>Which tone was played third after the cadence?</p>","4","","3","new_stimuli/mp3/melody_^6_v4_v3_^4_^5_.mp3"
"","524.3799998424947","html-button-response","152","1037427","0.0-17.0-4.5","4983","","<p>Which tone was played fourth after the cadence?</p>","5","","4","new_stimuli/mp3/melody_^6_v4_v3_^4_^5_.mp3"
"","1536.0899998340756","html-button-response","153","1038965","0.0-17.0-5.5","4983","","<p>Which tone was played fifth after the cadence?</p>","7","","5","new_stimuli/mp3/melody_^6_v4_v3_^4_^5_.mp3"
"","null","audio-keyboard-response","154","1049548","0.0-17.0-0.6","4983","","new_stimuli/mp3/melody_v5_v4_v3_v2_v1_.mp3","","null","",""
"","1321.0400000680238","html-button-response","155","1050872","0.0-17.0-1.6","4983","","<p>Which tone was played first after the cadence?</p>","7","","1","new_stimuli/mp3/melody_v5_v4_v3_v2_v1_.mp3"
"","642.0449998695403","html-button-response","156","1051515","0.0-17.0-2.6","4983","","<p>Which tone was played second after the cadence?</p>","5","","2","new_stimuli/mp3/melody_v5_v4_v3_v2_v1_.mp3"
"","1102.320000063628","html-button-response","157","1052619","0.0-17.0-3.6","4983","","<p>Which tone was played third after the cadence?</p>","4","","3","new_stimuli/mp3/melody_v5_v4_v3_v2_v1_.mp3"
"","636.1899999901652","html-button-response","158","1053257","0.0-17.0-4.6","4983","","<p>Which tone was played fourth after the cadence?</p>","2","","4","new_stimuli/mp3/melody_v5_v4_v3_v2_v1_.mp3"
"","615.9699999261647","html-button-response","159","1053875","0.0-17.0-5.6","4983","","<p>Which tone was played fifth after the cadence?</p>","0","","5","new_stimuli/mp3/melody_v5_v4_v3_v2_v1_.mp3"
"","null","audio-keyboard-response","160","1064821","0.0-17.0-0.7","4983","","new_stimuli/mp3/melody_^5_^6_v5_v4_v3_buffer.mp3","","null","",""
"","1217.9800001904368","html-button-response","161","1066041","0.0-17.0-1.7","4983","","<p>Which tone was played first after the cadence?</p>","7","","1","new_stimuli/mp3/melody_^5_^6_v5_v4_v3_buffer.mp3"
"","810.2700000163168","html-button-response","162","1066853","0.0-17.0-2.7","4983","","<p>Which tone was played second after the cadence?</p>","9","","2","new_stimuli/mp3/melody_^5_^6_v5_v4_v3_buffer.mp3"
"","639.9600000586361","html-button-response","163","1067495","0.0-17.0-3.7","4983","","<p>Which tone was played third after the cadence?</p>","7","","3","new_stimuli/mp3/melody_^5_^6_v5_v4_v3_buffer.mp3"
"","620.5250001512468","html-button-response","164","1068117","0.0-17.0-4.7","4983","","<p>Which tone was played fourth after the cadence?</p>","5","","4","new_stimuli/mp3/melody_^5_^6_v5_v4_v3_buffer.mp3"
"","534.3899999279529","html-button-response","165","1068653","0.0-17.0-5.7","4983","","<p>Which tone was played fifth after the cadence?</p>","4","","5","new_stimuli/mp3/melody_^5_^6_v5_v4_v3_buffer.mp3"
"[{""page_index"":0,""viewing_time"":36339.11000005901},{""page_index"":1,""viewing_time"":1121.999999973923},{""page_index"":2,""viewing_time"":1040.1600000914186}]","38501.660000067204","instructions","166","1107155","0.0-18.0","4983","","","","","",""
"","null","audio-keyboard-response","167","1118859","0.0-19.0-0.0","4983","","new_stimuli/mp3/melody_^1_v7_v6_v5_v4_v3_v2_buffer.mp3","","null","",""
"","1494.0150000620633","html-button-response","168","1120357","0.0-19.0-1.0","4983","","<p>Which tone was played first after the cadence?</p>","12","","1","new_stimuli/mp3/melody_^1_v7_v6_v5_v4_v3_v2_buffer.mp3"
"","950.294999871403","html-button-response","169","1121309","0.0-19.0-2.0","4983","","<p>Which tone was played second after the cadence?</p>","11","","2","new_stimuli/mp3/melody_^1_v7_v6_v5_v4_v3_v2_buffer.mp3"
"","698.2050000224262","html-button-response","170","1122009","0.0-19.0-3.0","4983","","<p>Which tone was played third after the cadence?</p>","9","","3","new_stimuli/mp3/melody_^1_v7_v6_v5_v4_v3_v2_buffer.mp3"
"","980.0200001336634","html-button-response","171","1122991","0.0-19.0-4.0","4983","","<p>Which tone was played fourth after the cadence?</p>","7","","4","new_stimuli/mp3/melody_^1_v7_v6_v5_v4_v3_v2_buffer.mp3"
"","668.3949998114258","html-button-response","172","1123661","0.0-19.0-5.0","4983","","<p>Which tone was played fifth after the cadence?</p>","5","","5","new_stimuli/mp3/melody_^1_v7_v6_v5_v4_v3_v2_buffer.mp3"
"","523.9850000943989","html-button-response","173","1124187","0.0-19.0-6.0","4983","","<p>Which tone was played sixth after the cadence?</p>","4","","6","new_stimuli/mp3/melody_^1_v7_v6_v5_v4_v3_v2_buffer.mp3"
"","782.3149999603629","html-button-response","174","1124971","0.0-19.0-7.0","4983","","<p>Which tone was played seventh after the cadence?</p>","2","","7","new_stimuli/mp3/melody_^1_v7_v6_v5_v4_v3_v2_buffer.mp3"
"","null","audio-keyboard-response","175","1136936","0.0-19.0-0.1","4983","","new_stimuli/mp3/melody_1_^3_v1_^5_v3_v2_^3_.mp3","","null","",""
"","1014.1050000675023","html-button-response","176","1137952","0.0-19.0-1.1","4983","","<p>Which tone was played first after the cadence?</p>","0","","1","new_stimuli/mp3/melody_1_^3_v1_^5_v3_v2_^3_.mp3"
"","1238.2950000464916","html-button-response","177","1139191","0.0-19.0-2.1","4983","","<p>Which tone was played second after the cadence?</p>","4","","2","new_stimuli/mp3/melody_1_^3_v1_^5_v3_v2_^3_.mp3"
"","822.9700000956655","html-button-response","178","1140016","0.0-19.0-3.1","4983","","<p>Which tone was played third after the cadence?</p>","0","","3","new_stimuli/mp3/melody_1_^3_v1_^5_v3_v2_^3_.mp3"
"","1170.6250000279397","html-button-response","179","1141188","0.0-19.0-4.1","4983","","<p>Which tone was played fourth after the cadence?</p>","7","","4","new_stimuli/mp3/melody_1_^3_v1_^5_v3_v2_^3_.mp3"
"","1527.5099999271333","html-button-response","180","1142718","0.0-19.0-5.1","4983","","<p>Which tone was played fifth after the cadence?</p>","4","","5","new_stimuli/mp3/melody_1_^3_v1_^5_v3_v2_^3_.mp3"
"","625.8449999149889","html-button-response","181","1143345","0.0-19.0-6.1","4983","","<p>Which tone was played sixth after the cadence?</p>","2","","6","new_stimuli/mp3/melody_1_^3_v1_^5_v3_v2_^3_.mp3"
"","538.3649999275804","html-button-response","182","1143885","0.0-19.0-7.1","4983","","<p>Which tone was played seventh after the cadence?</p>","4","","7","new_stimuli/mp3/melody_1_^3_v1_^5_v3_v2_^3_.mp3"
"","null","audio-keyboard-response","183","1155563","0.0-19.0-0.2","4983","","new_stimuli/mp3/melody_^4_v6-_v5-_^6-_^4_v2-_2-_.mp3","","null","",""
"","5485.325000016019","html-button-response","184","1161050","0.0-19.0-1.2","4983","","<p>Which tone was played first after the cadence?</p>","5","","1","new_stimuli/mp3/melody_^4_v6-_v5-_^6-_^4_v2-_2-_.mp3"
"","5776.120000053197","html-button-response","185","1166828","0.0-19.0-2.2","4983","","<p>Which tone was played second after the cadence?</p>","8","","2","new_stimuli/mp3/melody_^4_v6-_v5-_^6-_^4_v2-_2-_.mp3"
"","1378.5300001036376","html-button-response","186","1168209","0.0-19.0-3.2","4983","","<p>Which tone was played third after the cadence?</p>","6","","3","new_stimuli/mp3/melody_^4_v6-_v5-_^6-_^4_v2-_2-_.mp3"
"","1163.8449998572469","html-button-response","187","1169374","0.0-19.0-4.2","4983","","<p>Which tone was played fourth after the cadence?</p>","8","","4","new_stimuli/mp3/melody_^4_v6-_v5-_^6-_^4_v2-_2-_.mp3"
"","1462.2250001411885","html-button-response","188","1170838","0.0-19.0-5.2","4983","","<p>Which tone was played fifth after the cadence?</p>","5","","5","new_stimuli/mp3/melody_^4_v6-_v5-_^6-_^4_v2-_2-_.mp3"
"","12604.945000028238","html-button-response","189","1183444","0.0-19.0-6.2","4983","","<p>Which tone was played sixth after the cadence?</p>","1","","6","new_stimuli/mp3/melody_^4_v6-_v5-_^6-_^4_v2-_2-_.mp3"
"","507.6099999714643","html-button-response","190","1183954","0.0-19.0-7.2","4983","","<p>Which tone was played seventh after the cadence?</p>","1","","7","new_stimuli/mp3/melody_^4_v6-_v5-_^6-_^4_v2-_2-_.mp3"
"","null","audio-keyboard-response","191","1195606","0.0-19.0-0.3","4983","","new_stimuli/mp3/melody_^6_v5+_v4_^5+_v3_v1_v7-_.mp3","","null","",""
"","3008.864999981597","html-button-response","192","1198617","0.0-19.0-1.3","4983","","<p>Which tone was played first after the cadence?</p>","9","","1","new_stimuli/mp3/melody_^6_v5+_v4_^5+_v3_v1_v7-_.mp3"
"","4923.524999991059","html-button-response","193","1203542","0.0-19.0-2.3","4983","","<p>Which tone was played second after the cadence?</p>","8","","2","new_stimuli/mp3/melody_^6_v5+_v4_^5+_v3_v1_v7-_.mp3"
"","2203.0249999370426","html-button-response","194","1205748","0.0-19.0-3.3","4983","","<p>Which tone was played third after the cadence?</p>","5","","3","new_stimuli/mp3/melody_^6_v5+_v4_^5+_v3_v1_v7-_.mp3"
"","2756.515000015497","html-button-response","195","1208507","0.0-19.0-4.3","4983","","<p>Which tone was played fourth after the cadence?</p>","8","","4","new_stimuli/mp3/melody_^6_v5+_v4_^5+_v3_v1_v7-_.mp3"
"","2272.794999880716","html-button-response","196","1210782","0.0-19.0-5.3","4983","","<p>Which tone was played fifth after the cadence?</p>","4","","5","new_stimuli/mp3/melody_^6_v5+_v4_^5+_v3_v1_v7-_.mp3"
"","610.0950001273304","html-button-response","197","1211393","0.0-19.0-6.3","4983","","<p>Which tone was played sixth after the cadence?</p>","0","","6","new_stimuli/mp3/melody_^6_v5+_v4_^5+_v3_v1_v7-_.mp3"
"","312.7349999267608","html-button-response","198","1211707","0.0-19.0-7.3","4983","","<p>Which tone was played seventh after the cadence?</p>","0","","7","new_stimuli/mp3/melody_^6_v5+_v4_^5+_v3_v1_v7-_.mp3"
"","null","audio-keyboard-response","199","1223411","0.0-19.0-0.4","4983","","new_stimuli/mp3/melody_v1_^2_v1_v7_^1_^3_v2_.mp3","","null","",""
"","1578.5150001756847","html-button-response","200","1224991","0.0-19.0-1.4","4983","","<p>Which tone was played first after the cadence?</p>","0","","1","new_stimuli/mp3/melody_v1_^2_v1_v7_^1_^3_v2_.mp3"
"","879.9950000829995","html-button-response","201","1225873","0.0-19.0-2.4","4983","","<p>Which tone was played second after the cadence?</p>","2","","2","new_stimuli/mp3/melody_v1_^2_v1_v7_^1_^3_v2_.mp3"
"","727.6299998629838","html-button-response","202","1226602","0.0-19.0-3.4","4983","","<p>Which tone was played third after the cadence?</p>","0","","3","new_stimuli/mp3/melody_v1_^2_v1_v7_^1_^3_v2_.mp3"
"","1308.309999993071","html-button-response","203","1227912","0.0-19.0-4.4","4983","","<p>Which tone was played fourth after the cadence?</p>","11","","4","new_stimuli/mp3/melody_v1_^2_v1_v7_^1_^3_v2_.mp3"
"","1058.0400000326335","html-button-response","204","1228973","0.0-19.0-5.4","4983","","<p>Which tone was played fifth after the cadence?</p>","0","","5","new_stimuli/mp3/melody_v1_^2_v1_v7_^1_^3_v2_.mp3"
"","1569.8400000110269","html-button-response","205","1230544","0.0-19.0-6.4","4983","","<p>Which tone was played sixth after the cadence?</p>","4","","6","new_stimuli/mp3/melody_v1_^2_v1_v7_^1_^3_v2_.mp3"
"","586.5199998952448","html-button-response","206","1231133","0.0-19.0-7.4","4983","","<p>Which tone was played seventh after the cadence?</p>","2","","7","new_stimuli/mp3/melody_v1_^2_v1_v7_^1_^3_v2_.mp3"
"","null","audio-keyboard-response","207","1242834","0.0-19.0-0.5","4983","","new_stimuli/mp3/melody_^4_^5_^6_v5_v4_v3_v2_.mp3","","null","",""
"","1446.5599998366088","html-button-response","208","1244282","0.0-19.0-1.5","4983","","<p>Which tone was played first after the cadence?</p>","5","","1","new_stimuli/mp3/melody_^4_^5_^6_v5_v4_v3_v2_.mp3"
"","881.3000000081956","html-button-response","209","1245165","0.0-19.0-2.5","4983","","<p>Which tone was played second after the cadence?</p>","7","","2","new_stimuli/mp3/melody_^4_^5_^6_v5_v4_v3_v2_.mp3"
"","790.2550001163036","html-button-response","210","1245957","0.0-19.0-3.5","4983","","<p>Which tone was played third after the cadence?</p>","9","","3","new_stimuli/mp3/melody_^4_^5_^6_v5_v4_v3_v2_.mp3"
"","671.9249999150634","html-button-response","211","1246631","0.0-19.0-4.5","4983","","<p>Which tone was played fourth after the cadence?</p>","7","","4","new_stimuli/mp3/melody_^4_^5_^6_v5_v4_v3_v2_.mp3"
"","674.3299998342991","html-button-response","212","1247307","0.0-19.0-5.5","4983","","<p>Which tone was played fifth after the cadence?</p>","5","","5","new_stimuli/mp3/melody_^4_^5_^6_v5_v4_v3_v2_.mp3"
"","844.9750000145286","html-button-response","213","1248153","0.0-19.0-6.5","4983","","<p>Which tone was played sixth after the cadence?</p>","4","","6","new_stimuli/mp3/melody_^4_^5_^6_v5_v4_v3_v2_.mp3"
"","633.8799998629838","html-button-response","214","1248789","0.0-19.0-7.5","4983","","<p>Which tone was played seventh after the cadence?</p>","2","","7","new_stimuli/mp3/melody_^4_^5_^6_v5_v4_v3_v2_.mp3"
"","null","audio-keyboard-response","215","1260364","0.0-19.0-0.6","4983","","new_stimuli/mp3/melody_^5_^6_v5_v4_v3_v2_v1_buffer.mp3","","null","",""
"","1149.860000004992","html-button-response","216","1261517","0.0-19.0-1.6","4983","","<p>Which tone was played first after the cadence?</p>","7","","1","new_stimuli/mp3/melody_^5_^6_v5_v4_v3_v2_v1_buffer.mp3"
"","665.8600000664592","html-button-response","217","1262184","0.0-19.0-2.6","4983","","<p>Which tone was played second after the cadence?</p>","9","","2","new_stimuli/mp3/melody_^5_^6_v5_v4_v3_v2_v1_buffer.mp3"
"","682.814999949187","html-button-response","218","1262869","0.0-19.0-3.6","4983","","<p>Which tone was played third after the cadence?</p>","7","","3","new_stimuli/mp3/melody_^5_^6_v5_v4_v3_v2_v1_buffer.mp3"
"","599.8499998822808","html-button-response","219","1263470","0.0-19.0-4.6","4983","","<p>Which tone was played fourth after the cadence?</p>","5","","4","new_stimuli/mp3/melody_^5_^6_v5_v4_v3_v2_v1_buffer.mp3"
"","632.4199999216944","html-button-response","220","1264105","0.0-19.0-5.6","4983","","<p>Which tone was played fifth after the cadence?</p>","4","","5","new_stimuli/mp3/melody_^5_^6_v5_v4_v3_v2_v1_buffer.mp3"
"","539.7799999918789","html-button-response","221","1264646","0.0-19.0-6.6","4983","","<p>Which tone was played sixth after the cadence?</p>","2","","6","new_stimuli/mp3/melody_^5_^6_v5_v4_v3_v2_v1_buffer.mp3"
"","484.3199998140335","html-button-response","222","1265132","0.0-19.0-7.6","4983","","<p>Which tone was played seventh after the cadence?</p>","0","","7","new_stimuli/mp3/melody_^5_^6_v5_v4_v3_v2_v1_buffer.mp3"
"[{""page_index"":0,""viewing_time"":20755.899999989197},{""page_index"":1,""viewing_time"":887.7649998757988},{""page_index"":2,""viewing_time"":2533.915000036359}]","24177.875000052154","instructions","223","1289310","0.0-20.0","4983","","","","","",""
"","null","audio-keyboard-response","224","1302264","0.0-21.0-0.0","4983","","new_stimuli/mp3/melody_^5_^6_v5_v4_v3_v2_v1_^2_^3_buffer.mp3","","null","",""
"","3409.6349999308586","html-button-response","225","1305676","0.0-21.0-1.0","4983","","<p>Which tone was played first after the cadence?</p>","7","","1","new_stimuli/mp3/melody_^5_^6_v5_v4_v3_v2_v1_^2_^3_buffer.mp3"
"","617.9700000211596","html-button-response","226","1306296","0.0-21.0-2.0","4983","","<p>Which tone was played second after the cadence?</p>","9","","2","new_stimuli/mp3/melody_^5_^6_v5_v4_v3_v2_v1_^2_^3_buffer.mp3"
"","572.2300000488758","html-button-response","227","1306870","0.0-21.0-3.0","4983","","<p>Which tone was played third after the cadence?</p>","7","","3","new_stimuli/mp3/melody_^5_^6_v5_v4_v3_v2_v1_^2_^3_buffer.mp3"
"","619.7699999902397","html-button-response","228","1307491","0.0-21.0-4.0","4983","","<p>Which tone was played fourth after the cadence?</p>","5","","4","new_stimuli/mp3/melody_^5_^6_v5_v4_v3_v2_v1_^2_^3_buffer.mp3"
"","616.6049998719245","html-button-response","229","1308110","0.0-21.0-5.0","4983","","<p>Which tone was played fifth after the cadence?</p>","4","","5","new_stimuli/mp3/melody_^5_^6_v5_v4_v3_v2_v1_^2_^3_buffer.mp3"
"","760.3549999184906","html-button-response","230","1308872","0.0-21.0-6.0","4983","","<p>Which tone was played sixth after the cadence?</p>","2","","6","new_stimuli/mp3/melody_^5_^6_v5_v4_v3_v2_v1_^2_^3_buffer.mp3"
"","650.4649999551475","html-button-response","231","1309523","0.0-21.0-7.0","4983","","<p>Which tone was played seventh after the cadence?</p>","0","","7","new_stimuli/mp3/melody_^5_^6_v5_v4_v3_v2_v1_^2_^3_buffer.mp3"
"","546.9949999824166","html-button-response","232","1310072","0.0-21.0-8.0","4983","","<p>Which tone was played eight after the cadence?</p>","2","","8","new_stimuli/mp3/melody_^5_^6_v5_v4_v3_v2_v1_^2_^3_buffer.mp3"
"","508.0049999523908","html-button-response","233","1310582","0.0-21.0-9.0","4983","","<p>Which tone was played nineth after the cadence?</p>","4","","9","new_stimuli/mp3/melody_^5_^6_v5_v4_v3_v2_v1_^2_^3_buffer.mp3"
"","null","audio-keyboard-response","234","1323225","0.0-21.0-0.1","4983","","new_stimuli/mp3/melody_v7_v6_v5_^6_v5_v4_^5_^6_v5_.mp3","","null","",""
"","8895.625000121072","html-button-response","235","1332123","0.0-21.0-1.1","4983","","<p>Which tone was played first after the cadence?</p>","11","","1","new_stimuli/mp3/melody_v7_v6_v5_^6_v5_v4_^5_^6_v5_.mp3"
"","669.7200001217425","html-button-response","236","1332795","0.0-21.0-2.1","4983","","<p>Which tone was played second after the cadence?</p>","9","","2","new_stimuli/mp3/melody_v7_v6_v5_^6_v5_v4_^5_^6_v5_.mp3"
"","962.474999949336","html-button-response","237","1333759","0.0-21.0-3.1","4983","","<p>Which tone was played third after the cadence?</p>","7","","3","new_stimuli/mp3/melody_v7_v6_v5_^6_v5_v4_^5_^6_v5_.mp3"
"","1626.3099999632686","html-button-response","238","1335388","0.0-21.0-4.1","4983","","<p>Which tone was played fourth after the cadence?</p>","5","","4","new_stimuli/mp3/melody_v7_v6_v5_^6_v5_v4_^5_^6_v5_.mp3"
"","842.7949999459088","html-button-response","239","1336232","0.0-21.0-5.1","4983","","<p>Which tone was played fifth after the cadence?</p>","7","","5","new_stimuli/mp3/melody_v7_v6_v5_^6_v5_v4_^5_^6_v5_.mp3"
"","828.5399999003857","html-button-response","240","1337063","0.0-21.0-6.1","4983","","<p>Which tone was played sixth after the cadence?</p>","9","","6","new_stimuli/mp3/melody_v7_v6_v5_^6_v5_v4_^5_^6_v5_.mp3"
"","596.4049999602139","html-button-response","241","1337662","0.0-21.0-7.1","4983","","<p>Which tone was played seventh after the cadence?</p>","7","","7","new_stimuli/mp3/melody_v7_v6_v5_^6_v5_v4_^5_^6_v5_.mp3"
"","527.8300000354648","html-button-response","242","1338192","0.0-21.0-8.1","4983","","<p>Which tone was played eight after the cadence?</p>","5","","8","new_stimuli/mp3/melody_v7_v6_v5_^6_v5_v4_^5_^6_v5_.mp3"
"","523.1449999846518","html-button-response","243","1338717","0.0-21.0-9.1","4983","","<p>Which tone was played nineth after the cadence?</p>","7","","9","new_stimuli/mp3/melody_v7_v6_v5_^6_v5_v4_^5_^6_v5_.mp3"
"","null","audio-keyboard-response","244","1351408","0.0-21.0-0.2","4983","","new_stimuli/mp3/melody_^2_^3_^4_^5_^6_v5_v4_v3_v2_buffer.mp3","","null","",""
"","2530.964999925345","html-button-response","245","1353940","0.0-21.0-1.2","4983","","<p>Which tone was played first after the cadence?</p>","2","","1","new_stimuli/mp3/melody_^2_^3_^4_^5_^6_v5_v4_v3_v2_buffer.mp3"
"","2204.484999878332","html-button-response","246","1356146","0.0-21.0-2.2","4983","","<p>Which tone was played second after the cadence?</p>","4","","2","new_stimuli/mp3/melody_^2_^3_^4_^5_^6_v5_v4_v3_v2_buffer.mp3"
"","1090.3950000647455","html-button-response","247","1357238","0.0-21.0-3.2","4983","","<p>Which tone was played third after the cadence?</p>","5","","3","new_stimuli/mp3/melody_^2_^3_^4_^5_^6_v5_v4_v3_v2_buffer.mp3"
"","772.154999896884","html-button-response","248","1358012","0.0-21.0-4.2","4983","","<p>Which tone was played fourth after the cadence?</p>","7","","4","new_stimuli/mp3/melody_^2_^3_^4_^5_^6_v5_v4_v3_v2_buffer.mp3"
"","706.3750000670552","html-button-response","249","1358720","0.0-21.0-5.2","4983","","<p>Which tone was played fifth after the cadence?</p>","9","","5","new_stimuli/mp3/melody_^2_^3_^4_^5_^6_v5_v4_v3_v2_buffer.mp3"
"","648.1350001413375","html-button-response","250","1359370","0.0-21.0-6.2","4983","","<p>Which tone was played sixth after the cadence?</p>","7","","6","new_stimuli/mp3/melody_^2_^3_^4_^5_^6_v5_v4_v3_v2_buffer.mp3"
"","656.6599998623133","html-button-response","251","1360029","0.0-21.0-7.2","4983","","<p>Which tone was played seventh after the cadence?</p>","5","","7","new_stimuli/mp3/melody_^2_^3_^4_^5_^6_v5_v4_v3_v2_buffer.mp3"
"","523.5599998850375","html-button-response","252","1360554","0.0-21.0-8.2","4983","","<p>Which tone was played eight after the cadence?</p>","4","","8","new_stimuli/mp3/melody_^2_^3_^4_^5_^6_v5_v4_v3_v2_buffer.mp3"
"","1474.3649999145418","html-button-response","253","1362030","0.0-21.0-9.2","4983","","<p>Which tone was played nineth after the cadence?</p>","2","","9","new_stimuli/mp3/melody_^2_^3_^4_^5_^6_v5_v4_v3_v2_buffer.mp3"
"","null","audio-keyboard-response","254","1374674","0.0-21.0-0.3","4983","","new_stimuli/mp3/melody_^3_^4_v2_v7_^1_^2_^3_3_^4_.mp3","","null","",""
"","1832.2250000201166","html-button-response","255","1376508","0.0-21.0-1.3","4983","","<p>Which tone was played first after the cadence?</p>","4","","1","new_stimuli/mp3/melody_^3_^4_v2_v7_^1_^2_^3_3_^4_.mp3"
"","1525.8850001264364","html-button-response","256","1378036","0.0-21.0-2.3","4983","","<p>Which tone was played second after the cadence?</p>","5","","2","new_stimuli/mp3/melody_^3_^4_v2_v7_^1_^2_^3_3_^4_.mp3"
"","1617.7099999040365","html-button-response","257","1379655","0.0-21.0-3.3","4983","","<p>Which tone was played third after the cadence?</p>","2","","3","new_stimuli/mp3/melody_^3_^4_v2_v7_^1_^2_^3_3_^4_.mp3"
"","1108.5149999707937","html-button-response","258","1380765","0.0-21.0-4.3","4983","","<p>Which tone was played fourth after the cadence?</p>","11","","4","new_stimuli/mp3/melody_^3_^4_v2_v7_^1_^2_^3_3_^4_.mp3"
"","6941.529999952763","html-button-response","259","1387709","0.0-21.0-5.3","4983","","<p>Which tone was played fifth after the cadence?</p>","0","","5","new_stimuli/mp3/melody_^3_^4_v2_v7_^1_^2_^3_3_^4_.mp3"
"","1241.4750000461936","html-button-response","260","1388953","0.0-21.0-6.3","4983","","<p>Which tone was played sixth after the cadence?</p>","2","","6","new_stimuli/mp3/melody_^3_^4_v2_v7_^1_^2_^3_3_^4_.mp3"
"","928.3650000579655","html-button-response","261","1389883","0.0-21.0-7.3","4983","","<p>Which tone was played seventh after the cadence?</p>","4","","7","new_stimuli/mp3/melody_^3_^4_v2_v7_^1_^2_^3_3_^4_.mp3"
"","881.9099999964237","html-button-response","262","1390767","0.0-21.0-8.3","4983","","<p>Which tone was played eight after the cadence?</p>","4","","8","new_stimuli/mp3/melody_^3_^4_v2_v7_^1_^2_^3_3_^4_.mp3"
"","592.3550000879914","html-button-response","263","1391361","0.0-21.0-9.3","4983","","<p>Which tone was played nineth after the cadence?</p>","5","","9","new_stimuli/mp3/melody_^3_^4_v2_v7_^1_^2_^3_3_^4_.mp3"
"","null","audio-keyboard-response","264","1404290","0.0-21.0-0.4","4983","","new_stimuli/mp3/melody_^2_^4_v3_v2_v1_v3_v2+_^3_^5+_.mp3","","null","",""
"","1624.7499999590218","html-button-response","265","1405916","0.0-21.0-1.4","4983","","<p>Which tone was played first after the cadence?</p>","2","","1","new_stimuli/mp3/melody_^2_^4_v3_v2_v1_v3_v2+_^3_^5+_.mp3"
"","944.7500000242144","html-button-response","266","1406862","0.0-21.0-2.4","4983","","<p>Which tone was played second after the cadence?</p>","5","","2","new_stimuli/mp3/melody_^2_^4_v3_v2_v1_v3_v2+_^3_^5+_.mp3"
"","2020.394999999553","html-button-response","267","1408884","0.0-21.0-3.4","4983","","<p>Which tone was played third after the cadence?</p>","4","","3","new_stimuli/mp3/melody_^2_^4_v3_v2_v1_v3_v2+_^3_^5+_.mp3"
"","1094.8699999134988","html-button-response","268","1409981","0.0-21.0-4.4","4983","","<p>Which tone was played fourth after the cadence?</p>","2","","4","new_stimuli/mp3/melody_^2_^4_v3_v2_v1_v3_v2+_^3_^5+_.mp3"
"","11697.565000038594","html-button-response","269","1421680","0.0-21.0-5.4","4983","","<p>Which tone was played fifth after the cadence?</p>","1","","5","new_stimuli/mp3/melody_^2_^4_v3_v2_v1_v3_v2+_^3_^5+_.mp3"
"","1576.4850000850856","html-button-response","270","1423259","0.0-21.0-6.4","4983","","<p>Which tone was played sixth after the cadence?</p>","4","","6","new_stimuli/mp3/melody_^2_^4_v3_v2_v1_v3_v2+_^3_^5+_.mp3"
"","475.9100000374019","html-button-response","271","1423736","0.0-21.0-7.4","4983","","<p>Which tone was played seventh after the cadence?</p>","3","","7","new_stimuli/mp3/melody_^2_^4_v3_v2_v1_v3_v2+_^3_^5+_.mp3"
"","546.0550000425428","html-button-response","272","1424284","0.0-21.0-8.4","4983","","<p>Which tone was played eight after the cadence?</p>","4","","8","new_stimuli/mp3/melody_^2_^4_v3_v2_v1_v3_v2+_^3_^5+_.mp3"
"","2110.374999931082","html-button-response","273","1426396","0.0-21.0-9.4","4983","","<p>Which tone was played nineth after the cadence?</p>","8","","9","new_stimuli/mp3/melody_^2_^4_v3_v2_v1_v3_v2+_^3_^5+_.mp3"
"","null","audio-keyboard-response","274","1439038","0.0-21.0-0.5","4983","","new_stimuli/mp3/melody_v5_v4_v6+_^7_^3+_v3_v2_v5_^4_.mp3","","null","",""
"","3391.3499999325722","html-button-response","275","1442431","0.0-21.0-1.5","4983","","<p>Which tone was played first after the cadence?</p>","7","","1","new_stimuli/mp3/melody_v5_v4_v6+_^7_^3+_v3_v2_v5_^4_.mp3"
"","687.8450000658631","html-button-response","276","1443121","0.0-21.0-2.5","4983","","<p>Which tone was played second after the cadence?</p>","5","","2","new_stimuli/mp3/melody_v5_v4_v6+_^7_^3+_v3_v2_v5_^4_.mp3"
"","2528.64500018768","html-button-response","277","1445651","0.0-21.0-3.5","4983","","<p>Which tone was played third after the cadence?</p>","9","","3","new_stimuli/mp3/melody_v5_v4_v6+_^7_^3+_v3_v2_v5_^4_.mp3"
"","834.3499999027699","html-button-response","278","1446487","0.0-21.0-4.5","4983","","<p>Which tone was played fourth after the cadence?</p>","11","","4","new_stimuli/mp3/melody_v5_v4_v6+_^7_^3+_v3_v2_v5_^4_.mp3"
"","1988.5700000450015","html-button-response","279","1448477","0.0-21.0-5.5","4983","","<p>Which tone was played fifth after the cadence?</p>","4","","5","new_stimuli/mp3/melody_v5_v4_v6+_^7_^3+_v3_v2_v5_^4_.mp3"
"","1634.2949999962002","html-button-response","280","1450113","0.0-21.0-6.5","4983","","<p>Which tone was played sixth after the cadence?</p>","2","","6","new_stimuli/mp3/melody_v5_v4_v6+_^7_^3+_v3_v2_v5_^4_.mp3"
"","1510.285000083968","html-button-response","281","1451625","0.0-21.0-7.5","4983","","<p>Which tone was played seventh after the cadence?</p>","7","","7","new_stimuli/mp3/melody_v5_v4_v6+_^7_^3+_v3_v2_v5_^4_.mp3"
"","2588.444999884814","html-button-response","282","1454215","0.0-21.0-8.5","4983","","<p>Which tone was played eight after the cadence?</p>","9","","8","new_stimuli/mp3/melody_v5_v4_v6+_^7_^3+_v3_v2_v5_^4_.mp3"
"","2856.7150000017136","html-button-response","283","1457073","0.0-21.0-9.5","4983","","<p>Which tone was played nineth after the cadence?</p>","4","","9","new_stimuli/mp3/melody_v5_v4_v6+_^7_^3+_v3_v2_v5_^4_.mp3"
"","null","audio-keyboard-response","284","1469641","0.0-21.0-0.6","4983","","new_stimuli/mp3/melody_^3_^4_^5 _^6_v5_v4_v3_v2_v1_.mp3","","null","",""
"","1187.364999903366","html-button-response","285","1470830","0.0-21.0-1.6","4983","","<p>Which tone was played first after the cadence?</p>","4","","1","new_stimuli/mp3/melody_^3_^4_^5 _^6_v5_v4_v3_v2_v1_.mp3"
"","737.3849998693913","html-button-response","286","1471570","0.0-21.0-2.6","4983","","<p>Which tone was played second after the cadence?</p>","5","","2","new_stimuli/mp3/melody_^3_^4_^5 _^6_v5_v4_v3_v2_v1_.mp3"
"","726.5399999450892","html-button-response","287","1472299","0.0-21.0-3.6","4983","","<p>Which tone was played third after the cadence?</p>","7","","3","new_stimuli/mp3/melody_^3_^4_^5 _^6_v5_v4_v3_v2_v1_.mp3"
"","1007.9499999992549","html-button-response","288","1473308","0.0-21.0-4.6","4983","","<p>Which tone was played fourth after the cadence?</p>","9","","4","new_stimuli/mp3/melody_^3_^4_^5 _^6_v5_v4_v3_v2_v1_.mp3"
"","564.5250000525266","html-button-response","289","1473875","0.0-21.0-5.6","4983","","<p>Which tone was played fifth after the cadence?</p>","7","","5","new_stimuli/mp3/melody_^3_^4_^5 _^6_v5_v4_v3_v2_v1_.mp3"
"","718.7200000043958","html-button-response","290","1474595","0.0-21.0-6.6","4983","","<p>Which tone was played sixth after the cadence?</p>","5","","6","new_stimuli/mp3/melody_^3_^4_^5 _^6_v5_v4_v3_v2_v1_.mp3"
"","639.3799998331815","html-button-response","291","1475236","0.0-21.0-7.6","4983","","<p>Which tone was played seventh after the cadence?</p>","4","","7","new_stimuli/mp3/melody_^3_^4_^5 _^6_v5_v4_v3_v2_v1_.mp3"
"","532.6650000642985","html-button-response","292","1475771","0.0-21.0-8.6","4983","","<p>Which tone was played eight after the cadence?</p>","2","","8","new_stimuli/mp3/melody_^3_^4_^5 _^6_v5_v4_v3_v2_v1_.mp3"
"","563.740000128746","html-button-response","293","1476336","0.0-21.0-9.6","4983","","<p>Which tone was played nineth after the cadence?</p>","0","","9","new_stimuli/mp3/melody_^3_^4_^5 _^6_v5_v4_v3_v2_v1_.mp3"
"","34239.74500014447","survey-text","294","1510576","0.0-22.0","4983","{""Q0"":""Trying to memorize how the tune sounded, then remembering the absolute pitches and transferring them to solfege in my head""}","","","","",""
"","38216.40499983914","survey-text","295","1548793","0.0-23.0","4983","{""Q0"":""I wonder if the results would be different if the pitches were color-coded. It feels really easy to accidentally click \""mi\"" when you mean \""me\"" because they look so similar.""}","","","","",""
"","29743.13999991864","survey-text","296","1578537","0.0-24.0","4983","{""Q0"":""I tried writing down the absolute pitches of a couple tricky ones, but I couldn't write quickly enough to keep up with the tune so I gave up.""}","","","","",""
"","4553.115000016987","survey-text","297","1583091","0.0-25.0","4983","{""Q0"":""Computer speakers""}","","","","",""
"","3066.7699999175966","survey-text","298","1586159","0.0-26.0","4983","{""Q0"":""Female""}","","","","",""
"","10004.979999968782","survey-text","299","1596164","0.0-27.0","4983","{""Q0"":""I think I did the same one 3 years ago but not sure?""}","","","","",""
"[{""page_index"":0,""viewing_time"":4972.784999990836}]","4973.134999861941","instructions","300","1601138","0.0-28.0","4983","","","","","",""
