"view_history","rt","trial_type","trial_index","time_elapsed","internal_node_id","subject","responses","stimulus","button_pressed","key_press","response_sequence","melody"
"[{""page_index"":0,""viewing_time"":2155.165000000012},{""page_index"":1,""viewing_time"":1751.539999999979},{""page_index"":2,""viewing_time"":1519.7650000000067}]","5427.844999999994","instructions","0","5441","0.0-0.0","50152","","","","","",""
"","2899.110000000008","survey-text","1","8345","0.0-1.0","50152","{""Q0"":""20""}","","","","",""
"","27708.370000000003","survey-text","2","36055","0.0-2.0","50152","{""Q0"":""Bachelor's""}","","","","",""
"","34700.78000000001","survey-text","3","70759","0.0-3.0","50152","{""Q0"":""moveable-do""}","","","","",""
"","4990.934999999983","survey-text","4","75751","0.0-4.0","50152","{""Q0"":""yes""}","","","","",""
"","12246.724999999977","survey-text","5","87999","0.0-5.0","50152","{""Q0"":""45 weeks""}","","","","",""
"","4966.220000000016","survey-text","6","92966","0.0-6.0","50152","{""Q0"":""0""}","","","","",""
"[{""page_index"":0,""viewing_time"":2806.34000000004},{""page_index"":1,""viewing_time"":22071.059999999983},{""page_index"":2,""viewing_time"":2751.890000000014},{""page_index"":1,""viewing_time"":6352.054999999993},{""page_index"":2,""viewing_time"":1599.5699999999779}]","35581.17500000005","instructions","7","128551","0.0-7.0","50152","","","","","",""
"","10110.5","audio-button-response","8","138809","0.0-8.0","50152","","stimuli/long/c-do.mp3","0","","",""
"","19051.065000000002","audio-button-response","9","157863","0.0-9.0","50152","","stimuli/long/a-le.mp3","8","","",""
"[{""page_index"":0,""viewing_time"":17189.834999999963},{""page_index"":1,""viewing_time"":19871.64499999999}]","37062.06499999997","instructions","10","194927","0.0-10.0","50152","","","","","",""
"","10467.539999999979","audio-button-response","11","205400","0.0-11.0-0.0","50152","","stimuli/long/a-fa.mp3","5","","",""
"","8762.49000000002","audio-button-response","12","214166","0.0-11.0-0.1","50152","","stimuli/long/e-mi.mp3","4","","",""
"","8117.895000000048","audio-button-response","13","222286","0.0-11.0-0.2","50152","","stimuli/long/a-sol.mp3","7","","",""
"","13276.429999999993","audio-button-response","14","235566","0.0-11.0-0.3","50152","","stimuli/long/c-ra.mp3","1","","",""
"","12723.964999999967","audio-button-response","15","248293","0.0-11.0-0.4","50152","","stimuli/long/a-la.mp3","8","","",""
"","11933.010000000126","audio-button-response","16","260231","0.0-11.0-0.5","50152","","stimuli/long/e-ra.mp3","3","","",""
"","11292.375000000116","audio-button-response","17","271527","0.0-11.0-0.6","50152","","stimuli/long/e-me.mp3","3","","",""
"","9636.625","audio-button-response","18","281166","0.0-11.0-0.7","50152","","stimuli/long/e-re.mp3","2","","",""
"","8428.834999999905","audio-button-response","19","289598","0.0-11.0-0.8","50152","","stimuli/long/a-ra.mp3","1","","",""
"","11186.65499999997","audio-button-response","20","300790","0.0-11.0-0.9","50152","","stimuli/long/e-fa.mp3","5","","",""
"","6884.84500000003","audio-button-response","21","307677","0.0-11.0-0.10","50152","","stimuli/long/c-sol.mp3","7","","",""
"","10020.920000000042","audio-button-response","22","317701","0.0-11.0-0.11","50152","","stimuli/long/a-do8.mp3","12","","",""
"","8397.000000000058","audio-button-response","23","326104","0.0-11.0-0.12","50152","","stimuli/long/e-ti.mp3","11","","",""
"","13779.040000000037","audio-button-response","24","339886","0.0-11.0-0.13","50152","","stimuli/long/a-le.mp3","8","","",""
"","14213.350000000035","audio-button-response","25","354102","0.0-11.0-0.14","50152","","stimuli/long/a-fi.mp3","6","","",""
"","8508.17499999993","audio-button-response","26","362614","0.0-11.0-0.15","50152","","stimuli/long/c-fi.mp3","6","","",""
"","7908.7949999999255","audio-button-response","27","370526","0.0-11.0-0.16","50152","","stimuli/long/c-do8.mp3","12","","",""
"","8804.640000000072","audio-button-response","28","379333","0.0-11.0-0.17","50152","","stimuli/long/a-me.mp3","3","","",""
"","8148.610000000044","audio-button-response","29","387486","0.0-11.0-0.18","50152","","stimuli/long/a-ti.mp3","11","","",""
"","9988.565000000002","audio-button-response","30","397478","0.0-11.0-0.19","50152","","stimuli/long/e-le.mp3","8","","",""
"","9404.165000000037","audio-button-response","31","406886","0.0-11.0-0.20","50152","","stimuli/long/a-re.mp3","2","","",""
"","7828.630000000005","audio-button-response","32","414717","0.0-11.0-0.21","50152","","stimuli/long/a-mi.mp3","4","","",""
"","8557.709999999963","audio-button-response","33","423276","0.0-11.0-0.22","50152","","stimuli/long/c-le.mp3","8","","",""
"","7462.430000000051","audio-button-response","34","430741","0.0-11.0-0.23","50152","","stimuli/long/e-do8.mp3","12","","",""
"","8100.324999999953","audio-button-response","35","438844","0.0-11.0-0.24","50152","","stimuli/long/c-re.mp3","2","","",""
"","7596.879999999946","audio-button-response","36","446444","0.0-11.0-0.25","50152","","stimuli/long/c-la.mp3","9","","",""
"","10436.529999999912","audio-button-response","37","456886","0.0-11.0-0.26","50152","","stimuli/long/a-te.mp3","10","","",""
"","9588.304999999993","audio-button-response","38","466477","0.0-11.0-0.27","50152","","stimuli/long/c-me.mp3","3","","",""
"","10102.18499999994","audio-button-response","39","476581","0.0-11.0-0.28","50152","","stimuli/long/e-la.mp3","9","","",""
"","7236.214999999909","audio-button-response","40","483821","0.0-11.0-0.29","50152","","stimuli/long/c-do.mp3","0","","",""
"","7720.819999999949","audio-button-response","41","491545","0.0-11.0-0.30","50152","","stimuli/long/e-sol.mp3","7","","",""
"","7336.780000000086","audio-button-response","42","498884","0.0-11.0-0.31","50152","","stimuli/long/c-mi.mp3","4","","",""
"","7588.6700000001","audio-button-response","43","506476","0.0-11.0-0.32","50152","","stimuli/long/c-fa.mp3","5","","",""
"","9964.51000000001","audio-button-response","44","516444","0.0-11.0-0.33","50152","","stimuli/long/e-te.mp3","10","","",""
"","9604.634999999893","audio-button-response","45","526054","0.0-11.0-0.34","50152","","stimuli/long/e-fi.mp3","6","","",""
"","8012.025000000023","audio-button-response","46","534069","0.0-11.0-0.35","50152","","stimuli/long/c-ti.mp3","11","","",""
"","7292.734999999986","audio-button-response","47","541365","0.0-11.0-0.36","50152","","stimuli/long/a-do.mp3","0","","",""
"","7956.895000000019","audio-button-response","48","549324","0.0-11.0-0.37","50152","","stimuli/long/e-do.mp3","0","","",""
"[{""page_index"":0,""viewing_time"":14638.25},{""page_index"":1,""viewing_time"":2119.8300000000745}]","16758.490000000224","instructions","49","566084","0.0-12.0","50152","","","","","",""
"","null","audio-keyboard-response","50","575543","0.0-13.0-0.0","50152","","new_stimuli/mp3/melody_^3_v4+_buffer.mp3","","null","",""
"","1809.9150000000373","html-button-response","51","577356","0.0-13.0-1.0","50152","","<p>Which tone was played first after the cadence?</p><p>Please respond as quickly and as accurately as possible!</p>","4","","1","new_stimuli/mp3/melody_^3_v4+_buffer.mp3"
"","749.0350000000326","html-button-response","52","578107","0.0-13.0-2.0","50152","","<p>Which tone was played second after the cadence?</p><p>Please respond as quickly and as accurately as possible!</p>","6","","2","new_stimuli/mp3/melody_^3_v4+_buffer.mp3"
"","null","audio-keyboard-response","53","587274","0.0-13.0-0.1","50152","","new_stimuli/mp3/melody_v5_v1+_.mp3","","null","",""
"","3336.4400000000605","html-button-response","54","590613","0.0-13.0-1.1","50152","","<p>Which tone was played first after the cadence?</p><p>Please respond as quickly and as accurately as possible!</p>","7","","1","new_stimuli/mp3/melody_v5_v1+_.mp3"
"","1461.8199999999488","html-button-response","55","592077","0.0-13.0-2.1","50152","","<p>Which tone was played second after the cadence?</p><p>Please respond as quickly and as accurately as possible!</p>","1","","2","new_stimuli/mp3/melody_v5_v1+_.mp3"
"","null","audio-keyboard-response","56","601143","0.0-13.0-0.2","50152","","new_stimuli/mp3/melody_v2_v1_.mp3","","null","",""
"","1322.9499999999534","html-button-response","57","602469","0.0-13.0-1.2","50152","","<p>Which tone was played first after the cadence?</p><p>Please respond as quickly and as accurately as possible!</p>","2","","1","new_stimuli/mp3/melody_v2_v1_.mp3"
"","710.065000000177","html-button-response","58","603180","0.0-13.0-2.2","50152","","<p>Which tone was played second after the cadence?</p><p>Please respond as quickly and as accurately as possible!</p>","0","","2","new_stimuli/mp3/melody_v2_v1_.mp3"
"","null","audio-keyboard-response","59","612633","0.0-13.0-0.3","50152","","new_stimuli/mp3/melody_v7_v3_buffer.mp3","","null","",""
"","1399.1149999999907","html-button-response","60","614036","0.0-13.0-1.3","50152","","<p>Which tone was played first after the cadence?</p><p>Please respond as quickly and as accurately as possible!</p>","11","","1","new_stimuli/mp3/melody_v7_v3_buffer.mp3"
"","1373.7250000002095","html-button-response","61","615412","0.0-13.0-2.3","50152","","<p>Which tone was played second after the cadence?</p><p>Please respond as quickly and as accurately as possible!</p>","4","","2","new_stimuli/mp3/melody_v7_v3_buffer.mp3"
"","null","audio-keyboard-response","62","624612","0.0-13.0-0.4","50152","","new_stimuli/mp3/melody_v3_v2_buffer.mp3","","null","",""
"","1820.6900000000605","html-button-response","63","626436","0.0-13.0-1.4","50152","","<p>Which tone was played first after the cadence?</p><p>Please respond as quickly and as accurately as possible!</p>","4","","1","new_stimuli/mp3/melody_v3_v2_buffer.mp3"
"","630.6999999999534","html-button-response","64","627068","0.0-13.0-2.4","50152","","<p>Which tone was played second after the cadence?</p><p>Please respond as quickly and as accurately as possible!</p>","2","","2","new_stimuli/mp3/melody_v3_v2_buffer.mp3"
"","null","audio-keyboard-response","65","636232","0.0-13.0-0.5","50152","","new_stimuli/mp3/melody_^5_^1+_.mp3","","null","",""
"","4176.9349999999395","html-button-response","66","640411","0.0-13.0-1.5","50152","","<p>Which tone was played first after the cadence?</p><p>Please respond as quickly and as accurately as possible!</p>","7","","1","new_stimuli/mp3/melody_^5_^1+_.mp3"
"","2093.5","html-button-response","67","642507","0.0-13.0-2.5","50152","","<p>Which tone was played second after the cadence?</p><p>Please respond as quickly and as accurately as possible!</p>","1","","2","new_stimuli/mp3/melody_^5_^1+_.mp3"
"","null","audio-keyboard-response","68","651943","0.0-13.0-0.6","50152","","new_stimuli/mp3/melody_v4_v3_buffer.mp3","","null","",""
"","988.0400000000373","html-button-response","69","652933","0.0-13.0-1.6","50152","","<p>Which tone was played first after the cadence?</p><p>Please respond as quickly and as accurately as possible!</p>","5","","1","new_stimuli/mp3/melody_v4_v3_buffer.mp3"
"","469.7149999999674","html-button-response","70","653405","0.0-13.0-2.6","50152","","<p>Which tone was played second after the cadence?</p><p>Please respond as quickly and as accurately as possible!</p>","4","","2","new_stimuli/mp3/melody_v4_v3_buffer.mp3"
"","null","audio-keyboard-response","71","662573","0.0-13.0-0.7","50152","","new_stimuli/mp3/melody_^2_v7-_.mp3","","null","",""
"","1732.9899999998743","html-button-response","72","664308","0.0-13.0-1.7","50152","","<p>Which tone was played first after the cadence?</p><p>Please respond as quickly and as accurately as possible!</p>","2","","1","new_stimuli/mp3/melody_^2_v7-_.mp3"
"","765.5899999999674","html-button-response","73","665077","0.0-13.0-2.7","50152","","<p>Which tone was played second after the cadence?</p><p>Please respond as quickly and as accurately as possible!</p>","10","","2","new_stimuli/mp3/melody_^2_v7-_.mp3"
"","null","audio-keyboard-response","74","674383","0.0-13.0-0.8","50152","","new_stimuli/mp3/melody_3_^6_buffer.mp3","","null","",""
"","1723.204999999958","html-button-response","75","676107","0.0-13.0-1.8","50152","","<p>Which tone was played first after the cadence?</p><p>Please respond as quickly and as accurately as possible!</p>","4","","1","new_stimuli/mp3/melody_3_^6_buffer.mp3"
"","590.964999999851","html-button-response","76","676700","0.0-13.0-2.8","50152","","<p>Which tone was played second after the cadence?</p><p>Please respond as quickly and as accurately as possible!</p>","9","","2","new_stimuli/mp3/melody_3_^6_buffer.mp3"
"","null","audio-keyboard-response","77","685712","0.0-13.0-0.9","50152","","new_stimuli/mp3/melody_^1_^2+_.mp3","","null","",""
"","913.359999999986","html-button-response","78","686627","0.0-13.0-1.9","50152","","<p>Which tone was played first after the cadence?</p><p>Please respond as quickly and as accurately as possible!</p>","0","","1","new_stimuli/mp3/melody_^1_^2+_.mp3"
"","699.4749999998603","html-button-response","79","687331","0.0-13.0-2.9","50152","","<p>Which tone was played second after the cadence?</p><p>Please respond as quickly and as accurately as possible!</p>","3","","2","new_stimuli/mp3/melody_^1_^2+_.mp3"
"[{""page_index"":0,""viewing_time"":8278.71000000008},{""page_index"":1,""viewing_time"":2216.015000000014},{""page_index"":2,""viewing_time"":1351.9499999999534}]","11847.185000000056","instructions","80","699179","0.0-14.0","50152","","","","","",""
"","null","audio-keyboard-response","81","708811","0.0-15.0-0.0","50152","","new_stimuli/mp3/melody_6_^1_v5_.mp3","","null","",""
"","2270.4949999999953","html-button-response","82","711083","0.0-15.0-1.0","50152","","<p>Which tone was played first after the cadence?</p><p>Please respond as quickly and as accurately as possible!</p>","9","","1","new_stimuli/mp3/melody_6_^1_v5_.mp3"
"","1605.1350000000093","html-button-response","83","712692","0.0-15.0-2.0","50152","","<p>Which tone was played second after the cadence?</p><p>Please respond as quickly and as accurately as possible!</p>","12","","2","new_stimuli/mp3/melody_6_^1_v5_.mp3"
"","2781.6049999999814","html-button-response","84","715476","0.0-15.0-3.0","50152","","<p>Which tone was played third after the cadence?</p><p>Please respond as quickly and as accurately as possible!</p>","7","","3","new_stimuli/mp3/melody_6_^1_v5_.mp3"
"","null","audio-keyboard-response","85","725042","0.0-15.0-0.1","50152","","new_stimuli/mp3/melody_v1_v7-_^7_.mp3","","null","",""
"","935.5250000001397","html-button-response","86","725980","0.0-15.0-1.1","50152","","<p>Which tone was played first after the cadence?</p><p>Please respond as quickly and as accurately as possible!</p>","12","","1","new_stimuli/mp3/melody_v1_v7-_^7_.mp3"
"","693.7199999999721","html-button-response","87","726676","0.0-15.0-2.1","50152","","<p>Which tone was played second after the cadence?</p><p>Please respond as quickly and as accurately as possible!</p>","10","","2","new_stimuli/mp3/melody_v1_v7-_^7_.mp3"
"","509.5799999999581","html-button-response","88","727188","0.0-15.0-3.1","50152","","<p>Which tone was played third after the cadence?</p><p>Please respond as quickly and as accurately as possible!</p>","11","","3","new_stimuli/mp3/melody_v1_v7-_^7_.mp3"
"","null","audio-keyboard-response","89","736882","0.0-15.0-0.2","50152","","new_stimuli/mp3/melody_v4_v3_v2_buffer.mp3","","null","",""
"","1230.8900000001304","html-button-response","90","738115","0.0-15.0-1.2","50152","","<p>Which tone was played first after the cadence?</p><p>Please respond as quickly and as accurately as possible!</p>","5","","1","new_stimuli/mp3/melody_v4_v3_v2_buffer.mp3"
"","502.08499999984633","html-button-response","91","738619","0.0-15.0-2.2","50152","","<p>Which tone was played second after the cadence?</p><p>Please respond as quickly and as accurately as possible!</p>","4","","2","new_stimuli/mp3/melody_v4_v3_v2_buffer.mp3"
"","525.2750000000233","html-button-response","92","739147","0.0-15.0-3.2","50152","","<p>Which tone was played third after the cadence?</p><p>Please respond as quickly and as accurately as possible!</p>","2","","3","new_stimuli/mp3/melody_v4_v3_v2_buffer.mp3"
"","null","audio-keyboard-response","93","749101","0.0-15.0-0.3","50152","","new_stimuli/mp3/melody_v5_v4_v3_buffer.mp3","","null","",""
"","1243.030000000028","html-button-response","94","750347","0.0-15.0-1.3","50152","","<p>Which tone was played first after the cadence?</p><p>Please respond as quickly and as accurately as possible!</p>","7","","1","new_stimuli/mp3/melody_v5_v4_v3_buffer.mp3"
"","533.8450000002049","html-button-response","95","750883","0.0-15.0-2.3","50152","","<p>Which tone was played second after the cadence?</p><p>Please respond as quickly and as accurately as possible!</p>","5","","2","new_stimuli/mp3/melody_v5_v4_v3_buffer.mp3"
"","445.87000000011176","html-button-response","96","751331","0.0-15.0-3.3","50152","","<p>Which tone was played third after the cadence?</p><p>Please respond as quickly and as accurately as possible!</p>","4","","3","new_stimuli/mp3/melody_v5_v4_v3_buffer.mp3"
"","null","audio-keyboard-response","97","761311","0.0-15.0-0.4","50152","","new_stimuli/mp3/melody_v2_v5_^3_buffer.mp3","","null","",""
"","2080.944999999949","html-button-response","98","763394","0.0-15.0-1.4","50152","","<p>Which tone was played first after the cadence?</p><p>Please respond as quickly and as accurately as possible!</p>","2","","1","new_stimuli/mp3/melody_v2_v5_^3_buffer.mp3"
"","693.9699999999721","html-button-response","99","764090","0.0-15.0-2.4","50152","","<p>Which tone was played second after the cadence?</p><p>Please respond as quickly and as accurately as possible!</p>","7","","2","new_stimuli/mp3/melody_v2_v5_^3_buffer.mp3"
"","877.8649999998743","html-button-response","100","764970","0.0-15.0-3.4","50152","","<p>Which tone was played third after the cadence?</p><p>Please respond as quickly and as accurately as possible!</p>","4","","3","new_stimuli/mp3/melody_v2_v5_^3_buffer.mp3"
"","null","audio-keyboard-response","101","774873","0.0-15.0-0.5","50152","","new_stimuli/mp3/melody_^1_v6_v5+_.mp3","","null","",""
"","1336.0549999999348","html-button-response","102","776212","0.0-15.0-1.5","50152","","<p>Which tone was played first after the cadence?</p><p>Please respond as quickly and as accurately as possible!</p>","12","","1","new_stimuli/mp3/melody_^1_v6_v5+_.mp3"
"","749.1800000000512","html-button-response","103","776964","0.0-15.0-2.5","50152","","<p>Which tone was played second after the cadence?</p><p>Please respond as quickly and as accurately as possible!</p>","9","","2","new_stimuli/mp3/melody_^1_v6_v5+_.mp3"
"","557.7550000001211","html-button-response","104","777523","0.0-15.0-3.5","50152","","<p>Which tone was played third after the cadence?</p><p>Please respond as quickly and as accurately as possible!</p>","8","","3","new_stimuli/mp3/melody_^1_v6_v5+_.mp3"
"","null","audio-keyboard-response","105","787032","0.0-15.0-0.6","50152","","new_stimuli/mp3/melody_1_v1+_^2_.mp3","","null","",""
"","657.3700000001118","html-button-response","106","787691","0.0-15.0-1.6","50152","","<p>Which tone was played first after the cadence?</p><p>Please respond as quickly and as accurately as possible!</p>","0","","1","new_stimuli/mp3/melody_1_v1+_^2_.mp3"
"","485.99499999999534","html-button-response","107","788179","0.0-15.0-2.6","50152","","<p>Which tone was played second after the cadence?</p><p>Please respond as quickly and as accurately as possible!</p>","1","","2","new_stimuli/mp3/melody_1_v1+_^2_.mp3"
"","454.14000000001397","html-button-response","108","788635","0.0-15.0-3.6","50152","","<p>Which tone was played third after the cadence?</p><p>Please respond as quickly and as accurately as possible!</p>","2","","3","new_stimuli/mp3/melody_1_v1+_^2_.mp3"
"","null","audio-keyboard-response","109","798221","0.0-15.0-0.7","50152","","new_stimuli/mp3/melody_v1_v7-_7-_buffer.mp3","","null","",""
"","1450.6350000001257","html-button-response","110","799674","0.0-15.0-1.7","50152","","<p>Which tone was played first after the cadence?</p><p>Please respond as quickly and as accurately as possible!</p>","12","","1","new_stimuli/mp3/melody_v1_v7-_7-_buffer.mp3"
"","470.4200000000419","html-button-response","111","800146","0.0-15.0-2.7","50152","","<p>Which tone was played second after the cadence?</p><p>Please respond as quickly and as accurately as possible!</p>","10","","2","new_stimuli/mp3/melody_v1_v7-_7-_buffer.mp3"
"","390.63500000024214","html-button-response","112","800538","0.0-15.0-3.7","50152","","<p>Which tone was played third after the cadence?</p><p>Please respond as quickly and as accurately as possible!</p>","10","","3","new_stimuli/mp3/melody_v1_v7-_7-_buffer.mp3"
"","null","audio-keyboard-response","113","810100","0.0-15.0-0.8","50152","","new_stimuli/mp3/melody_v3_v2_v1_.mp3","","null","",""
"","1403.8200000000652","html-button-response","114","811506","0.0-15.0-1.8","50152","","<p>Which tone was played first after the cadence?</p><p>Please respond as quickly and as accurately as possible!</p>","4","","1","new_stimuli/mp3/melody_v3_v2_v1_.mp3"
"","1069.8150000000605","html-button-response","115","812577","0.0-15.0-2.8","50152","","<p>Which tone was played second after the cadence?</p><p>Please respond as quickly and as accurately as possible!</p>","2","","2","new_stimuli/mp3/melody_v3_v2_v1_.mp3"
"","566.6300000000047","html-button-response","116","813145","0.0-15.0-3.8","50152","","<p>Which tone was played third after the cadence?</p><p>Please respond as quickly and as accurately as possible!</p>","0","","3","new_stimuli/mp3/melody_v3_v2_v1_.mp3"
"[{""page_index"":0,""viewing_time"":3807.1250000001164},{""page_index"":1,""viewing_time"":2751.904999999795},{""page_index"":2,""viewing_time"":1207.7000000001863}]","7767.229999999981","instructions","117","820913","0.0-16.0","50152","","","","","",""
"","null","audio-keyboard-response","118","831860","0.0-17.0-0.0","50152","","new_stimuli/mp3/melody_^5_^6_v5_v4_v3_buffer.mp3","","null","",""
"","1434.719999999972","html-button-response","119","833298","0.0-17.0-1.0","50152","","<p>Which tone was played first after the cadence?</p><p>Please respond as quickly and as accurately as possible!</p>","7","","1","new_stimuli/mp3/melody_^5_^6_v5_v4_v3_buffer.mp3"
"","629.8050000000512","html-button-response","120","833929","0.0-17.0-2.0","50152","","<p>Which tone was played second after the cadence?</p><p>Please respond as quickly and as accurately as possible!</p>","9","","2","new_stimuli/mp3/melody_^5_^6_v5_v4_v3_buffer.mp3"
"","510.01500000001397","html-button-response","121","834442","0.0-17.0-3.0","50152","","<p>Which tone was played third after the cadence?</p><p>Please respond as quickly and as accurately as possible!</p>","7","","3","new_stimuli/mp3/melody_^5_^6_v5_v4_v3_buffer.mp3"
"","469.99499999999534","html-button-response","122","834915","0.0-17.0-4.0","50152","","<p>Which tone was played fourth after the cadence?</p><p>Please respond as quickly and as accurately as possible!</p>","5","","4","new_stimuli/mp3/melody_^5_^6_v5_v4_v3_buffer.mp3"
"","749.5949999999721","html-button-response","123","835667","0.0-17.0-5.0","50152","","<p>Which tone was played fifth after the cadence?</p><p>Please respond as quickly and as accurately as possible!</p>","4","","5","new_stimuli/mp3/melody_^5_^6_v5_v4_v3_buffer.mp3"
"","null","audio-keyboard-response","124","846381","0.0-17.0-0.1","50152","","new_stimuli/mp3/melody_^6_v5_v4_v3_v2_buffer.mp3","","null","",""
"","1074.9000000000233","html-button-response","125","847459","0.0-17.0-1.1","50152","","<p>Which tone was played first after the cadence?</p><p>Please respond as quickly and as accurately as possible!</p>","9","","1","new_stimuli/mp3/melody_^6_v5_v4_v3_v2_buffer.mp3"
"","493.74499999999534","html-button-response","126","847954","0.0-17.0-2.1","50152","","<p>Which tone was played second after the cadence?</p><p>Please respond as quickly and as accurately as possible!</p>","7","","2","new_stimuli/mp3/melody_^6_v5_v4_v3_v2_buffer.mp3"
"","550.2750000001397","html-button-response","127","848507","0.0-17.0-3.1","50152","","<p>Which tone was played third after the cadence?</p><p>Please respond as quickly and as accurately as possible!</p>","5","","3","new_stimuli/mp3/melody_^6_v5_v4_v3_v2_buffer.mp3"
"","525.4600000000792","html-button-response","128","849034","0.0-17.0-4.1","50152","","<p>Which tone was played fourth after the cadence?</p><p>Please respond as quickly and as accurately as possible!</p>","4","","4","new_stimuli/mp3/melody_^6_v5_v4_v3_v2_buffer.mp3"
"","549.9150000000373","html-button-response","129","849586","0.0-17.0-5.1","50152","","<p>Which tone was played fifth after the cadence?</p><p>Please respond as quickly and as accurately as possible!</p>","2","","5","new_stimuli/mp3/melody_^6_v5_v4_v3_v2_buffer.mp3"
"","null","audio-keyboard-response","130","860530","0.0-17.0-0.2","50152","","new_stimuli/mp3/melody_v5-_v3_3_^4+_v3_.mp3","","null","",""
"","2205.100000000093","html-button-response","131","862738","0.0-17.0-1.2","50152","","<p>Which tone was played first after the cadence?</p><p>Please respond as quickly and as accurately as possible!</p>","6","","1","new_stimuli/mp3/melody_v5-_v3_3_^4+_v3_.mp3"
"","582.0300000000279","html-button-response","132","863322","0.0-17.0-2.2","50152","","<p>Which tone was played second after the cadence?</p><p>Please respond as quickly and as accurately as possible!</p>","4","","2","new_stimuli/mp3/melody_v5-_v3_3_^4+_v3_.mp3"
"","2341.855000000098","html-button-response","133","865666","0.0-17.0-3.2","50152","","<p>Which tone was played third after the cadence?</p><p>Please respond as quickly and as accurately as possible!</p>","4","","3","new_stimuli/mp3/melody_v5-_v3_3_^4+_v3_.mp3"
"","484.7650000001304","html-button-response","134","866154","0.0-17.0-4.2","50152","","<p>Which tone was played fourth after the cadence?</p><p>Please respond as quickly and as accurately as possible!</p>","6","","4","new_stimuli/mp3/melody_v5-_v3_3_^4+_v3_.mp3"
"","597.8250000000698","html-button-response","135","866754","0.0-17.0-5.2","50152","","<p>Which tone was played fifth after the cadence?</p><p>Please respond as quickly and as accurately as possible!</p>","4","","5","new_stimuli/mp3/melody_v5-_v3_3_^4+_v3_.mp3"
"","null","audio-keyboard-response","136","877390","0.0-17.0-0.3","50152","","new_stimuli/mp3/melody_v5_^6+_^7_^1_5_.mp3","","null","",""
"","921.089999999851","html-button-response","137","878313","0.0-17.0-1.3","50152","","<p>Which tone was played first after the cadence?</p><p>Please respond as quickly and as accurately as possible!</p>","7","","1","new_stimuli/mp3/melody_v5_^6+_^7_^1_5_.mp3"
"","517.9699999998556","html-button-response","138","878833","0.0-17.0-2.3","50152","","<p>Which tone was played second after the cadence?</p><p>Please respond as quickly and as accurately as possible!</p>","9","","2","new_stimuli/mp3/melody_v5_^6+_^7_^1_5_.mp3"
"","749.8500000002095","html-button-response","139","879586","0.0-17.0-3.3","50152","","<p>Which tone was played third after the cadence?</p><p>Please respond as quickly and as accurately as possible!</p>","11","","3","new_stimuli/mp3/melody_v5_^6+_^7_^1_5_.mp3"
"","525.395000000135","html-button-response","140","880113","0.0-17.0-4.3","50152","","<p>Which tone was played fourth after the cadence?</p><p>Please respond as quickly and as accurately as possible!</p>","12","","4","new_stimuli/mp3/melody_v5_^6+_^7_^1_5_.mp3"
"","1037.8700000001118","html-button-response","141","881153","0.0-17.0-5.3","50152","","<p>Which tone was played fifth after the cadence?</p><p>Please respond as quickly and as accurately as possible!</p>","7","","5","new_stimuli/mp3/melody_v5_^6+_^7_^1_5_.mp3"
"","null","audio-keyboard-response","142","891790","0.0-17.0-0.4","50152","","new_stimuli/mp3/melody_^6_v4_v3_^4_^5_.mp3","","null","",""
"","1344.4199999999255","html-button-response","143","893137","0.0-17.0-1.4","50152","","<p>Which tone was played first after the cadence?</p><p>Please respond as quickly and as accurately as possible!</p>","9","","1","new_stimuli/mp3/melody_^6_v4_v3_^4_^5_.mp3"
"","1013.8200000000652","html-button-response","144","894153","0.0-17.0-2.4","50152","","<p>Which tone was played second after the cadence?</p><p>Please respond as quickly and as accurately as possible!</p>","5","","2","new_stimuli/mp3/melody_^6_v4_v3_^4_^5_.mp3"
"","614.0350000000326","html-button-response","145","894769","0.0-17.0-3.4","50152","","<p>Which tone was played third after the cadence?</p><p>Please respond as quickly and as accurately as possible!</p>","4","","3","new_stimuli/mp3/melody_^6_v4_v3_^4_^5_.mp3"
"","541.8250000000698","html-button-response","146","895314","0.0-17.0-4.4","50152","","<p>Which tone was played fourth after the cadence?</p><p>Please respond as quickly and as accurately as possible!</p>","5","","4","new_stimuli/mp3/melody_^6_v4_v3_^4_^5_.mp3"
"","526.0399999999208","html-button-response","147","895842","0.0-17.0-5.4","50152","","<p>Which tone was played fifth after the cadence?</p><p>Please respond as quickly and as accurately as possible!</p>","7","","5","new_stimuli/mp3/melody_^6_v4_v3_^4_^5_.mp3"
"","null","audio-keyboard-response","148","906421","0.0-17.0-0.5","50152","","new_stimuli/mp3/melody_v5_v4_v3_v2_v1_.mp3","","null","",""
"","1347.3950000000186","html-button-response","149","907770","0.0-17.0-1.5","50152","","<p>Which tone was played first after the cadence?</p><p>Please respond as quickly and as accurately as possible!</p>","7","","1","new_stimuli/mp3/melody_v5_v4_v3_v2_v1_.mp3"
"","454","html-button-response","150","908226","0.0-17.0-2.5","50152","","<p>Which tone was played second after the cadence?</p><p>Please respond as quickly and as accurately as possible!</p>","5","","2","new_stimuli/mp3/melody_v5_v4_v3_v2_v1_.mp3"
"","517.5799999999581","html-button-response","151","908746","0.0-17.0-3.5","50152","","<p>Which tone was played third after the cadence?</p><p>Please respond as quickly and as accurately as possible!</p>","4","","3","new_stimuli/mp3/melody_v5_v4_v3_v2_v1_.mp3"
"","493.90500000002794","html-button-response","152","909242","0.0-17.0-4.5","50152","","<p>Which tone was played fourth after the cadence?</p><p>Please respond as quickly and as accurately as possible!</p>","2","","4","new_stimuli/mp3/melody_v5_v4_v3_v2_v1_.mp3"
"","534.1399999998976","html-button-response","153","909778","0.0-17.0-5.5","50152","","<p>Which tone was played fifth after the cadence?</p><p>Please respond as quickly and as accurately as possible!</p>","0","","5","new_stimuli/mp3/melody_v5_v4_v3_v2_v1_.mp3"
"","null","audio-keyboard-response","154","920350","0.0-17.0-0.6","50152","","new_stimuli/mp3/melody_v5_v4_v3_v2_v1 _buffer.mp3","","null","",""
"","1144.640000000014","html-button-response","155","921497","0.0-17.0-1.6","50152","","<p>Which tone was played first after the cadence?</p><p>Please respond as quickly and as accurately as possible!</p>","7","","1","new_stimuli/mp3/melody_v5_v4_v3_v2_v1 _buffer.mp3"
"","518.0050000001211","html-button-response","156","922017","0.0-17.0-2.6","50152","","<p>Which tone was played second after the cadence?</p><p>Please respond as quickly and as accurately as possible!</p>","5","","2","new_stimuli/mp3/melody_v5_v4_v3_v2_v1 _buffer.mp3"
"","485.74499999999534","html-button-response","157","922506","0.0-17.0-3.6","50152","","<p>Which tone was played third after the cadence?</p><p>Please respond as quickly and as accurately as possible!</p>","4","","3","new_stimuli/mp3/melody_v5_v4_v3_v2_v1 _buffer.mp3"
"","501.42499999993015","html-button-response","158","923009","0.0-17.0-4.6","50152","","<p>Which tone was played fourth after the cadence?</p><p>Please respond as quickly and as accurately as possible!</p>","2","","4","new_stimuli/mp3/melody_v5_v4_v3_v2_v1 _buffer.mp3"
"","565.5649999998277","html-button-response","159","923577","0.0-17.0-5.6","50152","","<p>Which tone was played fifth after the cadence?</p><p>Please respond as quickly and as accurately as possible!</p>","0","","5","new_stimuli/mp3/melody_v5_v4_v3_v2_v1 _buffer.mp3"
"","null","audio-keyboard-response","160","934149","0.0-17.0-0.7","50152","","new_stimuli/mp3/melody_v2_2_^3_^4_v2_.mp3","","null","",""
"","1448.9800000000978","html-button-response","161","935600","0.0-17.0-1.7","50152","","<p>Which tone was played first after the cadence?</p><p>Please respond as quickly and as accurately as possible!</p>","2","","1","new_stimuli/mp3/melody_v2_2_^3_^4_v2_.mp3"
"","470.44000000006054","html-button-response","162","936073","0.0-17.0-2.7","50152","","<p>Which tone was played second after the cadence?</p><p>Please respond as quickly and as accurately as possible!</p>","2","","2","new_stimuli/mp3/melody_v2_2_^3_^4_v2_.mp3"
"","613.6249999998836","html-button-response","163","936689","0.0-17.0-3.7","50152","","<p>Which tone was played third after the cadence?</p><p>Please respond as quickly and as accurately as possible!</p>","4","","3","new_stimuli/mp3/melody_v2_2_^3_^4_v2_.mp3"
"","837.7999999999302","html-button-response","164","937529","0.0-17.0-4.7","50152","","<p>Which tone was played fourth after the cadence?</p><p>Please respond as quickly and as accurately as possible!</p>","5","","4","new_stimuli/mp3/melody_v2_2_^3_^4_v2_.mp3"
"","645.8750000001164","html-button-response","165","938177","0.0-17.0-5.7","50152","","<p>Which tone was played fifth after the cadence?</p><p>Please respond as quickly and as accurately as possible!</p>","2","","5","new_stimuli/mp3/melody_v2_2_^3_^4_v2_.mp3"
"[{""page_index"":0,""viewing_time"":3438.505000000121},{""page_index"":1,""viewing_time"":1471.9500000000698},{""page_index"":2,""viewing_time"":1511.8649999999907}]","6422.830000000191","instructions","166","944600","0.0-18.0","50152","","","","","",""
"","null","audio-keyboard-response","167","956310","0.0-19.0-0.0","50152","","new_stimuli/mp3/melody_^1_v7_v6_v5_v4_v3_v2_buffer.mp3","","null","",""
"","1137.615000000107","html-button-response","168","957450","0.0-19.0-1.0","50152","","<p>Which tone was played first after the cadence?</p><p>Please respond as quickly and as accurately as possible!</p>","12","","1","new_stimuli/mp3/melody_^1_v7_v6_v5_v4_v3_v2_buffer.mp3"
"","549.4650000000838","html-button-response","169","958002","0.0-19.0-2.0","50152","","<p>Which tone was played second after the cadence?</p><p>Please respond as quickly and as accurately as possible!</p>","11","","2","new_stimuli/mp3/melody_^1_v7_v6_v5_v4_v3_v2_buffer.mp3"
"","661.8699999998789","html-button-response","170","958666","0.0-19.0-3.0","50152","","<p>Which tone was played third after the cadence?</p><p>Please respond as quickly and as accurately as possible!</p>","9","","3","new_stimuli/mp3/melody_^1_v7_v6_v5_v4_v3_v2_buffer.mp3"
"","605.4699999999721","html-button-response","171","959274","0.0-19.0-4.0","50152","","<p>Which tone was played fourth after the cadence?</p><p>Please respond as quickly and as accurately as possible!</p>","7","","4","new_stimuli/mp3/melody_^1_v7_v6_v5_v4_v3_v2_buffer.mp3"
"","645.5700000001816","html-button-response","172","959922","0.0-19.0-5.0","50152","","<p>Which tone was played fifth after the cadence?</p><p>Please respond as quickly and as accurately as possible!</p>","5","","5","new_stimuli/mp3/melody_^1_v7_v6_v5_v4_v3_v2_buffer.mp3"
"","524.2849999999162","html-button-response","173","960449","0.0-19.0-6.0","50152","","<p>Which tone was played sixth after the cadence?</p><p>Please respond as quickly and as accurately as possible!</p>","4","","6","new_stimuli/mp3/melody_^1_v7_v6_v5_v4_v3_v2_buffer.mp3"
"","862.8649999999907","html-button-response","174","961314","0.0-19.0-7.0","50152","","<p>Which tone was played seventh after the cadence?</p><p>Please respond as quickly and as accurately as possible!</p>","2","","7","new_stimuli/mp3/melody_^1_v7_v6_v5_v4_v3_v2_buffer.mp3"
"","null","audio-keyboard-response","175","972890","0.0-19.0-0.1","50152","","new_stimuli/mp3/melody_^5_^6_v5_v4_v3_v2_v1_buffer.mp3","","null","",""
"","916.9050000000279","html-button-response","176","973809","0.0-19.0-1.1","50152","","<p>Which tone was played first after the cadence?</p><p>Please respond as quickly and as accurately as possible!</p>","7","","1","new_stimuli/mp3/melody_^5_^6_v5_v4_v3_v2_v1_buffer.mp3"
"","597.8000000000466","html-button-response","177","974409","0.0-19.0-2.1","50152","","<p>Which tone was played second after the cadence?</p><p>Please respond as quickly and as accurately as possible!</p>","9","","2","new_stimuli/mp3/melody_^5_^6_v5_v4_v3_v2_v1_buffer.mp3"
"","605.4699999999721","html-button-response","178","975017","0.0-19.0-3.1","50152","","<p>Which tone was played third after the cadence?</p><p>Please respond as quickly and as accurately as possible!</p>","7","","3","new_stimuli/mp3/melody_^5_^6_v5_v4_v3_v2_v1_buffer.mp3"
"","511.01000000012573","html-button-response","179","975529","0.0-19.0-4.1","50152","","<p>Which tone was played fourth after the cadence?</p><p>Please respond as quickly and as accurately as possible!</p>","5","","4","new_stimuli/mp3/melody_^5_^6_v5_v4_v3_v2_v1_buffer.mp3"
"","581.6300000000047","html-button-response","180","976113","0.0-19.0-5.1","50152","","<p>Which tone was played fifth after the cadence?</p><p>Please respond as quickly and as accurately as possible!</p>","4","","5","new_stimuli/mp3/melody_^5_^6_v5_v4_v3_v2_v1_buffer.mp3"
"","541.9799999999814","html-button-response","181","976657","0.0-19.0-6.1","50152","","<p>Which tone was played sixth after the cadence?</p><p>Please respond as quickly and as accurately as possible!</p>","2","","6","new_stimuli/mp3/melody_^5_^6_v5_v4_v3_v2_v1_buffer.mp3"
"","478.07500000006985","html-button-response","182","977137","0.0-19.0-7.1","50152","","<p>Which tone was played seventh after the cadence?</p><p>Please respond as quickly and as accurately as possible!</p>","0","","7","new_stimuli/mp3/melody_^5_^6_v5_v4_v3_v2_v1_buffer.mp3"
"","null","audio-keyboard-response","183","988780","0.0-19.0-0.2","50152","","new_stimuli/mp3/melody_^6_v5+_v4_^5+_v3_v1_v7-_.mp3","","null","",""
"","2042.609999999986","html-button-response","184","990824","0.0-19.0-1.2","50152","","<p>Which tone was played first after the cadence?</p><p>Please respond as quickly and as accurately as possible!</p>","9","","1","new_stimuli/mp3/melody_^6_v5+_v4_^5+_v3_v1_v7-_.mp3"
"","550.8199999999488","html-button-response","185","991377","0.0-19.0-2.2","50152","","<p>Which tone was played second after the cadence?</p><p>Please respond as quickly and as accurately as possible!</p>","8","","2","new_stimuli/mp3/melody_^6_v5+_v4_^5+_v3_v1_v7-_.mp3"
"","2445.1149999999907","html-button-response","186","993825","0.0-19.0-3.2","50152","","<p>Which tone was played third after the cadence?</p><p>Please respond as quickly and as accurately as possible!</p>","5","","3","new_stimuli/mp3/melody_^6_v5+_v4_^5+_v3_v1_v7-_.mp3"
"","781.9899999999907","html-button-response","187","994609","0.0-19.0-4.2","50152","","<p>Which tone was played fourth after the cadence?</p><p>Please respond as quickly and as accurately as possible!</p>","8","","4","new_stimuli/mp3/melody_^6_v5+_v4_^5+_v3_v1_v7-_.mp3"
"","2453.8450000000885","html-button-response","188","997065","0.0-19.0-5.2","50152","","<p>Which tone was played fifth after the cadence?</p><p>Please respond as quickly and as accurately as possible!</p>","5","","5","new_stimuli/mp3/melody_^6_v5+_v4_^5+_v3_v1_v7-_.mp3"
"","837.2149999999674","html-button-response","189","997905","0.0-19.0-6.2","50152","","<p>Which tone was played sixth after the cadence?</p><p>Please respond as quickly and as accurately as possible!</p>","3","","6","new_stimuli/mp3/melody_^6_v5+_v4_^5+_v3_v1_v7-_.mp3"
"","6469.4349999999395","html-button-response","190","1004376","0.0-19.0-7.2","50152","","<p>Which tone was played seventh after the cadence?</p><p>Please respond as quickly and as accurately as possible!</p>","10","","7","new_stimuli/mp3/melody_^6_v5+_v4_^5+_v3_v1_v7-_.mp3"
"","null","audio-keyboard-response","191","1016341","0.0-19.0-0.3","50152","","new_stimuli/mp3/melody_1_^3_v1_^5_v3_v2_^3_.mp3","","null","",""
"","1242.824999999837","html-button-response","192","1017586","0.0-19.0-1.3","50152","","<p>Which tone was played first after the cadence?</p><p>Please respond as quickly and as accurately as possible!</p>","0","","1","new_stimuli/mp3/melody_1_^3_v1_^5_v3_v2_^3_.mp3"
"","3077.8400000002002","html-button-response","193","1020666","0.0-19.0-2.3","50152","","<p>Which tone was played second after the cadence?</p><p>Please respond as quickly and as accurately as possible!</p>","4","","2","new_stimuli/mp3/melody_1_^3_v1_^5_v3_v2_^3_.mp3"
"","995.9850000001024","html-button-response","194","1021666","0.0-19.0-3.3","50152","","<p>Which tone was played third after the cadence?</p><p>Please respond as quickly and as accurately as possible!</p>","0","","3","new_stimuli/mp3/melody_1_^3_v1_^5_v3_v2_^3_.mp3"
"","893.9899999999907","html-button-response","195","1022562","0.0-19.0-4.3","50152","","<p>Which tone was played fourth after the cadence?</p><p>Please respond as quickly and as accurately as possible!</p>","7","","4","new_stimuli/mp3/melody_1_^3_v1_^5_v3_v2_^3_.mp3"
"","1045.9100000000326","html-button-response","196","1023610","0.0-19.0-5.3","50152","","<p>Which tone was played fifth after the cadence?</p><p>Please respond as quickly and as accurately as possible!</p>","4","","5","new_stimuli/mp3/melody_1_^3_v1_^5_v3_v2_^3_.mp3"
"","2141.905000000028","html-button-response","197","1025754","0.0-19.0-6.3","50152","","<p>Which tone was played sixth after the cadence?</p><p>Please respond as quickly and as accurately as possible!</p>","2","","6","new_stimuli/mp3/melody_1_^3_v1_^5_v3_v2_^3_.mp3"
"","853.7949999999255","html-button-response","198","1026610","0.0-19.0-7.3","50152","","<p>Which tone was played seventh after the cadence?</p><p>Please respond as quickly and as accurately as possible!</p>","4","","7","new_stimuli/mp3/melody_1_^3_v1_^5_v3_v2_^3_.mp3"
"","null","audio-keyboard-response","199","1038320","0.0-19.0-0.4","50152","","new_stimuli/mp3/melody_v1_^2_v1_v7_^1_^3_v2_.mp3","","null","",""
"","1302.3649999999907","html-button-response","200","1039625","0.0-19.0-1.4","50152","","<p>Which tone was played first after the cadence?</p><p>Please respond as quickly and as accurately as possible!</p>","0","","1","new_stimuli/mp3/melody_v1_^2_v1_v7_^1_^3_v2_.mp3"
"","702.0100000002421","html-button-response","201","1040329","0.0-19.0-2.4","50152","","<p>Which tone was played second after the cadence?</p><p>Please respond as quickly and as accurately as possible!</p>","2","","2","new_stimuli/mp3/melody_v1_^2_v1_v7_^1_^3_v2_.mp3"
"","622.0300000000279","html-button-response","202","1040953","0.0-19.0-3.4","50152","","<p>Which tone was played third after the cadence?</p><p>Please respond as quickly and as accurately as possible!</p>","0","","3","new_stimuli/mp3/melody_v1_^2_v1_v7_^1_^3_v2_.mp3"
"","1126.2150000000838","html-button-response","203","1042082","0.0-19.0-4.4","50152","","<p>Which tone was played fourth after the cadence?</p><p>Please respond as quickly and as accurately as possible!</p>","11","","4","new_stimuli/mp3/melody_v1_^2_v1_v7_^1_^3_v2_.mp3"
"","1020.679999999702","html-button-response","204","1043105","0.0-19.0-5.4","50152","","<p>Which tone was played fifth after the cadence?</p><p>Please respond as quickly and as accurately as possible!</p>","0","","5","new_stimuli/mp3/melody_v1_^2_v1_v7_^1_^3_v2_.mp3"
"","870.1650000000373","html-button-response","205","1043977","0.0-19.0-6.4","50152","","<p>Which tone was played sixth after the cadence?</p><p>Please respond as quickly and as accurately as possible!</p>","4","","6","new_stimuli/mp3/melody_v1_^2_v1_v7_^1_^3_v2_.mp3"
"","1429.9599999999627","html-button-response","206","1045416","0.0-19.0-7.4","50152","","<p>Which tone was played seventh after the cadence?</p><p>Please respond as quickly and as accurately as possible!</p>","2","","7","new_stimuli/mp3/melody_v1_^2_v1_v7_^1_^3_v2_.mp3"
"","null","audio-keyboard-response","207","1057089","0.0-19.0-0.5","50152","","new_stimuli/mp3/melody_^4_v6-_v5-_^6-_^4_v2-_2-_.mp3","","null","",""
"","1475.7650000001304","html-button-response","208","1058569","0.0-19.0-1.5","50152","","<p>Which tone was played first after the cadence?</p><p>Please respond as quickly and as accurately as possible!</p>","5","","1","new_stimuli/mp3/melody_^4_v6-_v5-_^6-_^4_v2-_2-_.mp3"
"","5045.309999999823","html-button-response","209","1063617","0.0-19.0-2.5","50152","","<p>Which tone was played second after the cadence?</p><p>Please respond as quickly and as accurately as possible!</p>","8","","2","new_stimuli/mp3/melody_^4_v6-_v5-_^6-_^4_v2-_2-_.mp3"
"","3228.714999999851","html-button-response","210","1066849","0.0-19.0-3.5","50152","","<p>Which tone was played third after the cadence?</p><p>Please respond as quickly and as accurately as possible!</p>","6","","3","new_stimuli/mp3/melody_^4_v6-_v5-_^6-_^4_v2-_2-_.mp3"
"","773.684999999823","html-button-response","211","1067624","0.0-19.0-4.5","50152","","<p>Which tone was played fourth after the cadence?</p><p>Please respond as quickly and as accurately as possible!</p>","8","","4","new_stimuli/mp3/melody_^4_v6-_v5-_^6-_^4_v2-_2-_.mp3"
"","1430.0149999998976","html-button-response","212","1069056","0.0-19.0-5.5","50152","","<p>Which tone was played fifth after the cadence?</p><p>Please respond as quickly and as accurately as possible!</p>","5","","5","new_stimuli/mp3/melody_^4_v6-_v5-_^6-_^4_v2-_2-_.mp3"
"","4485.779999999795","html-button-response","213","1073544","0.0-19.0-6.5","50152","","<p>Which tone was played sixth after the cadence?</p><p>Please respond as quickly and as accurately as possible!</p>","1","","6","new_stimuli/mp3/melody_^4_v6-_v5-_^6-_^4_v2-_2-_.mp3"
"","445.6599999999162","html-button-response","214","1073992","0.0-19.0-7.5","50152","","<p>Which tone was played seventh after the cadence?</p><p>Please respond as quickly and as accurately as possible!</p>","1","","7","new_stimuli/mp3/melody_^4_v6-_v5-_^6-_^4_v2-_2-_.mp3"
"","null","audio-keyboard-response","215","1085700","0.0-19.0-0.6","50152","","new_stimuli/mp3/melody_^4_^5_^6_v5_v4_v3_v2_.mp3","","null","",""
"","2114.940000000177","html-button-response","216","1087817","0.0-19.0-1.6","50152","","<p>Which tone was played first after the cadence?</p><p>Please respond as quickly and as accurately as possible!</p>","5","","1","new_stimuli/mp3/melody_^4_^5_^6_v5_v4_v3_v2_.mp3"
"","678.2900000000373","html-button-response","217","1088497","0.0-19.0-2.6","50152","","<p>Which tone was played second after the cadence?</p><p>Please respond as quickly and as accurately as possible!</p>","7","","2","new_stimuli/mp3/melody_^4_^5_^6_v5_v4_v3_v2_.mp3"
"","589.6300000001211","html-button-response","218","1089089","0.0-19.0-3.6","50152","","<p>Which tone was played third after the cadence?</p><p>Please respond as quickly and as accurately as possible!</p>","9","","3","new_stimuli/mp3/melody_^4_^5_^6_v5_v4_v3_v2_.mp3"
"","542.0800000000745","html-button-response","219","1089633","0.0-19.0-4.6","50152","","<p>Which tone was played fourth after the cadence?</p><p>Please respond as quickly and as accurately as possible!</p>","7","","4","new_stimuli/mp3/melody_^4_^5_^6_v5_v4_v3_v2_.mp3"
"","541.4899999999907","html-button-response","220","1090177","0.0-19.0-5.6","50152","","<p>Which tone was played fifth after the cadence?</p><p>Please respond as quickly and as accurately as possible!</p>","5","","5","new_stimuli/mp3/melody_^4_^5_^6_v5_v4_v3_v2_.mp3"
"","909.8950000000186","html-button-response","221","1091089","0.0-19.0-6.6","50152","","<p>Which tone was played sixth after the cadence?</p><p>Please respond as quickly and as accurately as possible!</p>","4","","6","new_stimuli/mp3/melody_^4_^5_^6_v5_v4_v3_v2_.mp3"
"","645.9099999999162","html-button-response","222","1091737","0.0-19.0-7.6","50152","","<p>Which tone was played seventh after the cadence?</p><p>Please respond as quickly and as accurately as possible!</p>","2","","7","new_stimuli/mp3/melody_^4_^5_^6_v5_v4_v3_v2_.mp3"
"[{""page_index"":0,""viewing_time"":12038.044999999925},{""page_index"":1,""viewing_time"":1407.839999999851},{""page_index"":2,""viewing_time"":1560.0249999999069}]","15006.309999999823","instructions","223","1106744","0.0-20.0","50152","","","","","",""
"","null","audio-keyboard-response","224","1119388","0.0-21.0-0.0","50152","","new_stimuli/mp3/melody_^3_^4_v2_v7_^1_^2_^3_3_^4_.mp3","","null","",""
"","2841.000000000233","html-button-response","225","1122232","0.0-21.0-1.0","50152","","<p>Which tone was played first after the cadence?</p><p>Please respond as quickly and as accurately as possible!</p>","4","","1","new_stimuli/mp3/melody_^3_^4_v2_v7_^1_^2_^3_3_^4_.mp3"
"","534.0500000000466","html-button-response","226","1122768","0.0-21.0-2.0","50152","","<p>Which tone was played second after the cadence?</p><p>Please respond as quickly and as accurately as possible!</p>","5","","2","new_stimuli/mp3/melody_^3_^4_v2_v7_^1_^2_^3_3_^4_.mp3"
"","1485.9499999999534","html-button-response","227","1124256","0.0-21.0-3.0","50152","","<p>Which tone was played third after the cadence?</p><p>Please respond as quickly and as accurately as possible!</p>","2","","3","new_stimuli/mp3/melody_^3_^4_v2_v7_^1_^2_^3_3_^4_.mp3"
"","582.2999999998137","html-button-response","228","1124840","0.0-21.0-4.0","50152","","<p>Which tone was played fourth after the cadence?</p><p>Please respond as quickly and as accurately as possible!</p>","0","","4","new_stimuli/mp3/melody_^3_^4_v2_v7_^1_^2_^3_3_^4_.mp3"
"","1093.9450000000652","html-button-response","229","1125936","0.0-21.0-5.0","50152","","<p>Which tone was played fifth after the cadence?</p><p>Please respond as quickly and as accurately as possible!</p>","11","","5","new_stimuli/mp3/melody_^3_^4_v2_v7_^1_^2_^3_3_^4_.mp3"
"","837.8700000001118","html-button-response","230","1126776","0.0-21.0-6.0","50152","","<p>Which tone was played sixth after the cadence?</p><p>Please respond as quickly and as accurately as possible!</p>","11","","6","new_stimuli/mp3/melody_^3_^4_v2_v7_^1_^2_^3_3_^4_.mp3"
"","1469.7900000000373","html-button-response","231","1128247","0.0-21.0-7.0","50152","","<p>Which tone was played seventh after the cadence?</p><p>Please respond as quickly and as accurately as possible!</p>","0","","7","new_stimuli/mp3/melody_^3_^4_v2_v7_^1_^2_^3_3_^4_.mp3"
"","3254.024999999907","html-button-response","232","1131503","0.0-21.0-8.0","50152","","<p>Which tone was played eight after the cadence?</p><p>Please respond as quickly and as accurately as possible!</p>","4","","8","new_stimuli/mp3/melody_^3_^4_v2_v7_^1_^2_^3_3_^4_.mp3"
"","629.3699999998789","html-button-response","233","1132135","0.0-21.0-9.0","50152","","<p>Which tone was played nineth after the cadence?</p><p>Please respond as quickly and as accurately as possible!</p>","5","","9","new_stimuli/mp3/melody_^3_^4_v2_v7_^1_^2_^3_3_^4_.mp3"
"","null","audio-keyboard-response","234","1144778","0.0-21.0-0.1","50152","","new_stimuli/mp3/melody_v5_v4_v6+_^7_^3+_v3_v2_v5_^4_.mp3","","null","",""
"","2162.624999999767","html-button-response","235","1146945","0.0-21.0-1.1","50152","","<p>Which tone was played first after the cadence?</p><p>Please respond as quickly and as accurately as possible!</p>","7","","1","new_stimuli/mp3/melody_v5_v4_v6+_^7_^3+_v3_v2_v5_^4_.mp3"
"","725.8400000000838","html-button-response","236","1147673","0.0-21.0-2.1","50152","","<p>Which tone was played second after the cadence?</p><p>Please respond as quickly and as accurately as possible!</p>","5","","2","new_stimuli/mp3/melody_v5_v4_v6+_^7_^3+_v3_v2_v5_^4_.mp3"
"","3277.9149999998044","html-button-response","237","1150953","0.0-21.0-3.1","50152","","<p>Which tone was played third after the cadence?</p><p>Please respond as quickly and as accurately as possible!</p>","9","","3","new_stimuli/mp3/melody_v5_v4_v6+_^7_^3+_v3_v2_v5_^4_.mp3"
"","565.3199999998324","html-button-response","238","1151521","0.0-21.0-4.1","50152","","<p>Which tone was played fourth after the cadence?</p><p>Please respond as quickly and as accurately as possible!</p>","11","","4","new_stimuli/mp3/melody_v5_v4_v6+_^7_^3+_v3_v2_v5_^4_.mp3"
"","3157.375","html-button-response","239","1154681","0.0-21.0-5.1","50152","","<p>Which tone was played fifth after the cadence?</p><p>Please respond as quickly and as accurately as possible!</p>","4","","5","new_stimuli/mp3/melody_v5_v4_v6+_^7_^3+_v3_v2_v5_^4_.mp3"
"","613.9949999998789","html-button-response","240","1155297","0.0-21.0-6.1","50152","","<p>Which tone was played sixth after the cadence?</p><p>Please respond as quickly and as accurately as possible!</p>","3","","6","new_stimuli/mp3/melody_v5_v4_v6+_^7_^3+_v3_v2_v5_^4_.mp3"
"","11051.959999999963","html-button-response","241","1166352","0.0-21.0-7.1","50152","","<p>Which tone was played seventh after the cadence?</p><p>Please respond as quickly and as accurately as possible!</p>","9","","7","new_stimuli/mp3/melody_v5_v4_v6+_^7_^3+_v3_v2_v5_^4_.mp3"
"","517.7250000000931","html-button-response","242","1166872","0.0-21.0-8.1","50152","","<p>Which tone was played eight after the cadence?</p><p>Please respond as quickly and as accurately as possible!</p>","10","","8","new_stimuli/mp3/melody_v5_v4_v6+_^7_^3+_v3_v2_v5_^4_.mp3"
"","342.375","html-button-response","243","1167216","0.0-21.0-9.1","50152","","<p>Which tone was played nineth after the cadence?</p><p>Please respond as quickly and as accurately as possible!</p>","11","","9","new_stimuli/mp3/melody_v5_v4_v6+_^7_^3+_v3_v2_v5_^4_.mp3"
"","null","audio-keyboard-response","244","1180169","0.0-21.0-0.2","50152","","new_stimuli/mp3/melody_^5_^6_v5_v4_v3_v2_v1_^2_^3_buffer.mp3","","null","",""
"","1365.8900000001304","html-button-response","245","1181538","0.0-21.0-1.2","50152","","<p>Which tone was played first after the cadence?</p><p>Please respond as quickly and as accurately as possible!</p>","7","","1","new_stimuli/mp3/melody_^5_^6_v5_v4_v3_v2_v1_^2_^3_buffer.mp3"
"","618.8800000001211","html-button-response","246","1182161","0.0-21.0-2.2","50152","","<p>Which tone was played second after the cadence?</p><p>Please respond as quickly and as accurately as possible!</p>","9","","2","new_stimuli/mp3/melody_^5_^6_v5_v4_v3_v2_v1_^2_^3_buffer.mp3"
"","557.1499999999069","html-button-response","247","1182720","0.0-21.0-3.2","50152","","<p>Which tone was played third after the cadence?</p><p>Please respond as quickly and as accurately as possible!</p>","7","","3","new_stimuli/mp3/melody_^5_^6_v5_v4_v3_v2_v1_^2_^3_buffer.mp3"
"","622.0200000000186","html-button-response","248","1183344","0.0-21.0-4.2","50152","","<p>Which tone was played fourth after the cadence?</p><p>Please respond as quickly and as accurately as possible!</p>","5","","4","new_stimuli/mp3/melody_^5_^6_v5_v4_v3_v2_v1_^2_^3_buffer.mp3"
"","549.8750000002328","html-button-response","249","1183896","0.0-21.0-5.2","50152","","<p>Which tone was played fifth after the cadence?</p><p>Please respond as quickly and as accurately as possible!</p>","4","","5","new_stimuli/mp3/melody_^5_^6_v5_v4_v3_v2_v1_^2_^3_buffer.mp3"
"","502.1049999999814","html-button-response","250","1184400","0.0-21.0-6.2","50152","","<p>Which tone was played sixth after the cadence?</p><p>Please respond as quickly and as accurately as possible!</p>","2","","6","new_stimuli/mp3/melody_^5_^6_v5_v4_v3_v2_v1_^2_^3_buffer.mp3"
"","477.9150000002701","html-button-response","251","1184880","0.0-21.0-7.2","50152","","<p>Which tone was played seventh after the cadence?</p><p>Please respond as quickly and as accurately as possible!</p>","0","","7","new_stimuli/mp3/melody_^5_^6_v5_v4_v3_v2_v1_^2_^3_buffer.mp3"
"","557.5699999998324","html-button-response","252","1185440","0.0-21.0-8.2","50152","","<p>Which tone was played eight after the cadence?</p><p>Please respond as quickly and as accurately as possible!</p>","2","","8","new_stimuli/mp3/melody_^5_^6_v5_v4_v3_v2_v1_^2_^3_buffer.mp3"
"","517.6349999997765","html-button-response","253","1185960","0.0-21.0-9.2","50152","","<p>Which tone was played nineth after the cadence?</p><p>Please respond as quickly and as accurately as possible!</p>","4","","9","new_stimuli/mp3/melody_^5_^6_v5_v4_v3_v2_v1_^2_^3_buffer.mp3"
"","null","audio-keyboard-response","254","1198608","0.0-21.0-0.3","50152","","new_stimuli/mp3/melody_v7_v6_v5_^6_v5_v4_^5_^6_v5_.mp3","","null","",""
"","1901.1049999999814","html-button-response","255","1200512","0.0-21.0-1.3","50152","","<p>Which tone was played first after the cadence?</p><p>Please respond as quickly and as accurately as possible!</p>","11","","1","new_stimuli/mp3/melody_v7_v6_v5_^6_v5_v4_^5_^6_v5_.mp3"
"","454.0050000001211","html-button-response","256","1200968","0.0-21.0-2.3","50152","","<p>Which tone was played second after the cadence?</p><p>Please respond as quickly and as accurately as possible!</p>","9","","2","new_stimuli/mp3/melody_v7_v6_v5_^6_v5_v4_^5_^6_v5_.mp3"
"","533.339999999851","html-button-response","257","1201503","0.0-21.0-3.3","50152","","<p>Which tone was played third after the cadence?</p><p>Please respond as quickly and as accurately as possible!</p>","7","","3","new_stimuli/mp3/melody_v7_v6_v5_^6_v5_v4_^5_^6_v5_.mp3"
"","509.62999999988824","html-button-response","258","1202015","0.0-21.0-4.3","50152","","<p>Which tone was played fourth after the cadence?</p><p>Please respond as quickly and as accurately as possible!</p>","9","","4","new_stimuli/mp3/melody_v7_v6_v5_^6_v5_v4_^5_^6_v5_.mp3"
"","566.4599999999627","html-button-response","259","1202583","0.0-21.0-5.3","50152","","<p>Which tone was played fifth after the cadence?</p><p>Please respond as quickly and as accurately as possible!</p>","7","","5","new_stimuli/mp3/melody_v7_v6_v5_^6_v5_v4_^5_^6_v5_.mp3"
"","558.1100000001024","html-button-response","260","1203143","0.0-21.0-6.3","50152","","<p>Which tone was played sixth after the cadence?</p><p>Please respond as quickly and as accurately as possible!</p>","5","","6","new_stimuli/mp3/melody_v7_v6_v5_^6_v5_v4_^5_^6_v5_.mp3"
"","1326.5100000000093","html-button-response","261","1204471","0.0-21.0-7.3","50152","","<p>Which tone was played seventh after the cadence?</p><p>Please respond as quickly and as accurately as possible!</p>","7","","7","new_stimuli/mp3/melody_v7_v6_v5_^6_v5_v4_^5_^6_v5_.mp3"
"","662.4799999999814","html-button-response","262","1205135","0.0-21.0-8.3","50152","","<p>Which tone was played eight after the cadence?</p><p>Please respond as quickly and as accurately as possible!</p>","9","","8","new_stimuli/mp3/melody_v7_v6_v5_^6_v5_v4_^5_^6_v5_.mp3"
"","582.7949999999255","html-button-response","263","1205719","0.0-21.0-9.3","50152","","<p>Which tone was played nineth after the cadence?</p><p>Please respond as quickly and as accurately as possible!</p>","7","","9","new_stimuli/mp3/melody_v7_v6_v5_^6_v5_v4_^5_^6_v5_.mp3"
"","null","audio-keyboard-response","264","1218649","0.0-21.0-0.4","50152","","new_stimuli/mp3/melody_^2_^4_v3_v2_v1_v3_v2+_^3_^5+_.mp3","","null","",""
"","3396.5200000000186","html-button-response","265","1222048","0.0-21.0-1.4","50152","","<p>Which tone was played first after the cadence?</p><p>Please respond as quickly and as accurately as possible!</p>","2","","1","new_stimuli/mp3/melody_^2_^4_v3_v2_v1_v3_v2+_^3_^5+_.mp3"
"","836.5149999998976","html-button-response","266","1222896","0.0-21.0-2.4","50152","","<p>Which tone was played second after the cadence?</p><p>Please respond as quickly and as accurately as possible!</p>","5","","2","new_stimuli/mp3/melody_^2_^4_v3_v2_v1_v3_v2+_^3_^5+_.mp3"
"","526.035000000149","html-button-response","267","1223424","0.0-21.0-3.4","50152","","<p>Which tone was played third after the cadence?</p><p>Please respond as quickly and as accurately as possible!</p>","4","","3","new_stimuli/mp3/melody_^2_^4_v3_v2_v1_v3_v2+_^3_^5+_.mp3"
"","653.9199999999255","html-button-response","268","1224080","0.0-21.0-4.4","50152","","<p>Which tone was played fourth after the cadence?</p><p>Please respond as quickly and as accurately as possible!</p>","2","","4","new_stimuli/mp3/melody_^2_^4_v3_v2_v1_v3_v2+_^3_^5+_.mp3"
"","526.2250000000931","html-button-response","269","1224608","0.0-21.0-5.4","50152","","<p>Which tone was played fifth after the cadence?</p><p>Please respond as quickly and as accurately as possible!</p>","0","","5","new_stimuli/mp3/melody_^2_^4_v3_v2_v1_v3_v2+_^3_^5+_.mp3"
"","3542.030000000028","html-button-response","270","1228152","0.0-21.0-6.4","50152","","<p>Which tone was played sixth after the cadence?</p><p>Please respond as quickly and as accurately as possible!</p>","4","","6","new_stimuli/mp3/melody_^2_^4_v3_v2_v1_v3_v2+_^3_^5+_.mp3"
"","1221.130000000121","html-button-response","271","1229376","0.0-21.0-7.4","50152","","<p>Which tone was played seventh after the cadence?</p><p>Please respond as quickly and as accurately as possible!</p>","3","","7","new_stimuli/mp3/melody_^2_^4_v3_v2_v1_v3_v2+_^3_^5+_.mp3"
"","532.2700000002515","html-button-response","272","1229911","0.0-21.0-8.4","50152","","<p>Which tone was played eight after the cadence?</p><p>Please respond as quickly and as accurately as possible!</p>","4","","8","new_stimuli/mp3/melody_^2_^4_v3_v2_v1_v3_v2+_^3_^5+_.mp3"
"","2262.719999999972","html-button-response","273","1232176","0.0-21.0-9.4","50152","","<p>Which tone was played nineth after the cadence?</p><p>Please respond as quickly and as accurately as possible!</p>","8","","9","new_stimuli/mp3/melody_^2_^4_v3_v2_v1_v3_v2+_^3_^5+_.mp3"
"","null","audio-keyboard-response","274","1244868","0.0-21.0-0.5","50152","","new_stimuli/mp3/melody_^2_^3_^4_^5_^6_v5_v4_v3_v2_buffer.mp3","","null","",""
"","2008.184999999823","html-button-response","275","1246879","0.0-21.0-1.5","50152","","<p>Which tone was played first after the cadence?</p><p>Please respond as quickly and as accurately as possible!</p>","2","","1","new_stimuli/mp3/melody_^2_^3_^4_^5_^6_v5_v4_v3_v2_buffer.mp3"
"","615.0399999998044","html-button-response","276","1247495","0.0-21.0-2.5","50152","","<p>Which tone was played second after the cadence?</p><p>Please respond as quickly and as accurately as possible!</p>","4","","2","new_stimuli/mp3/melody_^2_^3_^4_^5_^6_v5_v4_v3_v2_buffer.mp3"
"","734.0500000000466","html-button-response","277","1248231","0.0-21.0-3.5","50152","","<p>Which tone was played third after the cadence?</p><p>Please respond as quickly and as accurately as possible!</p>","5","","3","new_stimuli/mp3/melody_^2_^3_^4_^5_^6_v5_v4_v3_v2_buffer.mp3"
"","621.6050000002142","html-button-response","278","1248855","0.0-21.0-4.5","50152","","<p>Which tone was played fourth after the cadence?</p><p>Please respond as quickly and as accurately as possible!</p>","7","","4","new_stimuli/mp3/melody_^2_^3_^4_^5_^6_v5_v4_v3_v2_buffer.mp3"
"","597.9549999998417","html-button-response","279","1249455","0.0-21.0-5.5","50152","","<p>Which tone was played fifth after the cadence?</p><p>Please respond as quickly and as accurately as possible!</p>","9","","5","new_stimuli/mp3/melody_^2_^3_^4_^5_^6_v5_v4_v3_v2_buffer.mp3"
"","733.820000000298","html-button-response","280","1250191","0.0-21.0-6.5","50152","","<p>Which tone was played sixth after the cadence?</p><p>Please respond as quickly and as accurately as possible!</p>","7","","6","new_stimuli/mp3/melody_^2_^3_^4_^5_^6_v5_v4_v3_v2_buffer.mp3"
"","558.1100000001024","html-button-response","281","1250751","0.0-21.0-7.5","50152","","<p>Which tone was played seventh after the cadence?</p><p>Please respond as quickly and as accurately as possible!</p>","5","","7","new_stimuli/mp3/melody_^2_^3_^4_^5_^6_v5_v4_v3_v2_buffer.mp3"
"","525.8799999998882","html-button-response","282","1251279","0.0-21.0-8.5","50152","","<p>Which tone was played eight after the cadence?</p><p>Please respond as quickly and as accurately as possible!</p>","4","","8","new_stimuli/mp3/melody_^2_^3_^4_^5_^6_v5_v4_v3_v2_buffer.mp3"
"","637.940000000177","html-button-response","283","1251919","0.0-21.0-9.5","50152","","<p>Which tone was played nineth after the cadence?</p><p>Please respond as quickly and as accurately as possible!</p>","2","","9","new_stimuli/mp3/melody_^2_^3_^4_^5_^6_v5_v4_v3_v2_buffer.mp3"
"","null","audio-keyboard-response","284","1264488","0.0-21.0-0.6","50152","","new_stimuli/mp3/melody_^3_^4_^5 _^6_v5_v4_v3_v2_v1_.mp3","","null","",""
"","1948.5600000000559","html-button-response","285","1266439","0.0-21.0-1.6","50152","","<p>Which tone was played first after the cadence?</p><p>Please respond as quickly and as accurately as possible!</p>","4","","1","new_stimuli/mp3/melody_^3_^4_^5 _^6_v5_v4_v3_v2_v1_.mp3"
"","661.9149999998044","html-button-response","286","1267103","0.0-21.0-2.6","50152","","<p>Which tone was played second after the cadence?</p><p>Please respond as quickly and as accurately as possible!</p>","5","","2","new_stimuli/mp3/melody_^3_^4_^5 _^6_v5_v4_v3_v2_v1_.mp3"
"","1166.005000000121","html-button-response","287","1268271","0.0-21.0-3.6","50152","","<p>Which tone was played third after the cadence?</p><p>Please respond as quickly and as accurately as possible!</p>","7","","3","new_stimuli/mp3/melody_^3_^4_^5 _^6_v5_v4_v3_v2_v1_.mp3"
"","589.9550000000745","html-button-response","288","1268863","0.0-21.0-4.6","50152","","<p>Which tone was played fourth after the cadence?</p><p>Please respond as quickly and as accurately as possible!</p>","9","","4","new_stimuli/mp3/melody_^3_^4_^5 _^6_v5_v4_v3_v2_v1_.mp3"
"","622.2449999998789","html-button-response","289","1269487","0.0-21.0-5.6","50152","","<p>Which tone was played fifth after the cadence?</p><p>Please respond as quickly and as accurately as possible!</p>","7","","5","new_stimuli/mp3/melody_^3_^4_^5 _^6_v5_v4_v3_v2_v1_.mp3"
"","581.3499999998603","html-button-response","290","1270071","0.0-21.0-6.6","50152","","<p>Which tone was played sixth after the cadence?</p><p>Please respond as quickly and as accurately as possible!</p>","5","","6","new_stimuli/mp3/melody_^3_^4_^5 _^6_v5_v4_v3_v2_v1_.mp3"
"","494","html-button-response","291","1270566","0.0-21.0-7.6","50152","","<p>Which tone was played seventh after the cadence?</p><p>Please respond as quickly and as accurately as possible!</p>","4","","7","new_stimuli/mp3/melody_^3_^4_^5 _^6_v5_v4_v3_v2_v1_.mp3"
"","597.9599999999627","html-button-response","292","1271166","0.0-21.0-8.6","50152","","<p>Which tone was played eight after the cadence?</p><p>Please respond as quickly and as accurately as possible!</p>","2","","8","new_stimuli/mp3/melody_^3_^4_^5 _^6_v5_v4_v3_v2_v1_.mp3"
"","605.7099999999627","html-button-response","293","1271774","0.0-21.0-9.6","50152","","<p>Which tone was played nineth after the cadence?</p><p>Please respond as quickly and as accurately as possible!</p>","0","","9","new_stimuli/mp3/melody_^3_^4_^5 _^6_v5_v4_v3_v2_v1_.mp3"
"","34301.01000000001","survey-text","294","1306079","0.0-22.0","50152","{""Q0"":""humming the notes in sequence after they were initially played and as I selected the syllable""}","","","","",""
"","65684.06499999994","survey-text","295","1371766","0.0-23.0","50152","{""Q0"":""It was confusing having all of the syllables on one line. I might have accidentally pressed me instead of mi a few times or something similar. Maybe the accidentals could go on a line above or below the other syllables?""}","","","","",""
"","22549.750000000233","survey-text","296","1394317","0.0-24.0","50152","{""Q0"":""no""}","","","","",""
"","4662.550000000047","survey-text","297","1398983","0.0-25.0","50152","{""Q0"":""headphones""}","","","","",""
"","3838.3300000000745","survey-text","298","1402823","0.0-26.0","50152","{""Q0"":""female""}","","","","",""
"","3318.2600000000093","survey-text","299","1406143","0.0-27.0","50152","{""Q0"":""yes""}","","","","",""
"[{""page_index"":0,""viewing_time"":4366.539999999804}]","4366.999999999767","instructions","300","1410510","0.0-28.0","50152","","","","","",""
