"view_history","rt","trial_type","trial_index","time_elapsed","internal_node_id","subject","responses","stimulus","button_pressed","key_press","response_sequence","melody"
"[{""page_index"":0,""viewing_time"":799.6850000000677},{""page_index"":1,""viewing_time"":904.4099999999844},{""page_index"":2,""viewing_time"":889.9599999999737}]","2594.8900000000776","instructions","0","2665","0.0-0.0","51424","","","","","",""
"","2348.045000000069","survey-text","1","5016","0.0-1.0","51424","{""Q0"":""27""}","","","","",""
"","12292.399999999929","survey-text","2","17309","0.0-2.0","51424","{""Q0"":""Ph.D. Student""}","","","","",""
"","8139.684999999987","survey-text","3","25450","0.0-3.0","51424","{""Q0"":""Moveable-Do""}","","","","",""
"","3341.475000000064","survey-text","4","28792","0.0-4.0","51424","{""Q0"":""No""}","","","","",""
"","38986.584999999985","survey-text","5","67781","0.0-5.0","51424","{""Q0"":""120""}","","","","",""
"","12117.115000000005","survey-text","6","79899","0.0-6.0","51424","{""Q0"":""5""}","","","","",""
"[{""page_index"":0,""viewing_time"":6972.34000000004},{""page_index"":1,""viewing_time"":42735.26500000003},{""page_index"":2,""viewing_time"":1869.6300000000338}]","51577.48000000004","instructions","7","131478","0.0-7.0","51424","","","","","",""
"","8096.645000000077","audio-button-response","8","139577","0.0-8.0","51424","","stimuli/long/c-do.mp3","0","","",""
"","8733.934999999998","audio-button-response","9","148313","0.0-9.0","51424","","stimuli/long/a-le.mp3","8","","",""
"[{""page_index"":0,""viewing_time"":13057.215000000055},{""page_index"":1,""viewing_time"":25087.639999999956}]","38145.04999999996","instructions","10","186458","0.0-10.0","51424","","","","","",""
"","15216.35500000004","audio-button-response","11","201677","0.0-11.0-0.0","51424","","stimuli/long/e-mi.mp3","5","","",""
"","14310.834999999992","audio-button-response","12","215989","0.0-11.0-0.1","51424","","stimuli/long/c-la.mp3","4","","",""
"","9508.779999999999","audio-button-response","13","225500","0.0-11.0-0.2","51424","","stimuli/long/a-sol.mp3","0","","",""
"","10187.325000000012","audio-button-response","14","235689","0.0-11.0-0.3","51424","","stimuli/long/c-re.mp3","9","","",""
"","12378.909999999887","audio-button-response","15","248069","0.0-11.0-0.4","51424","","stimuli/long/a-re.mp3","7","","",""
"","7901.679999999935","audio-button-response","16","255972","0.0-11.0-0.5","51424","","stimuli/long/e-ti.mp3","11","","",""
"","9036.704999999987","audio-button-response","17","265010","0.0-11.0-0.6","51424","","stimuli/long/a-la.mp3","3","","",""
"","10586.929999999993","audio-button-response","18","275599","0.0-11.0-0.7","51424","","stimuli/long/c-me.mp3","9","","",""
"","15712.749999999884","audio-button-response","19","291313","0.0-11.0-0.8","51424","","stimuli/long/a-fa.mp3","2","","",""
"","12246.290000000037","audio-button-response","20","303562","0.0-11.0-0.9","51424","","stimuli/long/a-do8.mp3","4","","",""
"","17454.25","audio-button-response","21","321017","0.0-11.0-0.10","51424","","stimuli/long/a-te.mp3","5","","",""
"","9674.165000000154","audio-button-response","22","330693","0.0-11.0-0.11","51424","","stimuli/long/c-do8.mp3","4","","",""
"","9139.775000000081","audio-button-response","23","339834","0.0-11.0-0.12","51424","","stimuli/long/a-ra.mp3","1","","",""
"","9836.275000000081","audio-button-response","24","349672","0.0-11.0-0.13","51424","","stimuli/long/e-do8.mp3","0","","",""
"","9133.505000000005","audio-button-response","25","358807","0.0-11.0-0.14","51424","","stimuli/long/a-ti.mp3","11","","",""
"","null","audio-button-response","26","378810","0.0-11.0-0.15","51424","","stimuli/long/c-mi.mp3","null","","",""
"","11075.224999999802","audio-button-response","27","389887","0.0-11.0-0.16","51424","","stimuli/long/e-fa.mp3","5","","",""
"","12651.200000000012","audio-button-response","28","402540","0.0-11.0-0.17","51424","","stimuli/long/e-sol.mp3","7","","",""
"","12768.625000000175","audio-button-response","29","415310","0.0-11.0-0.18","51424","","stimuli/long/e-re.mp3","1","","",""
"","19259.519999999786","audio-button-response","30","434571","0.0-11.0-0.19","51424","","stimuli/long/e-fi.mp3","3","","",""
"","10087.545000000042","audio-button-response","31","444660","0.0-11.0-0.20","51424","","stimuli/long/c-sol.mp3","7","","",""
"","8171.02999999997","audio-button-response","32","452833","0.0-11.0-0.21","51424","","stimuli/long/c-do.mp3","0","","",""
"","12844.794999999984","audio-button-response","33","465679","0.0-11.0-0.22","51424","","stimuli/long/e-me.mp3","3","","",""
"","15773.25499999983","audio-button-response","34","481456","0.0-11.0-0.23","51424","","stimuli/long/c-ti.mp3","7","","",""
"","8503.750000000058","audio-button-response","35","489961","0.0-11.0-0.24","51424","","stimuli/long/c-ra.mp3","1","","",""
"","8016.094999999972","audio-button-response","36","497979","0.0-11.0-0.25","51424","","stimuli/long/e-do.mp3","0","","",""
"","7729.679999999877","audio-button-response","37","505710","0.0-11.0-0.26","51424","","stimuli/long/a-do.mp3","0","","",""
"","14703.53500000009","audio-button-response","38","520415","0.0-11.0-0.27","51424","","stimuli/long/a-le.mp3","7","","",""
"","11070.965000000084","audio-button-response","39","531494","0.0-11.0-0.28","51424","","stimuli/long/a-mi.mp3","4","","",""
"","14719.369999999995","audio-button-response","40","546219","0.0-11.0-0.29","51424","","stimuli/long/e-le.mp3","6","","",""
"","15803.055000000051","audio-button-response","41","562025","0.0-11.0-0.30","51424","","stimuli/long/e-te.mp3","8","","",""
"","11752.694999999832","audio-button-response","42","573780","0.0-11.0-0.31","51424","","stimuli/long/a-fi.mp3","5","","",""
"","16914.935000000056","audio-button-response","43","590698","0.0-11.0-0.32","51424","","stimuli/long/c-fi.mp3","4","","",""
"","9197.92499999993","audio-button-response","44","599898","0.0-11.0-0.33","51424","","stimuli/long/e-ra.mp3","1","","",""
"","13463.874999999884","audio-button-response","45","613364","0.0-11.0-0.34","51424","","stimuli/long/e-la.mp3","8","","",""
"","10292.41499999992","audio-button-response","46","623658","0.0-11.0-0.35","51424","","stimuli/long/a-me.mp3","3","","",""
"","15396.285000000033","audio-button-response","47","639056","0.0-11.0-0.36","51424","","stimuli/long/c-le.mp3","7","","",""
"","9867.170000000042","audio-button-response","48","648926","0.0-11.0-0.37","51424","","stimuli/long/c-fa.mp3","5","","",""
"[{""page_index"":0,""viewing_time"":19954.420000000042},{""page_index"":1,""viewing_time"":2013.8549999999814}]","21968.445000000065","instructions","49","670895","0.0-12.0","51424","","","","","",""
"","null","audio-keyboard-response","50","679912","0.0-13.0-0.0","51424","","new_stimuli/mp3/melody_^1_^2+_.mp3","","null","",""
"","1223.5050000000047","html-button-response","51","681137","0.0-13.0-1.0","51424","","<p>Which tone was played first after the cadence?</p><p>Please respond as quickly and as accurately as possible!</p>","0","","1","new_stimuli/mp3/melody_^1_^2+_.mp3"
"","700.6850000000559","html-button-response","52","681839","0.0-13.0-2.0","51424","","<p>Which tone was played second after the cadence?</p><p>Please respond as quickly and as accurately as possible!</p>","3","","2","new_stimuli/mp3/melody_^1_^2+_.mp3"
"","null","audio-keyboard-response","53","690906","0.0-13.0-0.1","51424","","new_stimuli/mp3/melody_v2_v1_.mp3","","null","",""
"","2052.4899999999907","html-button-response","54","692960","0.0-13.0-1.1","51424","","<p>Which tone was played first after the cadence?</p><p>Please respond as quickly and as accurately as possible!</p>","9","","1","new_stimuli/mp3/melody_v2_v1_.mp3"
"","516.5249999999069","html-button-response","55","693479","0.0-13.0-2.1","51424","","<p>Which tone was played second after the cadence?</p><p>Please respond as quickly and as accurately as possible!</p>","7","","2","new_stimuli/mp3/melody_v2_v1_.mp3"
"","null","audio-keyboard-response","56","702649","0.0-13.0-0.2","51424","","new_stimuli/mp3/melody_v5_v1+_.mp3","","null","",""
"","6159.444999999949","html-button-response","57","708810","0.0-13.0-1.2","51424","","<p>Which tone was played first after the cadence?</p><p>Please respond as quickly and as accurately as possible!</p>","12","","1","new_stimuli/mp3/melody_v5_v1+_.mp3"
"","3079.2249999999767","html-button-response","58","711891","0.0-13.0-2.2","51424","","<p>Which tone was played second after the cadence?</p><p>Please respond as quickly and as accurately as possible!</p>","6","","2","new_stimuli/mp3/melody_v5_v1+_.mp3"
"","null","audio-keyboard-response","59","721063","0.0-13.0-0.3","51424","","new_stimuli/mp3/melody_^2_v7-_.mp3","","null","",""
"","10984.609999999986","html-button-response","60","732049","0.0-13.0-1.3","51424","","<p>Which tone was played first after the cadence?</p><p>Please respond as quickly and as accurately as possible!</p>","2","","1","new_stimuli/mp3/melody_^2_v7-_.mp3"
"","5519.479999999865","html-button-response","61","737570","0.0-13.0-2.3","51424","","<p>Which tone was played second after the cadence?</p><p>Please respond as quickly and as accurately as possible!</p>","9","","2","new_stimuli/mp3/melody_^2_v7-_.mp3"
"","null","audio-keyboard-response","62","747023","0.0-13.0-0.4","51424","","new_stimuli/mp3/melody_^3_v4+_buffer.mp3","","null","",""
"","806.2549999998882","html-button-response","63","747831","0.0-13.0-1.4","51424","","<p>Which tone was played first after the cadence?</p><p>Please respond as quickly and as accurately as possible!</p>","2","","1","new_stimuli/mp3/melody_^3_v4+_buffer.mp3"
"","583.5350000000326","html-button-response","64","748416","0.0-13.0-2.4","51424","","<p>Which tone was played second after the cadence?</p><p>Please respond as quickly and as accurately as possible!</p>","4","","2","new_stimuli/mp3/melody_^3_v4+_buffer.mp3"
"","null","audio-keyboard-response","65","757716","0.0-13.0-0.5","51424","","new_stimuli/mp3/melody_3_^6_buffer.mp3","","null","",""
"","1522.1249999998836","html-button-response","66","759239","0.0-13.0-1.5","51424","","<p>Which tone was played first after the cadence?</p><p>Please respond as quickly and as accurately as possible!</p>","0","","1","new_stimuli/mp3/melody_3_^6_buffer.mp3"
"","2416.7600000000093","html-button-response","67","761658","0.0-13.0-2.5","51424","","<p>Which tone was played second after the cadence?</p><p>Please respond as quickly and as accurately as possible!</p>","5","","2","new_stimuli/mp3/melody_3_^6_buffer.mp3"
"","null","audio-keyboard-response","68","770830","0.0-13.0-0.6","51424","","new_stimuli/mp3/melody_^5_^1+_.mp3","","null","",""
"","6916.105000000098","html-button-response","69","777747","0.0-13.0-1.6","51424","","<p>Which tone was played first after the cadence?</p><p>Please respond as quickly and as accurately as possible!</p>","6","","1","new_stimuli/mp3/melody_^5_^1+_.mp3"
"","842.5099999998929","html-button-response","70","778591","0.0-13.0-2.6","51424","","<p>Which tone was played second after the cadence?</p><p>Please respond as quickly and as accurately as possible!</p>","12","","2","new_stimuli/mp3/melody_^5_^1+_.mp3"
"","null","audio-keyboard-response","71","787786","0.0-13.0-0.7","51424","","new_stimuli/mp3/melody_v3_v2_buffer.mp3","","null","",""
"","10212.83500000008","html-button-response","72","798001","0.0-13.0-1.7","51424","","<p>Which tone was played first after the cadence?</p><p>Please respond as quickly and as accurately as possible!</p>","4","","1","new_stimuli/mp3/melody_v3_v2_buffer.mp3"
"","498.64500000013504","html-button-response","73","798501","0.0-13.0-2.7","51424","","<p>Which tone was played second after the cadence?</p><p>Please respond as quickly and as accurately as possible!</p>","2","","2","new_stimuli/mp3/melody_v3_v2_buffer.mp3"
"","null","audio-keyboard-response","74","807929","0.0-13.0-0.8","51424","","new_stimuli/mp3/melody_v4_v3_buffer.mp3","","null","",""
"","879.9850000001024","html-button-response","75","808811","0.0-13.0-1.8","51424","","<p>Which tone was played first after the cadence?</p><p>Please respond as quickly and as accurately as possible!</p>","5","","1","new_stimuli/mp3/melody_v4_v3_buffer.mp3"
"","448.2599999998929","html-button-response","76","809260","0.0-13.0-2.8","51424","","<p>Which tone was played second after the cadence?</p><p>Please respond as quickly and as accurately as possible!</p>","4","","2","new_stimuli/mp3/melody_v4_v3_buffer.mp3"
"","null","audio-keyboard-response","77","818715","0.0-13.0-0.9","51424","","new_stimuli/mp3/melody_v7_v3_buffer.mp3","","null","",""
"","1184.1149999999907","html-button-response","78","819901","0.0-13.0-1.9","51424","","<p>Which tone was played first after the cadence?</p><p>Please respond as quickly and as accurately as possible!</p>","12","","1","new_stimuli/mp3/melody_v7_v3_buffer.mp3"
"","776.5900000002002","html-button-response","79","820680","0.0-13.0-2.9","51424","","<p>Which tone was played second after the cadence?</p><p>Please respond as quickly and as accurately as possible!</p>","7","","2","new_stimuli/mp3/melody_v7_v3_buffer.mp3"
"[{""page_index"":0,""viewing_time"":48844.480000000214},{""page_index"":1,""viewing_time"":2011.4099999999162},{""page_index"":2,""viewing_time"":3292.4250000000466}]","54148.49500000023","instructions","80","874832","0.0-14.0","51424","","","","","",""
"","null","audio-keyboard-response","81","884643","0.0-15.0-0.0","51424","","new_stimuli/mp3/melody_v3_v2_v1_.mp3","","null","",""
"","982.7650000001304","html-button-response","82","885627","0.0-15.0-1.0","51424","","<p>Which tone was played first after the cadence?</p><p>Please respond as quickly and as accurately as possible!</p>","4","","1","new_stimuli/mp3/melody_v3_v2_v1_.mp3"
"","659.9949999998789","html-button-response","83","886288","0.0-15.0-2.0","51424","","<p>Which tone was played second after the cadence?</p><p>Please respond as quickly and as accurately as possible!</p>","2","","2","new_stimuli/mp3/melody_v3_v2_v1_.mp3"
"","723.2950000000419","html-button-response","84","887013","0.0-15.0-3.0","51424","","<p>Which tone was played third after the cadence?</p><p>Please respond as quickly and as accurately as possible!</p>","0","","3","new_stimuli/mp3/melody_v3_v2_v1_.mp3"
"","null","audio-keyboard-response","85","896572","0.0-15.0-0.1","51424","","new_stimuli/mp3/melody_v1_v7-_^7_.mp3","","null","",""
"","17193.505000000005","html-button-response","86","913767","0.0-15.0-1.1","51424","","<p>Which tone was played first after the cadence?</p><p>Please respond as quickly and as accurately as possible!</p>","2","","1","new_stimuli/mp3/melody_v1_v7-_^7_.mp3"
"","1460.1450000000186","html-button-response","87","915229","0.0-15.0-2.1","51424","","<p>Which tone was played second after the cadence?</p><p>Please respond as quickly and as accurately as possible!</p>","11","","2","new_stimuli/mp3/melody_v1_v7-_^7_.mp3"
"","454.3800000001211","html-button-response","88","915685","0.0-15.0-3.1","51424","","<p>Which tone was played third after the cadence?</p><p>Please respond as quickly and as accurately as possible!</p>","12","","3","new_stimuli/mp3/melody_v1_v7-_^7_.mp3"
"","null","audio-keyboard-response","89","925325","0.0-15.0-0.2","51424","","new_stimuli/mp3/melody_6_^1_v5_.mp3","","null","",""
"","14500.515000000014","html-button-response","90","939827","0.0-15.0-1.2","51424","","<p>Which tone was played first after the cadence?</p><p>Please respond as quickly and as accurately as possible!</p>","10","","1","new_stimuli/mp3/melody_6_^1_v5_.mp3"
"","751.2099999999627","html-button-response","91","940579","0.0-15.0-2.2","51424","","<p>Which tone was played second after the cadence?</p><p>Please respond as quickly and as accurately as possible!</p>","12","","2","new_stimuli/mp3/melody_6_^1_v5_.mp3"
"","768.9049999999115","html-button-response","92","941350","0.0-15.0-3.2","51424","","<p>Which tone was played third after the cadence?</p><p>Please respond as quickly and as accurately as possible!</p>","7","","3","new_stimuli/mp3/melody_6_^1_v5_.mp3"
"","null","audio-keyboard-response","93","951041","0.0-15.0-0.3","51424","","new_stimuli/mp3/melody_v4_v3_v2_buffer.mp3","","null","",""
"","13758.430000000168","html-button-response","94","964801","0.0-15.0-1.3","51424","","<p>Which tone was played first after the cadence?</p><p>Please respond as quickly and as accurately as possible!</p>","10","","1","new_stimuli/mp3/melody_v4_v3_v2_buffer.mp3"
"","662.5549999998184","html-button-response","95","965466","0.0-15.0-2.3","51424","","<p>Which tone was played second after the cadence?</p><p>Please respond as quickly and as accurately as possible!</p>","8","","2","new_stimuli/mp3/melody_v4_v3_v2_buffer.mp3"
"","796.1550000000279","html-button-response","96","966263","0.0-15.0-3.3","51424","","<p>Which tone was played third after the cadence?</p><p>Please respond as quickly and as accurately as possible!</p>","7","","3","new_stimuli/mp3/melody_v4_v3_v2_buffer.mp3"
"","null","audio-keyboard-response","97","975852","0.0-15.0-0.4","51424","","new_stimuli/mp3/melody_v1_v7-_7-_buffer.mp3","","null","",""
"","13278.209999999963","html-button-response","98","989132","0.0-15.0-1.4","51424","","<p>Which tone was played first after the cadence?</p><p>Please respond as quickly and as accurately as possible!</p>","2","","1","new_stimuli/mp3/melody_v1_v7-_7-_buffer.mp3"
"","933.1150000001071","html-button-response","99","990066","0.0-15.0-2.4","51424","","<p>Which tone was played second after the cadence?</p><p>Please respond as quickly and as accurately as possible!</p>","11","","2","new_stimuli/mp3/melody_v1_v7-_7-_buffer.mp3"
"","1922.574999999837","html-button-response","100","991990","0.0-15.0-3.4","51424","","<p>Which tone was played third after the cadence?</p><p>Please respond as quickly and as accurately as possible!</p>","11","","3","new_stimuli/mp3/melody_v1_v7-_7-_buffer.mp3"
"","null","audio-keyboard-response","101","1001945","0.0-15.0-0.5","51424","","new_stimuli/mp3/melody_v5_v4_v3_buffer.mp3","","null","",""
"","4098.949999999837","html-button-response","102","1006046","0.0-15.0-1.5","51424","","<p>Which tone was played first after the cadence?</p><p>Please respond as quickly and as accurately as possible!</p>","5","","1","new_stimuli/mp3/melody_v5_v4_v3_buffer.mp3"
"","575.0649999999441","html-button-response","103","1006622","0.0-15.0-2.5","51424","","<p>Which tone was played second after the cadence?</p><p>Please respond as quickly and as accurately as possible!</p>","3","","2","new_stimuli/mp3/melody_v5_v4_v3_buffer.mp3"
"","732.9050000000279","html-button-response","104","1007358","0.0-15.0-3.5","51424","","<p>Which tone was played third after the cadence?</p><p>Please respond as quickly and as accurately as possible!</p>","2","","3","new_stimuli/mp3/melody_v5_v4_v3_buffer.mp3"
"","null","audio-keyboard-response","105","1017259","0.0-15.0-0.6","51424","","new_stimuli/mp3/melody_^1_v6_v5+_.mp3","","null","",""
"","4028.3349999999627","html-button-response","106","1021289","0.0-15.0-1.6","51424","","<p>Which tone was played first after the cadence?</p><p>Please respond as quickly and as accurately as possible!</p>","11","","1","new_stimuli/mp3/melody_^1_v6_v5+_.mp3"
"","871.7200000000885","html-button-response","107","1022162","0.0-15.0-2.6","51424","","<p>Which tone was played second after the cadence?</p><p>Please respond as quickly and as accurately as possible!</p>","8","","2","new_stimuli/mp3/melody_^1_v6_v5+_.mp3"
"","418.69000000006054","html-button-response","108","1022582","0.0-15.0-3.6","51424","","<p>Which tone was played third after the cadence?</p><p>Please respond as quickly and as accurately as possible!</p>","7","","3","new_stimuli/mp3/melody_^1_v6_v5+_.mp3"
"","null","audio-keyboard-response","109","1032561","0.0-15.0-0.7","51424","","new_stimuli/mp3/melody_v2_v5_^3_buffer.mp3","","null","",""
"","9549.564999999944","html-button-response","110","1042112","0.0-15.0-1.7","51424","","<p>Which tone was played first after the cadence?</p><p>Please respond as quickly and as accurately as possible!</p>","2","","1","new_stimuli/mp3/melody_v2_v5_^3_buffer.mp3"
"","716.0149999998976","html-button-response","111","1042830","0.0-15.0-2.7","51424","","<p>Which tone was played second after the cadence?</p><p>Please respond as quickly and as accurately as possible!</p>","7","","2","new_stimuli/mp3/melody_v2_v5_^3_buffer.mp3"
"","620.3350000000792","html-button-response","112","1043452","0.0-15.0-3.7","51424","","<p>Which tone was played third after the cadence?</p><p>Please respond as quickly and as accurately as possible!</p>","5","","3","new_stimuli/mp3/melody_v2_v5_^3_buffer.mp3"
"","null","audio-keyboard-response","113","1052960","0.0-15.0-0.8","51424","","new_stimuli/mp3/melody_1_v1+_^2_.mp3","","null","",""
"","18223.84999999986","html-button-response","114","1071185","0.0-15.0-1.8","51424","","<p>Which tone was played first after the cadence?</p><p>Please respond as quickly and as accurately as possible!</p>","5","","1","new_stimuli/mp3/melody_1_v1+_^2_.mp3"
"","586.2650000001304","html-button-response","115","1071773","0.0-15.0-2.8","51424","","<p>Which tone was played second after the cadence?</p><p>Please respond as quickly and as accurately as possible!</p>","6","","2","new_stimuli/mp3/melody_1_v1+_^2_.mp3"
"","1100.8300000000745","html-button-response","116","1072875","0.0-15.0-3.8","51424","","<p>Which tone was played third after the cadence?</p><p>Please respond as quickly and as accurately as possible!</p>","7","","3","new_stimuli/mp3/melody_1_v1+_^2_.mp3"
"[{""page_index"":0,""viewing_time"":3874.554999999702},{""page_index"":1,""viewing_time"":2208.1750000000466},{""page_index"":2,""viewing_time"":1503.5649999999441},{""page_index"":1,""viewing_time"":2182.505000000121},{""page_index"":2,""viewing_time"":1710.969999999972}]","11479.98499999987","instructions","117","1084357","0.0-16.0","51424","","","","","",""
"","null","audio-keyboard-response","118","1095069","0.0-17.0-0.0","51424","","new_stimuli/mp3/melody_^6_v5_v4_v3_v2_buffer.mp3","","null","",""
"","7752.829999999842","html-button-response","119","1102823","0.0-17.0-1.0","51424","","<p>Which tone was played first after the cadence?</p><p>Please respond as quickly and as accurately as possible!</p>","5","","1","new_stimuli/mp3/melody_^6_v5_v4_v3_v2_buffer.mp3"
"","504.3149999999441","html-button-response","120","1103329","0.0-17.0-2.0","51424","","<p>Which tone was played second after the cadence?</p><p>Please respond as quickly and as accurately as possible!</p>","3","","2","new_stimuli/mp3/melody_^6_v5_v4_v3_v2_buffer.mp3"
"","440.24500000011176","html-button-response","121","1103770","0.0-17.0-3.0","51424","","<p>Which tone was played third after the cadence?</p><p>Please respond as quickly and as accurately as possible!</p>","2","","3","new_stimuli/mp3/melody_^6_v5_v4_v3_v2_buffer.mp3"
"","570.2999999998137","html-button-response","122","1104342","0.0-17.0-4.0","51424","","<p>Which tone was played fourth after the cadence?</p><p>Please respond as quickly and as accurately as possible!</p>","0","","4","new_stimuli/mp3/melody_^6_v5_v4_v3_v2_buffer.mp3"
"","1264.4900000002235","html-button-response","123","1105607","0.0-17.0-5.0","51424","","<p>Which tone was played fifth after the cadence?</p><p>Please respond as quickly and as accurately as possible!</p>","11","","5","new_stimuli/mp3/melody_^6_v5_v4_v3_v2_buffer.mp3"
"","null","audio-keyboard-response","124","1116553","0.0-17.0-0.1","51424","","new_stimuli/mp3/melody_^5_^6_v5_v4_v3_buffer.mp3","","null","",""
"","4588.784999999916","html-button-response","125","1121143","0.0-17.0-1.1","51424","","<p>Which tone was played first after the cadence?</p><p>Please respond as quickly and as accurately as possible!</p>","5","","1","new_stimuli/mp3/melody_^5_^6_v5_v4_v3_buffer.mp3"
"","568.4700000002049","html-button-response","126","1121713","0.0-17.0-2.1","51424","","<p>Which tone was played second after the cadence?</p><p>Please respond as quickly and as accurately as possible!</p>","7","","2","new_stimuli/mp3/melody_^5_^6_v5_v4_v3_buffer.mp3"
"","514.5100000000093","html-button-response","127","1122229","0.0-17.0-3.1","51424","","<p>Which tone was played third after the cadence?</p><p>Please respond as quickly and as accurately as possible!</p>","5","","3","new_stimuli/mp3/melody_^5_^6_v5_v4_v3_buffer.mp3"
"","406.54000000003725","html-button-response","128","1122637","0.0-17.0-4.1","51424","","<p>Which tone was played fourth after the cadence?</p><p>Please respond as quickly and as accurately as possible!</p>","4","","4","new_stimuli/mp3/melody_^5_^6_v5_v4_v3_buffer.mp3"
"","635.5200000002515","html-button-response","129","1123273","0.0-17.0-5.1","51424","","<p>Which tone was played fifth after the cadence?</p><p>Please respond as quickly and as accurately as possible!</p>","2","","5","new_stimuli/mp3/melody_^5_^6_v5_v4_v3_buffer.mp3"
"","null","audio-keyboard-response","130","1134218","0.0-17.0-0.2","51424","","new_stimuli/mp3/melody_v5-_v3_3_^4+_v3_.mp3","","null","",""
"","1293.7400000002235","html-button-response","131","1135513","0.0-17.0-1.2","51424","","<p>Which tone was played first after the cadence?</p><p>Please respond as quickly and as accurately as possible!</p>","4","","1","new_stimuli/mp3/melody_v5-_v3_3_^4+_v3_.mp3"
"","440.10000000009313","html-button-response","132","1135954","0.0-17.0-2.2","51424","","<p>Which tone was played second after the cadence?</p><p>Please respond as quickly and as accurately as possible!</p>","1","","2","new_stimuli/mp3/melody_v5-_v3_3_^4+_v3_.mp3"
"","962.8249999997206","html-button-response","133","1136918","0.0-17.0-3.2","51424","","<p>Which tone was played third after the cadence?</p><p>Please respond as quickly and as accurately as possible!</p>","2","","3","new_stimuli/mp3/melody_v5-_v3_3_^4+_v3_.mp3"
"","620.1650000000373","html-button-response","134","1137540","0.0-17.0-4.2","51424","","<p>Which tone was played fourth after the cadence?</p><p>Please respond as quickly and as accurately as possible!</p>","4","","4","new_stimuli/mp3/melody_v5-_v3_3_^4+_v3_.mp3"
"","726.0049999998882","html-button-response","135","1138267","0.0-17.0-5.2","51424","","<p>Which tone was played fifth after the cadence?</p><p>Please respond as quickly and as accurately as possible!</p>","2","","5","new_stimuli/mp3/melody_v5-_v3_3_^4+_v3_.mp3"
"","null","audio-keyboard-response","136","1148899","0.0-17.0-0.3","51424","","new_stimuli/mp3/melody_^6_v4_v3_^4_^5_.mp3","","null","",""
"","7388.939999999944","html-button-response","137","1156289","0.0-17.0-1.3","51424","","<p>Which tone was played first after the cadence?</p><p>Please respond as quickly and as accurately as possible!</p>","7","","1","new_stimuli/mp3/melody_^6_v4_v3_^4_^5_.mp3"
"","855.0600000000559","html-button-response","138","1157146","0.0-17.0-2.3","51424","","<p>Which tone was played second after the cadence?</p><p>Please respond as quickly and as accurately as possible!</p>","3","","2","new_stimuli/mp3/melody_^6_v4_v3_^4_^5_.mp3"
"","726.9899999999907","html-button-response","139","1157874","0.0-17.0-3.3","51424","","<p>Which tone was played third after the cadence?</p><p>Please respond as quickly and as accurately as possible!</p>","2","","3","new_stimuli/mp3/melody_^6_v4_v3_^4_^5_.mp3"
"","1102.5100000000093","html-button-response","140","1158978","0.0-17.0-4.3","51424","","<p>Which tone was played fourth after the cadence?</p><p>Please respond as quickly and as accurately as possible!</p>","3","","4","new_stimuli/mp3/melody_^6_v4_v3_^4_^5_.mp3"
"","1025.6599999999162","html-button-response","141","1160005","0.0-17.0-5.3","51424","","<p>Which tone was played fifth after the cadence?</p><p>Please respond as quickly and as accurately as possible!</p>","5","","5","new_stimuli/mp3/melody_^6_v4_v3_^4_^5_.mp3"
"","null","audio-keyboard-response","142","1170586","0.0-17.0-0.4","51424","","new_stimuli/mp3/melody_v5_v4_v3_v2_v1_.mp3","","null","",""
"","18507.51000000001","html-button-response","143","1189095","0.0-17.0-1.4","51424","","<p>Which tone was played first after the cadence?</p><p>Please respond as quickly and as accurately as possible!</p>","7","","1","new_stimuli/mp3/melody_v5_v4_v3_v2_v1_.mp3"
"","531.6399999998976","html-button-response","144","1189628","0.0-17.0-2.4","51424","","<p>Which tone was played second after the cadence?</p><p>Please respond as quickly and as accurately as possible!</p>","6","","2","new_stimuli/mp3/melody_v5_v4_v3_v2_v1_.mp3"
"","690.1200000003446","html-button-response","145","1190320","0.0-17.0-3.4","51424","","<p>Which tone was played third after the cadence?</p><p>Please respond as quickly and as accurately as possible!</p>","4","","3","new_stimuli/mp3/melody_v5_v4_v3_v2_v1_.mp3"
"","2361.100000000093","html-button-response","146","1192682","0.0-17.0-4.4","51424","","<p>Which tone was played fourth after the cadence?</p><p>Please respond as quickly and as accurately as possible!</p>","2","","4","new_stimuli/mp3/melody_v5_v4_v3_v2_v1_.mp3"
"","816.0649999999441","html-button-response","147","1193500","0.0-17.0-5.4","51424","","<p>Which tone was played fifth after the cadence?</p><p>Please respond as quickly and as accurately as possible!</p>","0","","5","new_stimuli/mp3/melody_v5_v4_v3_v2_v1_.mp3"
"","null","audio-keyboard-response","148","1204134","0.0-17.0-0.5","51424","","new_stimuli/mp3/melody_v5_^6+_^7_^1_5_.mp3","","null","",""
"","20631.08999999985","html-button-response","149","1224767","0.0-17.0-1.5","51424","","<p>Which tone was played first after the cadence?</p><p>Please respond as quickly and as accurately as possible!</p>","0","","1","new_stimuli/mp3/melody_v5_^6+_^7_^1_5_.mp3"
"","1338.7950000001583","html-button-response","150","1226107","0.0-17.0-2.5","51424","","<p>Which tone was played second after the cadence?</p><p>Please respond as quickly and as accurately as possible!</p>","2","","2","new_stimuli/mp3/melody_v5_^6+_^7_^1_5_.mp3"
"","667.5100000000093","html-button-response","151","1226776","0.0-17.0-3.5","51424","","<p>Which tone was played third after the cadence?</p><p>Please respond as quickly and as accurately as possible!</p>","3","","3","new_stimuli/mp3/melody_v5_^6+_^7_^1_5_.mp3"
"","750.9300000001676","html-button-response","152","1227528","0.0-17.0-4.5","51424","","<p>Which tone was played fourth after the cadence?</p><p>Please respond as quickly and as accurately as possible!</p>","5","","4","new_stimuli/mp3/melody_v5_^6+_^7_^1_5_.mp3"
"","888.6500000001397","html-button-response","153","1228418","0.0-17.0-5.5","51424","","<p>Which tone was played fifth after the cadence?</p><p>Please respond as quickly and as accurately as possible!</p>","0","","5","new_stimuli/mp3/melody_v5_^6+_^7_^1_5_.mp3"
"","null","audio-keyboard-response","154","1238999","0.0-17.0-0.6","51424","","new_stimuli/mp3/melody_v2_2_^3_^4_v2_.mp3","","null","",""
"","8921.48999999999","html-button-response","155","1247922","0.0-17.0-1.6","51424","","<p>Which tone was played first after the cadence?</p><p>Please respond as quickly and as accurately as possible!</p>","3","","1","new_stimuli/mp3/melody_v2_2_^3_^4_v2_.mp3"
"","227.53000000026077","html-button-response","156","1248150","0.0-17.0-2.6","51424","","<p>Which tone was played second after the cadence?</p><p>Please respond as quickly and as accurately as possible!</p>","3","","2","new_stimuli/mp3/melody_v2_2_^3_^4_v2_.mp3"
"","901.1499999999069","html-button-response","157","1249053","0.0-17.0-3.6","51424","","<p>Which tone was played third after the cadence?</p><p>Please respond as quickly and as accurately as possible!</p>","5","","3","new_stimuli/mp3/melody_v2_2_^3_^4_v2_.mp3"
"","1297.4749999998603","html-button-response","158","1250352","0.0-17.0-4.6","51424","","<p>Which tone was played fourth after the cadence?</p><p>Please respond as quickly and as accurately as possible!</p>","7","","4","new_stimuli/mp3/melody_v2_2_^3_^4_v2_.mp3"
"","794.7600000000093","html-button-response","159","1251148","0.0-17.0-5.6","51424","","<p>Which tone was played fifth after the cadence?</p><p>Please respond as quickly and as accurately as possible!</p>","3","","5","new_stimuli/mp3/melody_v2_2_^3_^4_v2_.mp3"
"","null","audio-keyboard-response","160","1261731","0.0-17.0-0.7","51424","","new_stimuli/mp3/melody_v5_v4_v3_v2_v1 _buffer.mp3","","null","",""
"","3449.7800000002608","html-button-response","161","1265183","0.0-17.0-1.7","51424","","<p>Which tone was played first after the cadence?</p><p>Please respond as quickly and as accurately as possible!</p>","7","","1","new_stimuli/mp3/melody_v5_v4_v3_v2_v1 _buffer.mp3"
"","724.679999999702","html-button-response","162","1265909","0.0-17.0-2.7","51424","","<p>Which tone was played second after the cadence?</p><p>Please respond as quickly and as accurately as possible!</p>","5","","2","new_stimuli/mp3/melody_v5_v4_v3_v2_v1 _buffer.mp3"
"","866.9250000002794","html-button-response","163","1266778","0.0-17.0-3.7","51424","","<p>Which tone was played third after the cadence?</p><p>Please respond as quickly and as accurately as possible!</p>","3","","3","new_stimuli/mp3/melody_v5_v4_v3_v2_v1 _buffer.mp3"
"","431.76499999989755","html-button-response","164","1267211","0.0-17.0-4.7","51424","","<p>Which tone was played fourth after the cadence?</p><p>Please respond as quickly and as accurately as possible!</p>","2","","4","new_stimuli/mp3/melody_v5_v4_v3_v2_v1 _buffer.mp3"
"","485.9799999999814","html-button-response","165","1267698","0.0-17.0-5.7","51424","","<p>Which tone was played fifth after the cadence?</p><p>Please respond as quickly and as accurately as possible!</p>","0","","5","new_stimuli/mp3/melody_v5_v4_v3_v2_v1 _buffer.mp3"
"[{""page_index"":0,""viewing_time"":3925.0900000003166},{""page_index"":1,""viewing_time"":1910.4599999999627},{""page_index"":2,""viewing_time"":1175.7250000000931}]","7011.490000000456","instructions","166","1274710","0.0-18.0","51424","","","","","",""
"","null","audio-keyboard-response","167","1286385","0.0-19.0-0.0","51424","","new_stimuli/mp3/melody_^4_v6-_v5-_^6-_^4_v2-_2-_.mp3","","null","",""
"","5964.409999999916","html-button-response","168","1292351","0.0-19.0-1.0","51424","","<p>Which tone was played first after the cadence?</p><p>Please respond as quickly and as accurately as possible!</p>","2","","1","new_stimuli/mp3/melody_^4_v6-_v5-_^6-_^4_v2-_2-_.mp3"
"","1257.9650000003166","html-button-response","169","1293611","0.0-19.0-2.0","51424","","<p>Which tone was played second after the cadence?</p><p>Please respond as quickly and as accurately as possible!</p>","5","","2","new_stimuli/mp3/melody_^4_v6-_v5-_^6-_^4_v2-_2-_.mp3"
"","715.4300000001676","html-button-response","170","1294327","0.0-19.0-3.0","51424","","<p>Which tone was played third after the cadence?</p><p>Please respond as quickly and as accurately as possible!</p>","4","","3","new_stimuli/mp3/melody_^4_v6-_v5-_^6-_^4_v2-_2-_.mp3"
"","1322.3999999999069","html-button-response","171","1295651","0.0-19.0-4.0","51424","","<p>Which tone was played fourth after the cadence?</p><p>Please respond as quickly and as accurately as possible!</p>","5","","4","new_stimuli/mp3/melody_^4_v6-_v5-_^6-_^4_v2-_2-_.mp3"
"","2044.9300000001676","html-button-response","172","1297697","0.0-19.0-5.0","51424","","<p>Which tone was played fifth after the cadence?</p><p>Please respond as quickly and as accurately as possible!</p>","2","","5","new_stimuli/mp3/melody_^4_v6-_v5-_^6-_^4_v2-_2-_.mp3"
"","2442.344999999972","html-button-response","173","1300141","0.0-19.0-6.0","51424","","<p>Which tone was played sixth after the cadence?</p><p>Please respond as quickly and as accurately as possible!</p>","0","","6","new_stimuli/mp3/melody_^4_v6-_v5-_^6-_^4_v2-_2-_.mp3"
"","802.3050000001676","html-button-response","174","1300944","0.0-19.0-7.0","51424","","<p>Which tone was played seventh after the cadence?</p><p>Please respond as quickly and as accurately as possible!</p>","0","","7","new_stimuli/mp3/melody_^4_v6-_v5-_^6-_^4_v2-_2-_.mp3"
"","null","audio-keyboard-response","175","1312908","0.0-19.0-0.1","51424","","new_stimuli/mp3/melody_1_^3_v1_^5_v3_v2_^3_.mp3","","null","",""
"","10258.940000000177","html-button-response","176","1323169","0.0-19.0-1.1","51424","","<p>Which tone was played first after the cadence?</p><p>Please respond as quickly and as accurately as possible!</p>","0","","1","new_stimuli/mp3/melody_1_^3_v1_^5_v3_v2_^3_.mp3"
"","986.2950000001583","html-button-response","177","1324156","0.0-19.0-2.1","51424","","<p>Which tone was played second after the cadence?</p><p>Please respond as quickly and as accurately as possible!</p>","4","","2","new_stimuli/mp3/melody_1_^3_v1_^5_v3_v2_^3_.mp3"
"","953.9049999997951","html-button-response","178","1325111","0.0-19.0-3.1","51424","","<p>Which tone was played third after the cadence?</p><p>Please respond as quickly and as accurately as possible!</p>","0","","3","new_stimuli/mp3/melody_1_^3_v1_^5_v3_v2_^3_.mp3"
"","1061.3649999999907","html-button-response","179","1326174","0.0-19.0-4.1","51424","","<p>Which tone was played fourth after the cadence?</p><p>Please respond as quickly and as accurately as possible!</p>","5","","4","new_stimuli/mp3/melody_1_^3_v1_^5_v3_v2_^3_.mp3"
"","602.8049999999348","html-button-response","180","1326778","0.0-19.0-5.1","51424","","<p>Which tone was played fifth after the cadence?</p><p>Please respond as quickly and as accurately as possible!</p>","4","","5","new_stimuli/mp3/melody_1_^3_v1_^5_v3_v2_^3_.mp3"
"","808.3950000000186","html-button-response","181","1327587","0.0-19.0-6.1","51424","","<p>Which tone was played sixth after the cadence?</p><p>Please respond as quickly and as accurately as possible!</p>","0","","6","new_stimuli/mp3/melody_1_^3_v1_^5_v3_v2_^3_.mp3"
"","594.4650000000838","html-button-response","182","1328183","0.0-19.0-7.1","51424","","<p>Which tone was played seventh after the cadence?</p><p>Please respond as quickly and as accurately as possible!</p>","2","","7","new_stimuli/mp3/melody_1_^3_v1_^5_v3_v2_^3_.mp3"
"","null","audio-keyboard-response","183","1339885","0.0-19.0-0.2","51424","","new_stimuli/mp3/melody_^1_v7_v6_v5_v4_v3_v2_buffer.mp3","","null","",""
"","978.7649999998976","html-button-response","184","1340865","0.0-19.0-1.2","51424","","<p>Which tone was played first after the cadence?</p><p>Please respond as quickly and as accurately as possible!</p>","12","","1","new_stimuli/mp3/melody_^1_v7_v6_v5_v4_v3_v2_buffer.mp3"
"","761.2700000000186","html-button-response","185","1341628","0.0-19.0-2.2","51424","","<p>Which tone was played second after the cadence?</p><p>Please respond as quickly and as accurately as possible!</p>","11","","2","new_stimuli/mp3/melody_^1_v7_v6_v5_v4_v3_v2_buffer.mp3"
"","909.0050000001211","html-button-response","186","1342538","0.0-19.0-3.2","51424","","<p>Which tone was played third after the cadence?</p><p>Please respond as quickly and as accurately as possible!</p>","9","","3","new_stimuli/mp3/melody_^1_v7_v6_v5_v4_v3_v2_buffer.mp3"
"","806.3900000001304","html-button-response","187","1343346","0.0-19.0-4.2","51424","","<p>Which tone was played fourth after the cadence?</p><p>Please respond as quickly and as accurately as possible!</p>","7","","4","new_stimuli/mp3/melody_^1_v7_v6_v5_v4_v3_v2_buffer.mp3"
"","995.2900000002701","html-button-response","188","1344343","0.0-19.0-5.2","51424","","<p>Which tone was played fifth after the cadence?</p><p>Please respond as quickly and as accurately as possible!</p>","5","","5","new_stimuli/mp3/melody_^1_v7_v6_v5_v4_v3_v2_buffer.mp3"
"","538.4049999997951","html-button-response","189","1344883","0.0-19.0-6.2","51424","","<p>Which tone was played sixth after the cadence?</p><p>Please respond as quickly and as accurately as possible!</p>","4","","6","new_stimuli/mp3/melody_^1_v7_v6_v5_v4_v3_v2_buffer.mp3"
"","708.855000000447","html-button-response","190","1345593","0.0-19.0-7.2","51424","","<p>Which tone was played seventh after the cadence?</p><p>Please respond as quickly and as accurately as possible!</p>","2","","7","new_stimuli/mp3/melody_^1_v7_v6_v5_v4_v3_v2_buffer.mp3"
"","null","audio-keyboard-response","191","1357294","0.0-19.0-0.3","51424","","new_stimuli/mp3/melody_v1_^2_v1_v7_^1_^3_v2_.mp3","","null","",""
"","1865.8799999996554","html-button-response","192","1359161","0.0-19.0-1.3","51424","","<p>Which tone was played first after the cadence?</p><p>Please respond as quickly and as accurately as possible!</p>","0","","1","new_stimuli/mp3/melody_v1_^2_v1_v7_^1_^3_v2_.mp3"
"","592.3150000004098","html-button-response","193","1359755","0.0-19.0-2.3","51424","","<p>Which tone was played second after the cadence?</p><p>Please respond as quickly and as accurately as possible!</p>","2","","2","new_stimuli/mp3/melody_v1_^2_v1_v7_^1_^3_v2_.mp3"
"","570.6800000004005","html-button-response","194","1360327","0.0-19.0-3.3","51424","","<p>Which tone was played third after the cadence?</p><p>Please respond as quickly and as accurately as possible!</p>","0","","3","new_stimuli/mp3/melody_v1_^2_v1_v7_^1_^3_v2_.mp3"
"","1704.1850000000559","html-button-response","195","1362033","0.0-19.0-4.3","51424","","<p>Which tone was played fourth after the cadence?</p><p>Please respond as quickly and as accurately as possible!</p>","11","","4","new_stimuli/mp3/melody_v1_^2_v1_v7_^1_^3_v2_.mp3"
"","2438.33499999973","html-button-response","196","1364474","0.0-19.0-5.3","51424","","<p>Which tone was played fifth after the cadence?</p><p>Please respond as quickly and as accurately as possible!</p>","0","","5","new_stimuli/mp3/melody_v1_^2_v1_v7_^1_^3_v2_.mp3"
"","4489.324999999953","html-button-response","197","1368964","0.0-19.0-6.3","51424","","<p>Which tone was played sixth after the cadence?</p><p>Please respond as quickly and as accurately as possible!</p>","5","","6","new_stimuli/mp3/melody_v1_^2_v1_v7_^1_^3_v2_.mp3"
"","735.0100000002421","html-button-response","198","1369701","0.0-19.0-7.3","51424","","<p>Which tone was played seventh after the cadence?</p><p>Please respond as quickly and as accurately as possible!</p>","3","","7","new_stimuli/mp3/melody_v1_^2_v1_v7_^1_^3_v2_.mp3"
"","null","audio-keyboard-response","199","1381402","0.0-19.0-0.4","51424","","new_stimuli/mp3/melody_^4_^5_^6_v5_v4_v3_v2_.mp3","","null","",""
"","917.3100000002887","html-button-response","200","1382321","0.0-19.0-1.4","51424","","<p>Which tone was played first after the cadence?</p><p>Please respond as quickly and as accurately as possible!</p>","0","","1","new_stimuli/mp3/melody_^4_^5_^6_v5_v4_v3_v2_.mp3"
"","504.68000000016764","html-button-response","201","1382827","0.0-19.0-2.4","51424","","<p>Which tone was played second after the cadence?</p><p>Please respond as quickly and as accurately as possible!</p>","2","","2","new_stimuli/mp3/melody_^4_^5_^6_v5_v4_v3_v2_.mp3"
"","615.1799999999348","html-button-response","202","1383444","0.0-19.0-3.4","51424","","<p>Which tone was played third after the cadence?</p><p>Please respond as quickly and as accurately as possible!</p>","4","","3","new_stimuli/mp3/melody_^4_^5_^6_v5_v4_v3_v2_.mp3"
"","541.3249999997206","html-button-response","203","1383986","0.0-19.0-4.4","51424","","<p>Which tone was played fourth after the cadence?</p><p>Please respond as quickly and as accurately as possible!</p>","2","","4","new_stimuli/mp3/melody_^4_^5_^6_v5_v4_v3_v2_.mp3"
"","725.1349999997765","html-button-response","204","1384712","0.0-19.0-5.4","51424","","<p>Which tone was played fifth after the cadence?</p><p>Please respond as quickly and as accurately as possible!</p>","0","","5","new_stimuli/mp3/melody_^4_^5_^6_v5_v4_v3_v2_.mp3"
"","898.2900000000373","html-button-response","205","1385612","0.0-19.0-6.4","51424","","<p>Which tone was played sixth after the cadence?</p><p>Please respond as quickly and as accurately as possible!</p>","11","","6","new_stimuli/mp3/melody_^4_^5_^6_v5_v4_v3_v2_.mp3"
"","602.785000000149","html-button-response","206","1386216","0.0-19.0-7.4","51424","","<p>Which tone was played seventh after the cadence?</p><p>Please respond as quickly and as accurately as possible!</p>","9","","7","new_stimuli/mp3/melody_^4_^5_^6_v5_v4_v3_v2_.mp3"
"","null","audio-keyboard-response","207","1397865","0.0-19.0-0.5","51424","","new_stimuli/mp3/melody_^6_v5+_v4_^5+_v3_v1_v7-_.mp3","","null","",""
"","2126.6700000001583","html-button-response","208","1399994","0.0-19.0-1.5","51424","","<p>Which tone was played first after the cadence?</p><p>Please respond as quickly and as accurately as possible!</p>","12","","1","new_stimuli/mp3/melody_^6_v5+_v4_^5+_v3_v1_v7-_.mp3"
"","772.0850000001956","html-button-response","209","1400767","0.0-19.0-2.5","51424","","<p>Which tone was played second after the cadence?</p><p>Please respond as quickly and as accurately as possible!</p>","11","","2","new_stimuli/mp3/melody_^6_v5+_v4_^5+_v3_v1_v7-_.mp3"
"","2428.5500000000466","html-button-response","210","1403197","0.0-19.0-3.5","51424","","<p>Which tone was played third after the cadence?</p><p>Please respond as quickly and as accurately as possible!</p>","8","","3","new_stimuli/mp3/melody_^6_v5+_v4_^5+_v3_v1_v7-_.mp3"
"","5776.955000000307","html-button-response","211","1408976","0.0-19.0-4.5","51424","","<p>Which tone was played fourth after the cadence?</p><p>Please respond as quickly and as accurately as possible!</p>","11","","4","new_stimuli/mp3/melody_^6_v5+_v4_^5+_v3_v1_v7-_.mp3"
"","6565.879999999655","html-button-response","212","1415543","0.0-19.0-5.5","51424","","<p>Which tone was played fifth after the cadence?</p><p>Please respond as quickly and as accurately as possible!</p>","5","","5","new_stimuli/mp3/melody_^6_v5+_v4_^5+_v3_v1_v7-_.mp3"
"","1265.5549999999348","html-button-response","213","1416810","0.0-19.0-6.5","51424","","<p>Which tone was played sixth after the cadence?</p><p>Please respond as quickly and as accurately as possible!</p>","3","","6","new_stimuli/mp3/melody_^6_v5+_v4_^5+_v3_v1_v7-_.mp3"
"","838.6800000001676","html-button-response","214","1417650","0.0-19.0-7.5","51424","","<p>Which tone was played seventh after the cadence?</p><p>Please respond as quickly and as accurately as possible!</p>","2","","7","new_stimuli/mp3/melody_^6_v5+_v4_^5+_v3_v1_v7-_.mp3"
"","null","audio-keyboard-response","215","1429224","0.0-19.0-0.6","51424","","new_stimuli/mp3/melody_^5_^6_v5_v4_v3_v2_v1_buffer.mp3","","null","",""
"","1288.5999999998603","html-button-response","216","1430514","0.0-19.0-1.6","51424","","<p>Which tone was played first after the cadence?</p><p>Please respond as quickly and as accurately as possible!</p>","0","","1","new_stimuli/mp3/melody_^5_^6_v5_v4_v3_v2_v1_buffer.mp3"
"","578.1349999997765","html-button-response","217","1431093","0.0-19.0-2.6","51424","","<p>Which tone was played second after the cadence?</p><p>Please respond as quickly and as accurately as possible!</p>","2","","2","new_stimuli/mp3/melody_^5_^6_v5_v4_v3_v2_v1_buffer.mp3"
"","553.2199999997392","html-button-response","218","1431648","0.0-19.0-3.6","51424","","<p>Which tone was played third after the cadence?</p><p>Please respond as quickly and as accurately as possible!</p>","0","","3","new_stimuli/mp3/melody_^5_^6_v5_v4_v3_v2_v1_buffer.mp3"
"","1580.785000000149","html-button-response","219","1433231","0.0-19.0-4.6","51424","","<p>Which tone was played fourth after the cadence?</p><p>Please respond as quickly and as accurately as possible!</p>","11","","4","new_stimuli/mp3/melody_^5_^6_v5_v4_v3_v2_v1_buffer.mp3"
"","812.3949999997858","html-button-response","220","1434045","0.0-19.0-5.6","51424","","<p>Which tone was played fifth after the cadence?</p><p>Please respond as quickly and as accurately as possible!</p>","9","","5","new_stimuli/mp3/melody_^5_^6_v5_v4_v3_v2_v1_buffer.mp3"
"","597.1999999997206","html-button-response","221","1434643","0.0-19.0-6.6","51424","","<p>Which tone was played sixth after the cadence?</p><p>Please respond as quickly and as accurately as possible!</p>","7","","6","new_stimuli/mp3/melody_^5_^6_v5_v4_v3_v2_v1_buffer.mp3"
"","574.225000000326","html-button-response","222","1435219","0.0-19.0-7.6","51424","","<p>Which tone was played seventh after the cadence?</p><p>Please respond as quickly and as accurately as possible!</p>","5","","7","new_stimuli/mp3/melody_^5_^6_v5_v4_v3_v2_v1_buffer.mp3"
"[{""page_index"":0,""viewing_time"":3119.2649999996647},{""page_index"":1,""viewing_time"":1775.1450000000186},{""page_index"":2,""viewing_time"":2438.8250000001863}]","7333.415000000037","instructions","223","1442553","0.0-20.0","51424","","","","","",""
"","null","audio-keyboard-response","224","1455196","0.0-21.0-0.0","51424","","new_stimuli/mp3/melody_^3_^4_v2_v7_^1_^2_^3_3_^4_.mp3","","null","",""
"","1367.4799999999814","html-button-response","225","1456565","0.0-21.0-1.0","51424","","<p>Which tone was played first after the cadence?</p><p>Please respond as quickly and as accurately as possible!</p>","0","","1","new_stimuli/mp3/melody_^3_^4_v2_v7_^1_^2_^3_3_^4_.mp3"
"","852.5050000003539","html-button-response","226","1457419","0.0-21.0-2.0","51424","","<p>Which tone was played second after the cadence?</p><p>Please respond as quickly and as accurately as possible!</p>","3","","2","new_stimuli/mp3/melody_^3_^4_v2_v7_^1_^2_^3_3_^4_.mp3"
"","675.75","html-button-response","227","1458096","0.0-21.0-3.0","51424","","<p>Which tone was played third after the cadence?</p><p>Please respond as quickly and as accurately as possible!</p>","2","","3","new_stimuli/mp3/melody_^3_^4_v2_v7_^1_^2_^3_3_^4_.mp3"
"","668.649999999674","html-button-response","228","1458766","0.0-21.0-4.0","51424","","<p>Which tone was played fourth after the cadence?</p><p>Please respond as quickly and as accurately as possible!</p>","0","","4","new_stimuli/mp3/melody_^3_^4_v2_v7_^1_^2_^3_3_^4_.mp3"
"","2131.0099999995437","html-button-response","229","1460898","0.0-21.0-5.0","51424","","<p>Which tone was played fifth after the cadence?</p><p>Please respond as quickly and as accurately as possible!</p>","11","","5","new_stimuli/mp3/melody_^3_^4_v2_v7_^1_^2_^3_3_^4_.mp3"
"","1410.8200000000652","html-button-response","230","1462310","0.0-21.0-6.0","51424","","<p>Which tone was played sixth after the cadence?</p><p>Please respond as quickly and as accurately as possible!</p>","12","","6","new_stimuli/mp3/melody_^3_^4_v2_v7_^1_^2_^3_3_^4_.mp3"
"","1759.3999999999069","html-button-response","231","1464071","0.0-21.0-7.0","51424","","<p>Which tone was played seventh after the cadence?</p><p>Please respond as quickly and as accurately as possible!</p>","2","","7","new_stimuli/mp3/melody_^3_^4_v2_v7_^1_^2_^3_3_^4_.mp3"
"","4508.75","html-button-response","232","1468581","0.0-21.0-8.0","51424","","<p>Which tone was played eight after the cadence?</p><p>Please respond as quickly and as accurately as possible!</p>","2","","8","new_stimuli/mp3/melody_^3_^4_v2_v7_^1_^2_^3_3_^4_.mp3"
"","599.8149999999441","html-button-response","233","1469182","0.0-21.0-9.0","51424","","<p>Which tone was played nineth after the cadence?</p><p>Please respond as quickly and as accurately as possible!</p>","5","","9","new_stimuli/mp3/melody_^3_^4_v2_v7_^1_^2_^3_3_^4_.mp3"
"","null","audio-keyboard-response","234","1481824","0.0-21.0-0.1","51424","","new_stimuli/mp3/melody_v5_v4_v6+_^7_^3+_v3_v2_v5_^4_.mp3","","null","",""
"","1468.8500000000931","html-button-response","235","1483294","0.0-21.0-1.1","51424","","<p>Which tone was played first after the cadence?</p><p>Please respond as quickly and as accurately as possible!</p>","12","","1","new_stimuli/mp3/melody_v5_v4_v6+_^7_^3+_v3_v2_v5_^4_.mp3"
"","587.7949999999255","html-button-response","236","1483883","0.0-21.0-2.1","51424","","<p>Which tone was played second after the cadence?</p><p>Please respond as quickly and as accurately as possible!</p>","11","","2","new_stimuli/mp3/melody_v5_v4_v6+_^7_^3+_v3_v2_v5_^4_.mp3"
"","1013.089999999851","html-button-response","237","1484898","0.0-21.0-3.1","51424","","<p>Which tone was played third after the cadence?</p><p>Please respond as quickly and as accurately as possible!</p>","5","","3","new_stimuli/mp3/melody_v5_v4_v6+_^7_^3+_v3_v2_v5_^4_.mp3"
"","649.4949999996461","html-button-response","238","1485548","0.0-21.0-4.1","51424","","<p>Which tone was played fourth after the cadence?</p><p>Please respond as quickly and as accurately as possible!</p>","4","","4","new_stimuli/mp3/melody_v5_v4_v6+_^7_^3+_v3_v2_v5_^4_.mp3"
"","1771.2250000000931","html-button-response","239","1487321","0.0-21.0-5.1","51424","","<p>Which tone was played fifth after the cadence?</p><p>Please respond as quickly and as accurately as possible!</p>","9","","5","new_stimuli/mp3/melody_v5_v4_v6+_^7_^3+_v3_v2_v5_^4_.mp3"
"","904.8900000001304","html-button-response","240","1488227","0.0-21.0-6.1","51424","","<p>Which tone was played sixth after the cadence?</p><p>Please respond as quickly and as accurately as possible!</p>","7","","6","new_stimuli/mp3/melody_v5_v4_v6+_^7_^3+_v3_v2_v5_^4_.mp3"
"","2246.4000000001397","html-button-response","241","1490475","0.0-21.0-7.1","51424","","<p>Which tone was played seventh after the cadence?</p><p>Please respond as quickly and as accurately as possible!</p>","4","","7","new_stimuli/mp3/melody_v5_v4_v6+_^7_^3+_v3_v2_v5_^4_.mp3"
"","2464.350000000093","html-button-response","242","1492940","0.0-21.0-8.1","51424","","<p>Which tone was played eight after the cadence?</p><p>Please respond as quickly and as accurately as possible!</p>","5","","8","new_stimuli/mp3/melody_v5_v4_v6+_^7_^3+_v3_v2_v5_^4_.mp3"
"","2539.1200000003446","html-button-response","243","1495480","0.0-21.0-9.1","51424","","<p>Which tone was played nineth after the cadence?</p><p>Please respond as quickly and as accurately as possible!</p>","5","","9","new_stimuli/mp3/melody_v5_v4_v6+_^7_^3+_v3_v2_v5_^4_.mp3"
"","null","audio-keyboard-response","244","1508120","0.0-21.0-0.2","51424","","new_stimuli/mp3/melody_v7_v6_v5_^6_v5_v4_^5_^6_v5_.mp3","","null","",""
"","2040.2299999999814","html-button-response","245","1510162","0.0-21.0-1.2","51424","","<p>Which tone was played first after the cadence?</p><p>Please respond as quickly and as accurately as possible!</p>","4","","1","new_stimuli/mp3/melody_v7_v6_v5_^6_v5_v4_^5_^6_v5_.mp3"
"","562.5299999995623","html-button-response","246","1510726","0.0-21.0-2.2","51424","","<p>Which tone was played second after the cadence?</p><p>Please respond as quickly and as accurately as possible!</p>","2","","2","new_stimuli/mp3/melody_v7_v6_v5_^6_v5_v4_^5_^6_v5_.mp3"
"","699.1899999999441","html-button-response","247","1511427","0.0-21.0-3.2","51424","","<p>Which tone was played third after the cadence?</p><p>Please respond as quickly and as accurately as possible!</p>","0","","3","new_stimuli/mp3/melody_v7_v6_v5_^6_v5_v4_^5_^6_v5_.mp3"
"","4820.659999999683","html-button-response","248","1516249","0.0-21.0-4.2","51424","","<p>Which tone was played fourth after the cadence?</p><p>Please respond as quickly and as accurately as possible!</p>","4","","4","new_stimuli/mp3/melody_v7_v6_v5_^6_v5_v4_^5_^6_v5_.mp3"
"","520.2600000002421","html-button-response","249","1516771","0.0-21.0-5.2","51424","","<p>Which tone was played fifth after the cadence?</p><p>Please respond as quickly and as accurately as possible!</p>","2","","5","new_stimuli/mp3/melody_v7_v6_v5_^6_v5_v4_^5_^6_v5_.mp3"
"","683.7749999999069","html-button-response","250","1517456","0.0-21.0-6.2","51424","","<p>Which tone was played sixth after the cadence?</p><p>Please respond as quickly and as accurately as possible!</p>","0","","6","new_stimuli/mp3/melody_v7_v6_v5_^6_v5_v4_^5_^6_v5_.mp3"
"","1335.6899999999441","html-button-response","251","1518793","0.0-21.0-7.2","51424","","<p>Which tone was played seventh after the cadence?</p><p>Please respond as quickly and as accurately as possible!</p>","11","","7","new_stimuli/mp3/melody_v7_v6_v5_^6_v5_v4_^5_^6_v5_.mp3"
"","1773.714999999851","html-button-response","252","1520568","0.0-21.0-8.2","51424","","<p>Which tone was played eight after the cadence?</p><p>Please respond as quickly and as accurately as possible!</p>","9","","8","new_stimuli/mp3/melody_v7_v6_v5_^6_v5_v4_^5_^6_v5_.mp3"
"","1305.2699999997858","html-button-response","253","1521875","0.0-21.0-9.2","51424","","<p>Which tone was played nineth after the cadence?</p><p>Please respond as quickly and as accurately as possible!</p>","11","","9","new_stimuli/mp3/melody_v7_v6_v5_^6_v5_v4_^5_^6_v5_.mp3"
"","null","audio-keyboard-response","254","1534441","0.0-21.0-0.3","51424","","new_stimuli/mp3/melody_^3_^4_^5 _^6_v5_v4_v3_v2_v1_.mp3","","null","",""
"","951.3449999999721","html-button-response","255","1535393","0.0-21.0-1.3","51424","","<p>Which tone was played first after the cadence?</p><p>Please respond as quickly and as accurately as possible!</p>","0","","1","new_stimuli/mp3/melody_^3_^4_^5 _^6_v5_v4_v3_v2_v1_.mp3"
"","480.1450000000186","html-button-response","256","1535875","0.0-21.0-2.3","51424","","<p>Which tone was played second after the cadence?</p><p>Please respond as quickly and as accurately as possible!</p>","2","","2","new_stimuli/mp3/melody_^3_^4_^5 _^6_v5_v4_v3_v2_v1_.mp3"
"","633.8800000001211","html-button-response","257","1536510","0.0-21.0-3.3","51424","","<p>Which tone was played third after the cadence?</p><p>Please respond as quickly and as accurately as possible!</p>","4","","3","new_stimuli/mp3/melody_^3_^4_^5 _^6_v5_v4_v3_v2_v1_.mp3"
"","654.3950000000186","html-button-response","258","1537166","0.0-21.0-4.3","51424","","<p>Which tone was played fourth after the cadence?</p><p>Please respond as quickly and as accurately as possible!</p>","6","","4","new_stimuli/mp3/melody_^3_^4_^5 _^6_v5_v4_v3_v2_v1_.mp3"
"","1192.690000000177","html-button-response","259","1538360","0.0-21.0-5.3","51424","","<p>Which tone was played fifth after the cadence?</p><p>Please respond as quickly and as accurately as possible!</p>","4","","5","new_stimuli/mp3/melody_^3_^4_^5 _^6_v5_v4_v3_v2_v1_.mp3"
"","608.9149999998044","html-button-response","260","1538970","0.0-21.0-6.3","51424","","<p>Which tone was played sixth after the cadence?</p><p>Please respond as quickly and as accurately as possible!</p>","2","","6","new_stimuli/mp3/melody_^3_^4_^5 _^6_v5_v4_v3_v2_v1_.mp3"
"","619.3450000002049","html-button-response","261","1539591","0.0-21.0-7.3","51424","","<p>Which tone was played seventh after the cadence?</p><p>Please respond as quickly and as accurately as possible!</p>","0","","7","new_stimuli/mp3/melody_^3_^4_^5 _^6_v5_v4_v3_v2_v1_.mp3"
"","1444.4899999997579","html-button-response","262","1541036","0.0-21.0-8.3","51424","","<p>Which tone was played eight after the cadence?</p><p>Please respond as quickly and as accurately as possible!</p>","11","","8","new_stimuli/mp3/melody_^3_^4_^5 _^6_v5_v4_v3_v2_v1_.mp3"
"","431.95000000018626","html-button-response","263","1541470","0.0-21.0-9.3","51424","","<p>Which tone was played nineth after the cadence?</p><p>Please respond as quickly and as accurately as possible!</p>","9","","9","new_stimuli/mp3/melody_^3_^4_^5 _^6_v5_v4_v3_v2_v1_.mp3"
"","null","audio-keyboard-response","264","1554427","0.0-21.0-0.4","51424","","new_stimuli/mp3/melody_^5_^6_v5_v4_v3_v2_v1_^2_^3_buffer.mp3","","null","",""
"","6179.475000000093","html-button-response","265","1560608","0.0-21.0-1.4","51424","","<p>Which tone was played first after the cadence?</p><p>Please respond as quickly and as accurately as possible!</p>","0","","1","new_stimuli/mp3/melody_^5_^6_v5_v4_v3_v2_v1_^2_^3_buffer.mp3"
"","2632.8499999998603","html-button-response","266","1563243","0.0-21.0-2.4","51424","","<p>Which tone was played second after the cadence?</p><p>Please respond as quickly and as accurately as possible!</p>","4","","2","new_stimuli/mp3/melody_^5_^6_v5_v4_v3_v2_v1_^2_^3_buffer.mp3"
"","565.4799999997485","html-button-response","267","1563810","0.0-21.0-3.4","51424","","<p>Which tone was played third after the cadence?</p><p>Please respond as quickly and as accurately as possible!</p>","2","","3","new_stimuli/mp3/melody_^5_^6_v5_v4_v3_v2_v1_^2_^3_buffer.mp3"
"","580.1949999998324","html-button-response","268","1564391","0.0-21.0-4.4","51424","","<p>Which tone was played fourth after the cadence?</p><p>Please respond as quickly and as accurately as possible!</p>","0","","4","new_stimuli/mp3/melody_^5_^6_v5_v4_v3_v2_v1_^2_^3_buffer.mp3"
"","977.8449999999721","html-button-response","269","1565370","0.0-21.0-5.4","51424","","<p>Which tone was played fifth after the cadence?</p><p>Please respond as quickly and as accurately as possible!</p>","11","","5","new_stimuli/mp3/melody_^5_^6_v5_v4_v3_v2_v1_^2_^3_buffer.mp3"
"","1068.5149999998976","html-button-response","270","1566440","0.0-21.0-6.4","51424","","<p>Which tone was played sixth after the cadence?</p><p>Please respond as quickly and as accurately as possible!</p>","9","","6","new_stimuli/mp3/melody_^5_^6_v5_v4_v3_v2_v1_^2_^3_buffer.mp3"
"","8412.179999999702","html-button-response","271","1574853","0.0-21.0-7.4","51424","","<p>Which tone was played seventh after the cadence?</p><p>Please respond as quickly and as accurately as possible!</p>","5","","7","new_stimuli/mp3/melody_^5_^6_v5_v4_v3_v2_v1_^2_^3_buffer.mp3"
"","585.1850000002887","html-button-response","272","1575440","0.0-21.0-8.4","51424","","<p>Which tone was played eight after the cadence?</p><p>Please respond as quickly and as accurately as possible!</p>","7","","8","new_stimuli/mp3/melody_^5_^6_v5_v4_v3_v2_v1_^2_^3_buffer.mp3"
"","889.5600000000559","html-button-response","273","1576331","0.0-21.0-9.4","51424","","<p>Which tone was played nineth after the cadence?</p><p>Please respond as quickly and as accurately as possible!</p>","9","","9","new_stimuli/mp3/melody_^5_^6_v5_v4_v3_v2_v1_^2_^3_buffer.mp3"
"","null","audio-keyboard-response","274","1589025","0.0-21.0-0.5","51424","","new_stimuli/mp3/melody_^2_^3_^4_^5_^6_v5_v4_v3_v2_buffer.mp3","","null","",""
"","948.6400000001304","html-button-response","275","1589975","0.0-21.0-1.5","51424","","<p>Which tone was played first after the cadence?</p><p>Please respond as quickly and as accurately as possible!</p>","0","","1","new_stimuli/mp3/melody_^2_^3_^4_^5_^6_v5_v4_v3_v2_buffer.mp3"
"","571.0549999999348","html-button-response","276","1590548","0.0-21.0-2.5","51424","","<p>Which tone was played second after the cadence?</p><p>Please respond as quickly and as accurately as possible!</p>","2","","2","new_stimuli/mp3/melody_^2_^3_^4_^5_^6_v5_v4_v3_v2_buffer.mp3"
"","969.0749999999534","html-button-response","277","1591519","0.0-21.0-3.5","51424","","<p>Which tone was played third after the cadence?</p><p>Please respond as quickly and as accurately as possible!</p>","3","","3","new_stimuli/mp3/melody_^2_^3_^4_^5_^6_v5_v4_v3_v2_buffer.mp3"
"","872.8549999999814","html-button-response","278","1592393","0.0-21.0-4.5","51424","","<p>Which tone was played fourth after the cadence?</p><p>Please respond as quickly and as accurately as possible!</p>","7","","4","new_stimuli/mp3/melody_^2_^3_^4_^5_^6_v5_v4_v3_v2_buffer.mp3"
"","715.3449999999721","html-button-response","279","1593109","0.0-21.0-5.5","51424","","<p>Which tone was played fifth after the cadence?</p><p>Please respond as quickly and as accurately as possible!</p>","5","","5","new_stimuli/mp3/melody_^2_^3_^4_^5_^6_v5_v4_v3_v2_buffer.mp3"
"","1095.5349999999162","html-button-response","280","1594206","0.0-21.0-6.5","51424","","<p>Which tone was played sixth after the cadence?</p><p>Please respond as quickly and as accurately as possible!</p>","3","","6","new_stimuli/mp3/melody_^2_^3_^4_^5_^6_v5_v4_v3_v2_buffer.mp3"
"","1778.4849999998696","html-button-response","281","1595986","0.0-21.0-7.5","51424","","<p>Which tone was played seventh after the cadence?</p><p>Please respond as quickly and as accurately as possible!</p>","2","","7","new_stimuli/mp3/melody_^2_^3_^4_^5_^6_v5_v4_v3_v2_buffer.mp3"
"","1746.5449999999255","html-button-response","282","1597734","0.0-21.0-8.5","51424","","<p>Which tone was played eight after the cadence?</p><p>Please respond as quickly and as accurately as possible!</p>","0","","8","new_stimuli/mp3/melody_^2_^3_^4_^5_^6_v5_v4_v3_v2_buffer.mp3"
"","3299","html-button-response","283","1601034","0.0-21.0-9.5","51424","","<p>Which tone was played nineth after the cadence?</p><p>Please respond as quickly and as accurately as possible!</p>","0","","9","new_stimuli/mp3/melody_^2_^3_^4_^5_^6_v5_v4_v3_v2_buffer.mp3"
"","null","audio-keyboard-response","284","1613964","0.0-21.0-0.6","51424","","new_stimuli/mp3/melody_^2_^4_v3_v2_v1_v3_v2+_^3_^5+_.mp3","","null","",""
"","1599.410000000149","html-button-response","285","1615565","0.0-21.0-1.6","51424","","<p>Which tone was played first after the cadence?</p><p>Please respond as quickly and as accurately as possible!</p>","0","","1","new_stimuli/mp3/melody_^2_^4_v3_v2_v1_v3_v2+_^3_^5+_.mp3"
"","1026.8450000004377","html-button-response","286","1616593","0.0-21.0-2.6","51424","","<p>Which tone was played second after the cadence?</p><p>Please respond as quickly and as accurately as possible!</p>","3","","2","new_stimuli/mp3/melody_^2_^4_v3_v2_v1_v3_v2+_^3_^5+_.mp3"
"","768.1499999999069","html-button-response","287","1617362","0.0-21.0-3.6","51424","","<p>Which tone was played third after the cadence?</p><p>Please respond as quickly and as accurately as possible!</p>","2","","3","new_stimuli/mp3/melody_^2_^4_v3_v2_v1_v3_v2+_^3_^5+_.mp3"
"","1150.4399999999441","html-button-response","288","1618514","0.0-21.0-4.6","51424","","<p>Which tone was played fourth after the cadence?</p><p>Please respond as quickly and as accurately as possible!</p>","0","","4","new_stimuli/mp3/melody_^2_^4_v3_v2_v1_v3_v2+_^3_^5+_.mp3"
"","2047.1699999999255","html-button-response","289","1620563","0.0-21.0-5.6","51424","","<p>Which tone was played fifth after the cadence?</p><p>Please respond as quickly and as accurately as possible!</p>","2","","5","new_stimuli/mp3/melody_^2_^4_v3_v2_v1_v3_v2+_^3_^5+_.mp3"
"","1109.3300000000745","html-button-response","290","1621673","0.0-21.0-6.6","51424","","<p>Which tone was played sixth after the cadence?</p><p>Please respond as quickly and as accurately as possible!</p>","0","","6","new_stimuli/mp3/melody_^2_^4_v3_v2_v1_v3_v2+_^3_^5+_.mp3"
"","2816.844999999972","html-button-response","291","1624491","0.0-21.0-7.6","51424","","<p>Which tone was played seventh after the cadence?</p><p>Please respond as quickly and as accurately as possible!</p>","9","","7","new_stimuli/mp3/melody_^2_^4_v3_v2_v1_v3_v2+_^3_^5+_.mp3"
"","3403.5999999996275","html-button-response","292","1627898","0.0-21.0-8.6","51424","","<p>Which tone was played eight after the cadence?</p><p>Please respond as quickly and as accurately as possible!</p>","0","","8","new_stimuli/mp3/melody_^2_^4_v3_v2_v1_v3_v2+_^3_^5+_.mp3"
"","3169.9150000000373","html-button-response","293","1631069","0.0-21.0-9.6","51424","","<p>Which tone was played nineth after the cadence?</p><p>Please respond as quickly and as accurately as possible!</p>","5","","9","new_stimuli/mp3/melody_^2_^4_v3_v2_v1_v3_v2+_^3_^5+_.mp3"
"","47296.37999999989","survey-text","294","1678367","0.0-22.0","51424","{""Q0"":""Trying to maintain \""Do\"" in my head and comparing the first tone to \""Do.\"" Then tried to identify either recognizable tonal patterns or intervallic relationships.""}","","","","",""
"","45700.74499999988","survey-text","295","1724069","0.0-23.0","51424","{""Q0"":""This was so challenging! I may have accidentally clicked a \""Fi\"" instead of a \""Fa\"" or a similar chromatic alteration a few times.""}","","","","",""
"","34701.50999999978","survey-text","296","1758772","0.0-24.0","51424","{""Q0"":""I tried to vision myself singing these pitches in a sight-singing setting to illuminate what the syllables were.""}","","","","",""
"","6526.35999999987","survey-text","297","1765300","0.0-25.0","51424","{""Q0"":""Computer speakers.""}","","","","",""
"","3338.659999999916","survey-text","298","1768640","0.0-26.0","51424","{""Q0"":""Male""}","","","","",""
"","3811.6200000003446","survey-text","299","1772453","0.0-27.0","51424","{""Q0"":""Yes.""}","","","","",""
"[{""page_index"":0,""viewing_time"":7305.375}]","7305.645000000019","instructions","300","1779760","0.0-28.0","51424","","","","","",""
