"view_history","rt","trial_type","trial_index","time_elapsed","internal_node_id","subject","responses","stimulus","button_pressed","key_press","response_sequence","melody"
"[{""page_index"":0,""viewing_time"":2060.1450000031036},{""page_index"":1,""viewing_time"":17968.560000001162},{""page_index"":2,""viewing_time"":3056.4899999953923}]","23088.159999999334","instructions","0","23116","0.0-0.0","51710","","","","","",""
"","1985.339999999269","survey-text","1","25106","0.0-1.0","51710","{""Q0"":""41""}","","","","",""
"","12664.52500000014","survey-text","2","37773","0.0-2.0","51710","{""Q0"":""No Higher Education""}","","","","",""
"","22763.480000001437","survey-text","3","60538","0.0-3.0","51710","{""Q0"":""Moveable-Do""}","","","","",""
"","3243.8099999999395","survey-text","4","63784","0.0-4.0","51710","{""Q0"":""No""}","","","","",""
"","25444.940000001225","survey-text","5","89232","0.0-5.0","51710","{""Q0"":""""}","","","","",""
"","9735.065000000759","survey-text","6","98970","0.0-6.0","51710","{""Q0"":""0""}","","","","",""
"[{""page_index"":0,""viewing_time"":5245.625000003201},{""page_index"":1,""viewing_time"":12599.699999998847},{""page_index"":2,""viewing_time"":1403.9899999988847}]","19249.930000005406","instructions","7","118222","0.0-7.0","51710","","","","","",""
"","9127.74999999965","audio-button-response","8","127358","0.0-8.0","51710","","stimuli/long/c-do.mp3","0","","",""
"","13250.789999998233","audio-button-response","9","140612","0.0-9.0","51710","","stimuli/long/a-le.mp3","8","","",""
"[{""page_index"":0,""viewing_time"":1617.3699999999371},{""page_index"":1,""viewing_time"":5083.944999998494}]","6702.000000004773","instructions","10","147315","0.0-10.0","51710","","","","","",""
"","10969.579999997222","audio-button-response","11","158290","0.0-11.0-0.0","51710","","stimuli/long/e-me.mp3","0","","",""
"","11344.67500000028","audio-button-response","12","169638","0.0-11.0-0.1","51710","","stimuli/long/a-la.mp3","11","","",""
"","10439.370000000054","audio-button-response","13","180081","0.0-11.0-0.2","51710","","stimuli/long/e-te.mp3","5","","",""
"","9520.555000002787","audio-button-response","14","189607","0.0-11.0-0.3","51710","","stimuli/long/c-re.mp3","0","","",""
"","9376.145000001998","audio-button-response","15","198990","0.0-11.0-0.4","51710","","stimuli/long/c-do8.mp3","12","","",""
"","14506.889999996929","audio-button-response","16","213501","0.0-11.0-0.5","51710","","stimuli/long/c-la.mp3","5","","",""
"","13136.435000000347","audio-button-response","17","226642","0.0-11.0-0.6","51710","","stimuli/long/e-re.mp3","1","","",""
"","13821.635000000242","audio-button-response","18","240469","0.0-11.0-0.7","51710","","stimuli/long/a-fi.mp3","10","","",""
"","14189.930000000459","audio-button-response","19","254664","0.0-11.0-0.8","51710","","stimuli/long/c-fi.mp3","10","","",""
"","9653.940000003786","audio-button-response","20","264327","0.0-11.0-0.9","51710","","stimuli/long/a-te.mp3","0","","",""
"","7035.195000004023","audio-button-response","21","271366","0.0-11.0-0.10","51710","","stimuli/long/c-sol.mp3","0","","",""
"","12184.71000000136","audio-button-response","22","283555","0.0-11.0-0.11","51710","","stimuli/long/c-me.mp3","11","","",""
"","10055.51999999443","audio-button-response","23","293614","0.0-11.0-0.12","51710","","stimuli/long/a-sol.mp3","0","","",""
"","9284.169999998994","audio-button-response","24","302903","0.0-11.0-0.13","51710","","stimuli/long/a-ti.mp3","2","","",""
"","10061.789999999746","audio-button-response","25","312968","0.0-11.0-0.14","51710","","stimuli/long/a-do.mp3","0","","",""
"","12340.120000000752","audio-button-response","26","325313","0.0-11.0-0.15","51710","","stimuli/long/c-ti.mp3","5","","",""
"","8918.98499999661","audio-button-response","27","334237","0.0-11.0-0.16","51710","","stimuli/long/c-do.mp3","0","","",""
"","9580.929999996442","audio-button-response","28","343822","0.0-11.0-0.17","51710","","stimuli/long/e-do.mp3","0","","",""
"","12505.625000005239","audio-button-response","29","356331","0.0-11.0-0.18","51710","","stimuli/long/a-ra.mp3","1","","",""
"","15329.384999997274","audio-button-response","30","371666","0.0-11.0-0.19","51710","","stimuli/long/e-sol.mp3","7","","",""
"","9615.810000002966","audio-button-response","31","381286","0.0-11.0-0.20","51710","","stimuli/long/c-ra.mp3","1","","",""
"","12388.440000002447","audio-button-response","32","393680","0.0-11.0-0.21","51710","","stimuli/long/e-le.mp3","7","","",""
"","7579.130000005534","audio-button-response","33","401263","0.0-11.0-0.22","51710","","stimuli/long/a-do8.mp3","0","","",""
"","12423.914999999397","audio-button-response","34","413692","0.0-11.0-0.23","51710","","stimuli/long/a-me.mp3","10","","",""
"","11527.045000002545","audio-button-response","35","425223","0.0-11.0-0.24","51710","","stimuli/long/e-fa.mp3","0","","",""
"","10557.824999996228","audio-button-response","36","435786","0.0-11.0-0.25","51710","","stimuli/long/c-fa.mp3","11","","",""
"","11285.170000002836","audio-button-response","37","447075","0.0-11.0-0.26","51710","","stimuli/long/c-le.mp3","5","","",""
"","11534.234999999171","audio-button-response","38","458613","0.0-11.0-0.27","51710","","stimuli/long/a-mi.mp3","3","","",""
"","14608.575000005658","audio-button-response","39","473226","0.0-11.0-0.28","51710","","stimuli/long/e-la.mp3","7","","",""
"","10703.204999997979","audio-button-response","40","483935","0.0-11.0-0.29","51710","","stimuli/long/a-re.mp3","11","","",""
"","10420.884999999544","audio-button-response","41","494361","0.0-11.0-0.30","51710","","stimuli/long/e-fi.mp3","10","","",""
"","16269.80999999796","audio-button-response","42","510634","0.0-11.0-0.31","51710","","stimuli/long/e-ti.mp3","6","","",""
"","12949.114999995858","audio-button-response","43","523589","0.0-11.0-0.32","51710","","stimuli/long/e-mi.mp3","10","","",""
"","10191.899999998044","audio-button-response","44","533784","0.0-11.0-0.33","51710","","stimuli/long/a-le.mp3","11","","",""
"","8732.844999998691","audio-button-response","45","542521","0.0-11.0-0.34","51710","","stimuli/long/c-mi.mp3","0","","",""
"","10568.299999999115","audio-button-response","46","553093","0.0-11.0-0.35","51710","","stimuli/long/e-do8.mp3","4","","",""
"","10854.104999998468","audio-button-response","47","563951","0.0-11.0-0.36","51710","","stimuli/long/e-ra.mp3","3","","",""
"","10512.029999998165","audio-button-response","48","574470","0.0-11.0-0.37","51710","","stimuli/long/a-fa.mp3","11","","",""
"[{""page_index"":0,""viewing_time"":7301.09999999695},{""page_index"":1,""viewing_time"":1095.6100000039442}]","8397.23999999836","instructions","49","582868","0.0-12.0","51710","","","","","",""
"","null","audio-keyboard-response","50","592059","0.0-13.0-0.0","51710","","new_stimuli/mp3/melody_v3_v2_buffer.mp3","","null","",""
"","10292.770000000019","html-button-response","51","602356","0.0-13.0-1.0","51710","","<p>Which tone was played first after the cadence?</p><p>Please respond as quickly and as accurately as possible!</p>","12","","1","new_stimuli/mp3/melody_v3_v2_buffer.mp3"
"","380.21999999915715","html-button-response","52","602741","0.0-13.0-2.0","51710","","<p>Which tone was played second after the cadence?</p><p>Please respond as quickly and as accurately as possible!</p>","11","","2","new_stimuli/mp3/melody_v3_v2_buffer.mp3"
"","null","audio-keyboard-response","53","612177","0.0-13.0-0.1","51710","","new_stimuli/mp3/melody_v4_v3_buffer.mp3","","null","",""
"","6683.114999999758","html-button-response","54","618865","0.0-13.0-1.1","51710","","<p>Which tone was played first after the cadence?</p><p>Please respond as quickly and as accurately as possible!</p>","5","","1","new_stimuli/mp3/melody_v4_v3_buffer.mp3"
"","658.5199999972247","html-button-response","55","619528","0.0-13.0-2.1","51710","","<p>Which tone was played second after the cadence?</p><p>Please respond as quickly and as accurately as possible!</p>","4","","2","new_stimuli/mp3/melody_v4_v3_buffer.mp3"
"","null","audio-keyboard-response","56","628549","0.0-13.0-0.2","51710","","new_stimuli/mp3/melody_^1_^2+_.mp3","","null","",""
"","1802.1149999985937","html-button-response","57","630355","0.0-13.0-1.2","51710","","<p>Which tone was played first after the cadence?</p><p>Please respond as quickly and as accurately as possible!</p>","0","","1","new_stimuli/mp3/melody_^1_^2+_.mp3"
"","2002.234999999986","html-button-response","58","632360","0.0-13.0-2.2","51710","","<p>Which tone was played second after the cadence?</p><p>Please respond as quickly and as accurately as possible!</p>","3","","2","new_stimuli/mp3/melody_^1_^2+_.mp3"
"","null","audio-keyboard-response","59","641818","0.0-13.0-0.3","51710","","new_stimuli/mp3/melody_v7_v3_buffer.mp3","","null","",""
"","10460.249999996508","html-button-response","60","652284","0.0-13.0-1.3","51710","","<p>Which tone was played first after the cadence?</p><p>Please respond as quickly and as accurately as possible!</p>","11","","1","new_stimuli/mp3/melody_v7_v3_buffer.mp3"
"","968.2600000015227","html-button-response","61","653258","0.0-13.0-2.3","51710","","<p>Which tone was played second after the cadence?</p><p>Please respond as quickly and as accurately as possible!</p>","9","","2","new_stimuli/mp3/melody_v7_v3_buffer.mp3"
"","null","audio-keyboard-response","62","662425","0.0-13.0-0.4","51710","","new_stimuli/mp3/melody_^2_v7-_.mp3","","null","",""
"","6900.679999998887","html-button-response","63","669331","0.0-13.0-1.4","51710","","<p>Which tone was played first after the cadence?</p><p>Please respond as quickly and as accurately as possible!</p>","2","","1","new_stimuli/mp3/melody_^2_v7-_.mp3"
"","1050.859999995795","html-button-response","64","670388","0.0-13.0-2.4","51710","","<p>Which tone was played second after the cadence?</p><p>Please respond as quickly and as accurately as possible!</p>","11","","2","new_stimuli/mp3/melody_^2_v7-_.mp3"
"","null","audio-keyboard-response","65","679840","0.0-13.0-0.5","51710","","new_stimuli/mp3/melody_^3_v4+_buffer.mp3","","null","",""
"","7260.2599999955855","html-button-response","66","687105","0.0-13.0-1.5","51710","","<p>Which tone was played first after the cadence?</p><p>Please respond as quickly and as accurately as possible!</p>","0","","1","new_stimuli/mp3/melody_^3_v4+_buffer.mp3"
"","552.0099999994272","html-button-response","67","687661","0.0-13.0-2.5","51710","","<p>Which tone was played second after the cadence?</p><p>Please respond as quickly and as accurately as possible!</p>","2","","2","new_stimuli/mp3/melody_^3_v4+_buffer.mp3"
"","null","audio-keyboard-response","68","696826","0.0-13.0-0.6","51710","","new_stimuli/mp3/melody_^5_^1+_.mp3","","null","",""
"","1345.4550000024028","html-button-response","69","698177","0.0-13.0-1.6","51710","","<p>Which tone was played first after the cadence?</p><p>Please respond as quickly and as accurately as possible!</p>","11","","1","new_stimuli/mp3/melody_^5_^1+_.mp3"
"","960.7849999956088","html-button-response","70","699140","0.0-13.0-2.6","51710","","<p>Which tone was played second after the cadence?</p><p>Please respond as quickly and as accurately as possible!</p>","1","","2","new_stimuli/mp3/melody_^5_^1+_.mp3"
"","null","audio-keyboard-response","71","708306","0.0-13.0-0.7","51710","","new_stimuli/mp3/melody_v5_v1+_.mp3","","null","",""
"","7613.774999997928","html-button-response","72","715925","0.0-13.0-1.7","51710","","<p>Which tone was played first after the cadence?</p><p>Please respond as quickly and as accurately as possible!</p>","5","","1","new_stimuli/mp3/melody_v5_v1+_.mp3"
"","3095.675000004121","html-button-response","73","719025","0.0-13.0-2.7","51710","","<p>Which tone was played second after the cadence?</p><p>Please respond as quickly and as accurately as possible!</p>","2","","2","new_stimuli/mp3/melody_v5_v1+_.mp3"
"","null","audio-keyboard-response","74","728092","0.0-13.0-0.8","51710","","new_stimuli/mp3/melody_v2_v1_.mp3","","null","",""
"","4980.9100000056205","html-button-response","75","733078","0.0-13.0-1.8","51710","","<p>Which tone was played first after the cadence?</p><p>Please respond as quickly and as accurately as possible!</p>","2","","1","new_stimuli/mp3/melody_v2_v1_.mp3"
"","620.484999999404","html-button-response","76","733702","0.0-13.0-2.8","51710","","<p>Which tone was played second after the cadence?</p><p>Please respond as quickly and as accurately as possible!</p>","0","","2","new_stimuli/mp3/melody_v2_v1_.mp3"
"","null","audio-keyboard-response","77","742996","0.0-13.0-0.9","51710","","new_stimuli/mp3/melody_3_^6_buffer.mp3","","null","",""
"","7282.1449999974575","html-button-response","78","750283","0.0-13.0-1.9","51710","","<p>Which tone was played first after the cadence?</p><p>Please respond as quickly and as accurately as possible!</p>","5","","1","new_stimuli/mp3/melody_3_^6_buffer.mp3"
"","2375.929999994696","html-button-response","79","752665","0.0-13.0-2.9","51710","","<p>Which tone was played second after the cadence?</p><p>Please respond as quickly and as accurately as possible!</p>","9","","2","new_stimuli/mp3/melody_3_^6_buffer.mp3"
"[{""page_index"":0,""viewing_time"":3134.3649999980116},{""page_index"":1,""viewing_time"":739.9099999965401},{""page_index"":2,""viewing_time"":3590.1450000019977}]","7464.974999995204","instructions","80","760131","0.0-14.0","51710","","","","","",""
"","null","audio-keyboard-response","81","770105","0.0-15.0-0.0","51710","","new_stimuli/mp3/melody_v2_v5_^3_buffer.mp3","","null","",""
"","6464.33500000427","html-button-response","82","776574","0.0-15.0-1.0","51710","","<p>Which tone was played first after the cadence?</p><p>Please respond as quickly and as accurately as possible!</p>","2","","1","new_stimuli/mp3/melody_v2_v5_^3_buffer.mp3"
"","604.1299999997718","html-button-response","83","777184","0.0-15.0-2.0","51710","","<p>Which tone was played second after the cadence?</p><p>Please respond as quickly and as accurately as possible!</p>","4","","2","new_stimuli/mp3/melody_v2_v5_^3_buffer.mp3"
"","974.1099999955622","html-button-response","84","778161","0.0-15.0-3.0","51710","","<p>Which tone was played third after the cadence?</p><p>Please respond as quickly and as accurately as possible!</p>","0","","3","new_stimuli/mp3/melody_v2_v5_^3_buffer.mp3"
"","null","audio-keyboard-response","85","788055","0.0-15.0-0.1","51710","","new_stimuli/mp3/melody_^1_v6_v5+_.mp3","","null","",""
"","8953.590000004508","html-button-response","86","797014","0.0-15.0-1.1","51710","","<p>Which tone was played first after the cadence?</p><p>Please respond as quickly and as accurately as possible!</p>","11","","1","new_stimuli/mp3/melody_^1_v6_v5+_.mp3"
"","427.50999999407213","html-button-response","87","797446","0.0-15.0-2.1","51710","","<p>Which tone was played second after the cadence?</p><p>Please respond as quickly and as accurately as possible!</p>","9","","2","new_stimuli/mp3/melody_^1_v6_v5+_.mp3"
"","495.83999999589287","html-button-response","88","797945","0.0-15.0-3.1","51710","","<p>Which tone was played third after the cadence?</p><p>Please respond as quickly and as accurately as possible!</p>","7","","3","new_stimuli/mp3/melody_^1_v6_v5+_.mp3"
"","null","audio-keyboard-response","89","807911","0.0-15.0-0.2","51710","","new_stimuli/mp3/melody_v5_v4_v3_buffer.mp3","","null","",""
"","13626.744999994175","html-button-response","90","821542","0.0-15.0-1.2","51710","","<p>Which tone was played first after the cadence?</p><p>Please respond as quickly and as accurately as possible!</p>","7","","1","new_stimuli/mp3/melody_v5_v4_v3_buffer.mp3"
"","550.1549999971176","html-button-response","91","822097","0.0-15.0-2.2","51710","","<p>Which tone was played second after the cadence?</p><p>Please respond as quickly and as accurately as possible!</p>","5","","2","new_stimuli/mp3/melody_v5_v4_v3_buffer.mp3"
"","1036.034999997355","html-button-response","92","823137","0.0-15.0-3.2","51710","","<p>Which tone was played third after the cadence?</p><p>Please respond as quickly and as accurately as possible!</p>","4","","3","new_stimuli/mp3/melody_v5_v4_v3_buffer.mp3"
"","null","audio-keyboard-response","93","832710","0.0-15.0-0.3","51710","","new_stimuli/mp3/melody_v1_v7-_^7_.mp3","","null","",""
"","7801.8099999971455","html-button-response","94","840517","0.0-15.0-1.3","51710","","<p>Which tone was played first after the cadence?</p><p>Please respond as quickly and as accurately as possible!</p>","4","","1","new_stimuli/mp3/melody_v1_v7-_^7_.mp3"
"","411.63999999838416","html-button-response","95","840932","0.0-15.0-2.3","51710","","<p>Which tone was played second after the cadence?</p><p>Please respond as quickly and as accurately as possible!</p>","3","","2","new_stimuli/mp3/melody_v1_v7-_^7_.mp3"
"","389.16999999491964","html-button-response","96","841324","0.0-15.0-3.3","51710","","<p>Which tone was played third after the cadence?</p><p>Please respond as quickly and as accurately as possible!</p>","5","","3","new_stimuli/mp3/melody_v1_v7-_^7_.mp3"
"","null","audio-keyboard-response","97","850913","0.0-15.0-0.4","51710","","new_stimuli/mp3/melody_v1_v7-_7-_buffer.mp3","","null","",""
"","6880.540000005509","html-button-response","98","857799","0.0-15.0-1.4","51710","","<p>Which tone was played first after the cadence?</p><p>Please respond as quickly and as accurately as possible!</p>","9","","1","new_stimuli/mp3/melody_v1_v7-_7-_buffer.mp3"
"","459.6300000047777","html-button-response","99","858263","0.0-15.0-2.4","51710","","<p>Which tone was played second after the cadence?</p><p>Please respond as quickly and as accurately as possible!</p>","7","","2","new_stimuli/mp3/melody_v1_v7-_7-_buffer.mp3"
"","342.0899999982212","html-button-response","100","858609","0.0-15.0-3.4","51710","","<p>Which tone was played third after the cadence?</p><p>Please respond as quickly and as accurately as possible!</p>","7","","3","new_stimuli/mp3/melody_v1_v7-_7-_buffer.mp3"
"","null","audio-keyboard-response","101","868300","0.0-15.0-0.5","51710","","new_stimuli/mp3/melody_v4_v3_v2_buffer.mp3","","null","",""
"","3168.040000004228","html-button-response","102","871475","0.0-15.0-1.5","51710","","<p>Which tone was played first after the cadence?</p><p>Please respond as quickly and as accurately as possible!</p>","2","","1","new_stimuli/mp3/melody_v4_v3_v2_buffer.mp3"
"","487.824999996461","html-button-response","103","871966","0.0-15.0-2.5","51710","","<p>Which tone was played second after the cadence?</p><p>Please respond as quickly and as accurately as possible!</p>","0","","2","new_stimuli/mp3/melody_v4_v3_v2_buffer.mp3"
"","977.4000000033993","html-button-response","104","872947","0.0-15.0-3.5","51710","","<p>Which tone was played third after the cadence?</p><p>Please respond as quickly and as accurately as possible!</p>","11","","3","new_stimuli/mp3/melody_v4_v3_v2_buffer.mp3"
"","null","audio-keyboard-response","105","882585","0.0-15.0-0.6","51710","","new_stimuli/mp3/melody_6_^1_v5_.mp3","","null","",""
"","11283.650000004796","html-button-response","106","893874","0.0-15.0-1.6","51710","","<p>Which tone was played first after the cadence?</p><p>Please respond as quickly and as accurately as possible!</p>","9","","1","new_stimuli/mp3/melody_6_^1_v5_.mp3"
"","695.6050000009127","html-button-response","107","894573","0.0-15.0-2.6","51710","","<p>Which tone was played second after the cadence?</p><p>Please respond as quickly and as accurately as possible!</p>","7","","2","new_stimuli/mp3/melody_6_^1_v5_.mp3"
"","1007.2750000036322","html-button-response","108","895584","0.0-15.0-3.6","51710","","<p>Which tone was played third after the cadence?</p><p>Please respond as quickly and as accurately as possible!</p>","11","","3","new_stimuli/mp3/melody_6_^1_v5_.mp3"
"","null","audio-keyboard-response","109","905084","0.0-15.0-0.7","51710","","new_stimuli/mp3/melody_1_v1+_^2_.mp3","","null","",""
"","5486.700000001234","html-button-response","110","910575","0.0-15.0-1.7","51710","","<p>Which tone was played first after the cadence?</p><p>Please respond as quickly and as accurately as possible!</p>","2","","1","new_stimuli/mp3/melody_1_v1+_^2_.mp3"
"","797.9399999966845","html-button-response","111","911377","0.0-15.0-2.7","51710","","<p>Which tone was played second after the cadence?</p><p>Please respond as quickly and as accurately as possible!</p>","3","","2","new_stimuli/mp3/melody_1_v1+_^2_.mp3"
"","2471.1349999997765","html-button-response","112","913852","0.0-15.0-3.7","51710","","<p>Which tone was played third after the cadence?</p><p>Please respond as quickly and as accurately as possible!</p>","5","","3","new_stimuli/mp3/melody_1_v1+_^2_.mp3"
"","null","audio-keyboard-response","113","923416","0.0-15.0-0.8","51710","","new_stimuli/mp3/melody_v3_v2_v1_.mp3","","null","",""
"","5020.335000001127","html-button-response","114","928441","0.0-15.0-1.8","51710","","<p>Which tone was played first after the cadence?</p><p>Please respond as quickly and as accurately as possible!</p>","7","","1","new_stimuli/mp3/melody_v3_v2_v1_.mp3"
"","458.0900000000838","html-button-response","115","928904","0.0-15.0-2.8","51710","","<p>Which tone was played second after the cadence?</p><p>Please respond as quickly and as accurately as possible!</p>","5","","2","new_stimuli/mp3/melody_v3_v2_v1_.mp3"
"","835.8100000042468","html-button-response","116","929743","0.0-15.0-3.8","51710","","<p>Which tone was played third after the cadence?</p><p>Please respond as quickly and as accurately as possible!</p>","4","","3","new_stimuli/mp3/melody_v3_v2_v1_.mp3"
"[{""page_index"":0,""viewing_time"":1491.669999995851},{""page_index"":1,""viewing_time"":1958.275000004447},{""page_index"":2,""viewing_time"":993.5649999970337}]","4444.029999998747","instructions","117","934188","0.0-16.0","51710","","","","","",""
"","null","audio-keyboard-response","118","944825","0.0-17.0-0.0","51710","","new_stimuli/mp3/melody_v5_^6+_^7_^1_5_.mp3","","null","",""
"","9352.539999999804","html-button-response","119","954184","0.0-17.0-1.0","51710","","<p>Which tone was played first after the cadence?</p><p>Please respond as quickly and as accurately as possible!</p>","7","","1","new_stimuli/mp3/melody_v5_^6+_^7_^1_5_.mp3"
"","557.8299999978626","html-button-response","120","954746","0.0-17.0-2.0","51710","","<p>Which tone was played second after the cadence?</p><p>Please respond as quickly and as accurately as possible!</p>","9","","2","new_stimuli/mp3/melody_v5_^6+_^7_^1_5_.mp3"
"","565.4849999991711","html-button-response","121","955315","0.0-17.0-3.0","51710","","<p>Which tone was played third after the cadence?</p><p>Please respond as quickly and as accurately as possible!</p>","11","","3","new_stimuli/mp3/melody_v5_^6+_^7_^1_5_.mp3"
"","442.2450000055833","html-button-response","122","955761","0.0-17.0-4.0","51710","","<p>Which tone was played fourth after the cadence?</p><p>Please respond as quickly and as accurately as possible!</p>","12","","4","new_stimuli/mp3/melody_v5_^6+_^7_^1_5_.mp3"
"","1945.5850000012433","html-button-response","123","957711","0.0-17.0-5.0","51710","","<p>Which tone was played fifth after the cadence?</p><p>Please respond as quickly and as accurately as possible!</p>","7","","5","new_stimuli/mp3/melody_v5_^6+_^7_^1_5_.mp3"
"","null","audio-keyboard-response","124","968297","0.0-17.0-0.1","51710","","new_stimuli/mp3/melody_v5_v4_v3_v2_v1 _buffer.mp3","","null","",""
"","5031.79999999702","html-button-response","125","973334","0.0-17.0-1.1","51710","","<p>Which tone was played first after the cadence?</p><p>Please respond as quickly and as accurately as possible!</p>","7","","1","new_stimuli/mp3/melody_v5_v4_v3_v2_v1 _buffer.mp3"
"","611.1200000013923","html-button-response","126","973948","0.0-17.0-2.1","51710","","<p>Which tone was played second after the cadence?</p><p>Please respond as quickly and as accurately as possible!</p>","5","","2","new_stimuli/mp3/melody_v5_v4_v3_v2_v1 _buffer.mp3"
"","453.3999999985099","html-button-response","127","974405","0.0-17.0-3.1","51710","","<p>Which tone was played third after the cadence?</p><p>Please respond as quickly and as accurately as possible!</p>","4","","3","new_stimuli/mp3/melody_v5_v4_v3_v2_v1 _buffer.mp3"
"","565.600000001723","html-button-response","128","974975","0.0-17.0-4.1","51710","","<p>Which tone was played fourth after the cadence?</p><p>Please respond as quickly and as accurately as possible!</p>","2","","4","new_stimuli/mp3/melody_v5_v4_v3_v2_v1 _buffer.mp3"
"","511.86500000045635","html-button-response","129","975490","0.0-17.0-5.1","51710","","<p>Which tone was played fifth after the cadence?</p><p>Please respond as quickly and as accurately as possible!</p>","0","","5","new_stimuli/mp3/melody_v5_v4_v3_v2_v1 _buffer.mp3"
"","null","audio-keyboard-response","130","986117","0.0-17.0-0.2","51710","","new_stimuli/mp3/melody_^6_v4_v3_^4_^5_.mp3","","null","",""
"","11642.800000001444","html-button-response","131","997765","0.0-17.0-1.2","51710","","<p>Which tone was played first after the cadence?</p><p>Please respond as quickly and as accurately as possible!</p>","9","","1","new_stimuli/mp3/melody_^6_v4_v3_^4_^5_.mp3"
"","1472.0799999994924","html-button-response","132","999245","0.0-17.0-2.2","51710","","<p>Which tone was played second after the cadence?</p><p>Please respond as quickly and as accurately as possible!</p>","11","","2","new_stimuli/mp3/melody_^6_v4_v3_^4_^5_.mp3"
"","582.6799999995856","html-button-response","133","999831","0.0-17.0-3.2","51710","","<p>Which tone was played third after the cadence?</p><p>Please respond as quickly and as accurately as possible!</p>","9","","3","new_stimuli/mp3/melody_^6_v4_v3_^4_^5_.mp3"
"","1260.8700000055833","html-button-response","134","1001095","0.0-17.0-4.2","51710","","<p>Which tone was played fourth after the cadence?</p><p>Please respond as quickly and as accurately as possible!</p>","7","","4","new_stimuli/mp3/melody_^6_v4_v3_^4_^5_.mp3"
"","2824.559999993653","html-button-response","135","1003922","0.0-17.0-5.2","51710","","<p>Which tone was played fifth after the cadence?</p><p>Please respond as quickly and as accurately as possible!</p>","5","","5","new_stimuli/mp3/melody_^6_v4_v3_^4_^5_.mp3"
"","null","audio-keyboard-response","136","1014505","0.0-17.0-0.3","51710","","new_stimuli/mp3/melody_v2_2_^3_^4_v2_.mp3","","null","",""
"","3873.410000000149","html-button-response","137","1018384","0.0-17.0-1.3","51710","","<p>Which tone was played first after the cadence?</p><p>Please respond as quickly and as accurately as possible!</p>","2","","1","new_stimuli/mp3/melody_v2_2_^3_^4_v2_.mp3"
"","828.4600000043865","html-button-response","138","1019216","0.0-17.0-2.3","51710","","<p>Which tone was played second after the cadence?</p><p>Please respond as quickly and as accurately as possible!</p>","2","","2","new_stimuli/mp3/melody_v2_2_^3_^4_v2_.mp3"
"","1060.700000001816","html-button-response","139","1020280","0.0-17.0-3.3","51710","","<p>Which tone was played third after the cadence?</p><p>Please respond as quickly and as accurately as possible!</p>","4","","3","new_stimuli/mp3/melody_v2_2_^3_^4_v2_.mp3"
"","574.5499999976018","html-button-response","140","1020859","0.0-17.0-4.3","51710","","<p>Which tone was played fourth after the cadence?</p><p>Please respond as quickly and as accurately as possible!</p>","5","","4","new_stimuli/mp3/melody_v2_2_^3_^4_v2_.mp3"
"","473.599999997532","html-button-response","141","1021336","0.0-17.0-5.3","51710","","<p>Which tone was played fifth after the cadence?</p><p>Please respond as quickly and as accurately as possible!</p>","4","","5","new_stimuli/mp3/melody_v2_2_^3_^4_v2_.mp3"
"","null","audio-keyboard-response","142","1032281","0.0-17.0-0.4","51710","","new_stimuli/mp3/melody_^5_^6_v5_v4_v3_buffer.mp3","","null","",""
"","2221.2650000001304","html-button-response","143","1034507","0.0-17.0-1.4","51710","","<p>Which tone was played first after the cadence?</p><p>Please respond as quickly and as accurately as possible!</p>","5","","1","new_stimuli/mp3/melody_^5_^6_v5_v4_v3_buffer.mp3"
"","784.3950000024633","html-button-response","144","1035295","0.0-17.0-2.4","51710","","<p>Which tone was played second after the cadence?</p><p>Please respond as quickly and as accurately as possible!</p>","9","","2","new_stimuli/mp3/melody_^5_^6_v5_v4_v3_buffer.mp3"
"","1513.1199999960372","html-button-response","145","1036812","0.0-17.0-3.4","51710","","<p>Which tone was played third after the cadence?</p><p>Please respond as quickly and as accurately as possible!</p>","5","","3","new_stimuli/mp3/melody_^5_^6_v5_v4_v3_buffer.mp3"
"","1655.009999994887","html-button-response","146","1038470","0.0-17.0-4.4","51710","","<p>Which tone was played fourth after the cadence?</p><p>Please respond as quickly and as accurately as possible!</p>","2","","4","new_stimuli/mp3/melody_^5_^6_v5_v4_v3_buffer.mp3"
"","404.8899999979185","html-button-response","147","1038877","0.0-17.0-5.4","51710","","<p>Which tone was played fifth after the cadence?</p><p>Please respond as quickly and as accurately as possible!</p>","0","","5","new_stimuli/mp3/melody_^5_^6_v5_v4_v3_buffer.mp3"
"","null","audio-keyboard-response","148","1049821","0.0-17.0-0.5","51710","","new_stimuli/mp3/melody_v5-_v3_3_^4+_v3_.mp3","","null","",""
"","4095.124999999767","html-button-response","149","1053920","0.0-17.0-1.5","51710","","<p>Which tone was played first after the cadence?</p><p>Please respond as quickly and as accurately as possible!</p>","7","","1","new_stimuli/mp3/melody_v5-_v3_3_^4+_v3_.mp3"
"","2322.9349999965634","html-button-response","150","1056247","0.0-17.0-2.5","51710","","<p>Which tone was played second after the cadence?</p><p>Please respond as quickly and as accurately as possible!</p>","5","","2","new_stimuli/mp3/melody_v5-_v3_3_^4+_v3_.mp3"
"","391.2500000006985","html-button-response","151","1056641","0.0-17.0-3.5","51710","","<p>Which tone was played third after the cadence?</p><p>Please respond as quickly and as accurately as possible!</p>","5","","3","new_stimuli/mp3/melody_v5-_v3_3_^4+_v3_.mp3"
"","774.7449999952223","html-button-response","152","1057420","0.0-17.0-4.5","51710","","<p>Which tone was played fourth after the cadence?</p><p>Please respond as quickly and as accurately as possible!</p>","7","","4","new_stimuli/mp3/melody_v5-_v3_3_^4+_v3_.mp3"
"","458.00500000058673","html-button-response","153","1057882","0.0-17.0-5.5","51710","","<p>Which tone was played fifth after the cadence?</p><p>Please respond as quickly and as accurately as possible!</p>","5","","5","new_stimuli/mp3/melody_v5-_v3_3_^4+_v3_.mp3"
"","null","audio-keyboard-response","154","1068595","0.0-17.0-0.6","51710","","new_stimuli/mp3/melody_^6_v5_v4_v3_v2_buffer.mp3","","null","",""
"","3017.4350000016857","html-button-response","155","1071617","0.0-17.0-1.6","51710","","<p>Which tone was played first after the cadence?</p><p>Please respond as quickly and as accurately as possible!</p>","12","","1","new_stimuli/mp3/melody_^6_v5_v4_v3_v2_buffer.mp3"
"","621.5200000007171","html-button-response","156","1072242","0.0-17.0-2.6","51710","","<p>Which tone was played second after the cadence?</p><p>Please respond as quickly and as accurately as possible!</p>","11","","2","new_stimuli/mp3/melody_^6_v5_v4_v3_v2_buffer.mp3"
"","541.4049999963026","html-button-response","157","1072788","0.0-17.0-3.6","51710","","<p>Which tone was played third after the cadence?</p><p>Please respond as quickly and as accurately as possible!</p>","9","","3","new_stimuli/mp3/melody_^6_v5_v4_v3_v2_buffer.mp3"
"","814.4600000015926","html-button-response","158","1073606","0.0-17.0-4.6","51710","","<p>Which tone was played fourth after the cadence?</p><p>Please respond as quickly and as accurately as possible!</p>","7","","4","new_stimuli/mp3/melody_^6_v5_v4_v3_v2_buffer.mp3"
"","557.4049999995623","html-button-response","159","1074167","0.0-17.0-5.6","51710","","<p>Which tone was played fifth after the cadence?</p><p>Please respond as quickly and as accurately as possible!</p>","5","","5","new_stimuli/mp3/melody_^6_v5_v4_v3_v2_buffer.mp3"
"","null","audio-keyboard-response","160","1084753","0.0-17.0-0.7","51710","","new_stimuli/mp3/melody_v5_v4_v3_v2_v1_.mp3","","null","",""
"","5450.844999999506","html-button-response","161","1090209","0.0-17.0-1.7","51710","","<p>Which tone was played first after the cadence?</p><p>Please respond as quickly and as accurately as possible!</p>","7","","1","new_stimuli/mp3/melody_v5_v4_v3_v2_v1_.mp3"
"","472.27000000560656","html-button-response","162","1090687","0.0-17.0-2.7","51710","","<p>Which tone was played second after the cadence?</p><p>Please respond as quickly and as accurately as possible!</p>","5","","2","new_stimuli/mp3/melody_v5_v4_v3_v2_v1_.mp3"
"","473.80499999411404","html-button-response","163","1091164","0.0-17.0-3.7","51710","","<p>Which tone was played third after the cadence?</p><p>Please respond as quickly and as accurately as possible!</p>","4","","3","new_stimuli/mp3/melody_v5_v4_v3_v2_v1_.mp3"
"","529.0450000029523","html-button-response","164","1091696","0.0-17.0-4.7","51710","","<p>Which tone was played fourth after the cadence?</p><p>Please respond as quickly and as accurately as possible!</p>","2","","4","new_stimuli/mp3/melody_v5_v4_v3_v2_v1_.mp3"
"","542.4649999986868","html-button-response","165","1092243","0.0-17.0-5.7","51710","","<p>Which tone was played fifth after the cadence?</p><p>Please respond as quickly and as accurately as possible!</p>","0","","5","new_stimuli/mp3/melody_v5_v4_v3_v2_v1_.mp3"
"[{""page_index"":0,""viewing_time"":1979.6450000067707},{""page_index"":1,""viewing_time"":1410.0249999973457},{""page_index"":2,""viewing_time"":831.9849999970756}]","4222.235000001034","instructions","166","1096466","0.0-18.0","51710","","","","","",""
"","null","audio-keyboard-response","167","1108151","0.0-19.0-0.0","51710","","new_stimuli/mp3/melody_^4_v6-_v5-_^6-_^4_v2-_2-_.mp3","","null","",""
"","4404.269999999087","html-button-response","168","1112563","0.0-19.0-1.0","51710","","<p>Which tone was played first after the cadence?</p><p>Please respond as quickly and as accurately as possible!</p>","4","","1","new_stimuli/mp3/melody_^4_v6-_v5-_^6-_^4_v2-_2-_.mp3"
"","829.8100000028498","html-button-response","169","1113396","0.0-19.0-2.0","51710","","<p>Which tone was played second after the cadence?</p><p>Please respond as quickly and as accurately as possible!</p>","0","","2","new_stimuli/mp3/melody_^4_v6-_v5-_^6-_^4_v2-_2-_.mp3"
"","2284.8900000026915","html-button-response","170","1115685","0.0-19.0-3.0","51710","","<p>Which tone was played third after the cadence?</p><p>Please respond as quickly and as accurately as possible!</p>","7","","3","new_stimuli/mp3/melody_^4_v6-_v5-_^6-_^4_v2-_2-_.mp3"
"","4951.719999997178","html-button-response","171","1120641","0.0-19.0-4.0","51710","","<p>Which tone was played fourth after the cadence?</p><p>Please respond as quickly and as accurately as possible!</p>","9","","4","new_stimuli/mp3/melody_^4_v6-_v5-_^6-_^4_v2-_2-_.mp3"
"","2476.909999997355","html-button-response","172","1123123","0.0-19.0-5.0","51710","","<p>Which tone was played fifth after the cadence?</p><p>Please respond as quickly and as accurately as possible!</p>","4","","5","new_stimuli/mp3/melody_^4_v6-_v5-_^6-_^4_v2-_2-_.mp3"
"","1066.0150000040885","html-button-response","173","1124192","0.0-19.0-6.0","51710","","<p>Which tone was played sixth after the cadence?</p><p>Please respond as quickly and as accurately as possible!</p>","0","","6","new_stimuli/mp3/melody_^4_v6-_v5-_^6-_^4_v2-_2-_.mp3"
"","367.314999995986","html-button-response","174","1124562","0.0-19.0-7.0","51710","","<p>Which tone was played seventh after the cadence?</p><p>Please respond as quickly and as accurately as possible!</p>","0","","7","new_stimuli/mp3/melody_^4_v6-_v5-_^6-_^4_v2-_2-_.mp3"
"","null","audio-keyboard-response","175","1136269","0.0-19.0-0.1","51710","","new_stimuli/mp3/melody_v1_^2_v1_v7_^1_^3_v2_.mp3","","null","",""
"","1197.6900000008754","html-button-response","176","1137472","0.0-19.0-1.1","51710","","<p>Which tone was played first after the cadence?</p><p>Please respond as quickly and as accurately as possible!</p>","0","","1","new_stimuli/mp3/melody_v1_^2_v1_v7_^1_^3_v2_.mp3"
"","675.1249999941792","html-button-response","177","1138150","0.0-19.0-2.1","51710","","<p>Which tone was played second after the cadence?</p><p>Please respond as quickly and as accurately as possible!</p>","2","","2","new_stimuli/mp3/melody_v1_^2_v1_v7_^1_^3_v2_.mp3"
"","651.5300000028219","html-button-response","178","1138804","0.0-19.0-3.1","51710","","<p>Which tone was played third after the cadence?</p><p>Please respond as quickly and as accurately as possible!</p>","0","","3","new_stimuli/mp3/melody_v1_^2_v1_v7_^1_^3_v2_.mp3"
"","3572.920000005979","html-button-response","179","1142380","0.0-19.0-4.1","51710","","<p>Which tone was played fourth after the cadence?</p><p>Please respond as quickly and as accurately as possible!</p>","9","","4","new_stimuli/mp3/melody_v1_^2_v1_v7_^1_^3_v2_.mp3"
"","3408.730000003008","html-button-response","180","1145793","0.0-19.0-5.1","51710","","<p>Which tone was played fifth after the cadence?</p><p>Please respond as quickly and as accurately as possible!</p>","0","","5","new_stimuli/mp3/melody_v1_^2_v1_v7_^1_^3_v2_.mp3"
"","1407.7449999968521","html-button-response","181","1147204","0.0-19.0-6.1","51710","","<p>Which tone was played sixth after the cadence?</p><p>Please respond as quickly and as accurately as possible!</p>","4","","6","new_stimuli/mp3/melody_v1_^2_v1_v7_^1_^3_v2_.mp3"
"","781.9949999975506","html-button-response","182","1147990","0.0-19.0-7.1","51710","","<p>Which tone was played seventh after the cadence?</p><p>Please respond as quickly and as accurately as possible!</p>","0","","7","new_stimuli/mp3/melody_v1_^2_v1_v7_^1_^3_v2_.mp3"
"","null","audio-keyboard-response","183","1159685","0.0-19.0-0.2","51710","","new_stimuli/mp3/melody_^4_^5_^6_v5_v4_v3_v2_.mp3","","null","",""
"","7197.705000005895","html-button-response","184","1166888","0.0-19.0-1.2","51710","","<p>Which tone was played first after the cadence?</p><p>Please respond as quickly and as accurately as possible!</p>","7","","1","new_stimuli/mp3/melody_^4_^5_^6_v5_v4_v3_v2_.mp3"
"","842.5250000001397","html-button-response","185","1167735","0.0-19.0-2.2","51710","","<p>Which tone was played second after the cadence?</p><p>Please respond as quickly and as accurately as possible!</p>","9","","2","new_stimuli/mp3/melody_^4_^5_^6_v5_v4_v3_v2_.mp3"
"","699.2150000005495","html-button-response","186","1168438","0.0-19.0-3.2","51710","","<p>Which tone was played third after the cadence?</p><p>Please respond as quickly and as accurately as possible!</p>","7","","3","new_stimuli/mp3/melody_^4_^5_^6_v5_v4_v3_v2_.mp3"
"","542.9199999999255","html-button-response","187","1168984","0.0-19.0-4.2","51710","","<p>Which tone was played fourth after the cadence?</p><p>Please respond as quickly and as accurately as possible!</p>","5","","4","new_stimuli/mp3/melody_^4_^5_^6_v5_v4_v3_v2_.mp3"
"","521.2050000044983","html-button-response","188","1169508","0.0-19.0-5.2","51710","","<p>Which tone was played fifth after the cadence?</p><p>Please respond as quickly and as accurately as possible!</p>","4","","5","new_stimuli/mp3/melody_^4_^5_^6_v5_v4_v3_v2_.mp3"
"","466.00000000023283","html-button-response","189","1169978","0.0-19.0-6.2","51710","","<p>Which tone was played sixth after the cadence?</p><p>Please respond as quickly and as accurately as possible!</p>","2","","6","new_stimuli/mp3/melody_^4_^5_^6_v5_v4_v3_v2_.mp3"
"","544.0400000007357","html-button-response","190","1170526","0.0-19.0-7.2","51710","","<p>Which tone was played seventh after the cadence?</p><p>Please respond as quickly and as accurately as possible!</p>","0","","7","new_stimuli/mp3/melody_^4_^5_^6_v5_v4_v3_v2_.mp3"
"","null","audio-keyboard-response","191","1182094","0.0-19.0-0.3","51710","","new_stimuli/mp3/melody_^5_^6_v5_v4_v3_v2_v1_buffer.mp3","","null","",""
"","1184.7899999993388","html-button-response","192","1183284","0.0-19.0-1.3","51710","","<p>Which tone was played first after the cadence?</p><p>Please respond as quickly and as accurately as possible!</p>","7","","1","new_stimuli/mp3/melody_^5_^6_v5_v4_v3_v2_v1_buffer.mp3"
"","5269.23999999417","html-button-response","193","1188558","0.0-19.0-2.3","51710","","<p>Which tone was played second after the cadence?</p><p>Please respond as quickly and as accurately as possible!</p>","9","","2","new_stimuli/mp3/melody_^5_^6_v5_v4_v3_v2_v1_buffer.mp3"
"","893.0449999971315","html-button-response","194","1189458","0.0-19.0-3.3","51710","","<p>Which tone was played third after the cadence?</p><p>Please respond as quickly and as accurately as possible!</p>","7","","3","new_stimuli/mp3/melody_^5_^6_v5_v4_v3_v2_v1_buffer.mp3"
"","883.8350000004284","html-button-response","195","1190345","0.0-19.0-4.3","51710","","<p>Which tone was played fourth after the cadence?</p><p>Please respond as quickly and as accurately as possible!</p>","5","","4","new_stimuli/mp3/melody_^5_^6_v5_v4_v3_v2_v1_buffer.mp3"
"","471.7000000018161","html-button-response","196","1190820","0.0-19.0-5.3","51710","","<p>Which tone was played fifth after the cadence?</p><p>Please respond as quickly and as accurately as possible!</p>","4","","5","new_stimuli/mp3/melody_^5_^6_v5_v4_v3_v2_v1_buffer.mp3"
"","700.3250000053085","html-button-response","197","1191523","0.0-19.0-6.3","51710","","<p>Which tone was played sixth after the cadence?</p><p>Please respond as quickly and as accurately as possible!</p>","2","","6","new_stimuli/mp3/melody_^5_^6_v5_v4_v3_v2_v1_buffer.mp3"
"","445.48999999812804","html-button-response","198","1191971","0.0-19.0-7.3","51710","","<p>Which tone was played seventh after the cadence?</p><p>Please respond as quickly and as accurately as possible!</p>","0","","7","new_stimuli/mp3/melody_^5_^6_v5_v4_v3_v2_v1_buffer.mp3"
"","null","audio-keyboard-response","199","1203616","0.0-19.0-0.4","51710","","new_stimuli/mp3/melody_^6_v5+_v4_^5+_v3_v1_v7-_.mp3","","null","",""
"","4520.799999998417","html-button-response","200","1208141","0.0-19.0-1.4","51710","","<p>Which tone was played first after the cadence?</p><p>Please respond as quickly and as accurately as possible!</p>","0","","1","new_stimuli/mp3/melody_^6_v5+_v4_^5+_v3_v1_v7-_.mp3"
"","1097.4250000000466","html-button-response","201","1209243","0.0-19.0-2.4","51710","","<p>Which tone was played second after the cadence?</p><p>Please respond as quickly and as accurately as possible!</p>","4","","2","new_stimuli/mp3/melody_^6_v5+_v4_^5+_v3_v1_v7-_.mp3"
"","1900.094999997178","html-button-response","202","1211147","0.0-19.0-3.4","51710","","<p>Which tone was played third after the cadence?</p><p>Please respond as quickly and as accurately as possible!</p>","0","","3","new_stimuli/mp3/melody_^6_v5+_v4_^5+_v3_v1_v7-_.mp3"
"","1097.8950000060722","html-button-response","203","1212249","0.0-19.0-4.4","51710","","<p>Which tone was played fourth after the cadence?</p><p>Please respond as quickly and as accurately as possible!</p>","9","","4","new_stimuli/mp3/melody_^6_v5+_v4_^5+_v3_v1_v7-_.mp3"
"","1414.5250000001397","html-button-response","204","1213667","0.0-19.0-5.4","51710","","<p>Which tone was played fifth after the cadence?</p><p>Please respond as quickly and as accurately as possible!</p>","7","","5","new_stimuli/mp3/melody_^6_v5+_v4_^5+_v3_v1_v7-_.mp3"
"","2701.864999995567","html-button-response","205","1216372","0.0-19.0-6.4","51710","","<p>Which tone was played sixth after the cadence?</p><p>Please respond as quickly and as accurately as possible!</p>","4","","6","new_stimuli/mp3/melody_^6_v5+_v4_^5+_v3_v1_v7-_.mp3"
"","3319.4000000001397","html-button-response","206","1219695","0.0-19.0-7.4","51710","","<p>Which tone was played seventh after the cadence?</p><p>Please respond as quickly and as accurately as possible!</p>","0","","7","new_stimuli/mp3/melody_^6_v5+_v4_^5+_v3_v1_v7-_.mp3"
"","null","audio-keyboard-response","207","1231668","0.0-19.0-0.5","51710","","new_stimuli/mp3/melody_1_^3_v1_^5_v3_v2_^3_.mp3","","null","",""
"","1413.2499999976717","html-button-response","208","1233086","0.0-19.0-1.5","51710","","<p>Which tone was played first after the cadence?</p><p>Please respond as quickly and as accurately as possible!</p>","0","","1","new_stimuli/mp3/melody_1_^3_v1_^5_v3_v2_^3_.mp3"
"","4937.154999999562","html-button-response","209","1238027","0.0-19.0-2.5","51710","","<p>Which tone was played second after the cadence?</p><p>Please respond as quickly and as accurately as possible!</p>","5","","2","new_stimuli/mp3/melody_1_^3_v1_^5_v3_v2_^3_.mp3"
"","1615.5649999999441","html-button-response","210","1239647","0.0-19.0-3.5","51710","","<p>Which tone was played third after the cadence?</p><p>Please respond as quickly and as accurately as possible!</p>","4","","3","new_stimuli/mp3/melody_1_^3_v1_^5_v3_v2_^3_.mp3"
"","1173.699999999255","html-button-response","211","1240824","0.0-19.0-4.5","51710","","<p>Which tone was played fourth after the cadence?</p><p>Please respond as quickly and as accurately as possible!</p>","2","","4","new_stimuli/mp3/melody_1_^3_v1_^5_v3_v2_^3_.mp3"
"","753.2850000062026","html-button-response","212","1241581","0.0-19.0-5.5","51710","","<p>Which tone was played fifth after the cadence?</p><p>Please respond as quickly and as accurately as possible!</p>","4","","5","new_stimuli/mp3/melody_1_^3_v1_^5_v3_v2_^3_.mp3"
"","520.4700000029989","html-button-response","213","1242105","0.0-19.0-6.5","51710","","<p>Which tone was played sixth after the cadence?</p><p>Please respond as quickly and as accurately as possible!</p>","2","","6","new_stimuli/mp3/melody_1_^3_v1_^5_v3_v2_^3_.mp3"
"","557.7550000017509","html-button-response","214","1242666","0.0-19.0-7.5","51710","","<p>Which tone was played seventh after the cadence?</p><p>Please respond as quickly and as accurately as possible!</p>","0","","7","new_stimuli/mp3/melody_1_^3_v1_^5_v3_v2_^3_.mp3"
"","null","audio-keyboard-response","215","1254361","0.0-19.0-0.6","51710","","new_stimuli/mp3/melody_^1_v7_v6_v5_v4_v3_v2_buffer.mp3","","null","",""
"","956.135000000475","html-button-response","216","1255322","0.0-19.0-1.6","51710","","<p>Which tone was played first after the cadence?</p><p>Please respond as quickly and as accurately as possible!</p>","12","","1","new_stimuli/mp3/melody_^1_v7_v6_v5_v4_v3_v2_buffer.mp3"
"","496.7550000001211","html-button-response","217","1255822","0.0-19.0-2.6","51710","","<p>Which tone was played second after the cadence?</p><p>Please respond as quickly and as accurately as possible!</p>","11","","2","new_stimuli/mp3/melody_^1_v7_v6_v5_v4_v3_v2_buffer.mp3"
"","575.3949999997858","html-button-response","218","1256400","0.0-19.0-3.6","51710","","<p>Which tone was played third after the cadence?</p><p>Please respond as quickly and as accurately as possible!</p>","9","","3","new_stimuli/mp3/melody_^1_v7_v6_v5_v4_v3_v2_buffer.mp3"
"","511.2799999988638","html-button-response","219","1256916","0.0-19.0-4.6","51710","","<p>Which tone was played fourth after the cadence?</p><p>Please respond as quickly and as accurately as possible!</p>","7","","4","new_stimuli/mp3/melody_^1_v7_v6_v5_v4_v3_v2_buffer.mp3"
"","604.1100000001024","html-button-response","220","1257525","0.0-19.0-5.6","51710","","<p>Which tone was played fifth after the cadence?</p><p>Please respond as quickly and as accurately as possible!</p>","5","","5","new_stimuli/mp3/melody_^1_v7_v6_v5_v4_v3_v2_buffer.mp3"
"","759.7200000018347","html-button-response","221","1258288","0.0-19.0-6.6","51710","","<p>Which tone was played sixth after the cadence?</p><p>Please respond as quickly and as accurately as possible!</p>","4","","6","new_stimuli/mp3/melody_^1_v7_v6_v5_v4_v3_v2_buffer.mp3"
"","567.4899999941699","html-button-response","222","1258858","0.0-19.0-7.6","51710","","<p>Which tone was played seventh after the cadence?</p><p>Please respond as quickly and as accurately as possible!</p>","2","","7","new_stimuli/mp3/melody_^1_v7_v6_v5_v4_v3_v2_buffer.mp3"
"[{""page_index"":0,""viewing_time"":1853.5899999989197},{""page_index"":1,""viewing_time"":834.2249999986961},{""page_index"":2,""viewing_time"":2217.145000002347}]","4905.259999999544","instructions","223","1263765","0.0-20.0","51710","","","","","",""
"","null","audio-keyboard-response","224","1276701","0.0-21.0-0.0","51710","","new_stimuli/mp3/melody_^2_^4_v3_v2_v1_v3_v2+_^3_^5+_.mp3","","null","",""
"","1907.625","html-button-response","225","1278615","0.0-21.0-1.0","51710","","<p>Which tone was played first after the cadence?</p><p>Please respond as quickly and as accurately as possible!</p>","7","","1","new_stimuli/mp3/melody_^2_^4_v3_v2_v1_v3_v2+_^3_^5+_.mp3"
"","1429.66999999783","html-button-response","226","1280048","0.0-21.0-2.0","51710","","<p>Which tone was played second after the cadence?</p><p>Please respond as quickly and as accurately as possible!</p>","12","","2","new_stimuli/mp3/melody_^2_^4_v3_v2_v1_v3_v2+_^3_^5+_.mp3"
"","635.0899999961257","html-button-response","227","1280686","0.0-21.0-3.0","51710","","<p>Which tone was played third after the cadence?</p><p>Please respond as quickly and as accurately as possible!</p>","11","","3","new_stimuli/mp3/melody_^2_^4_v3_v2_v1_v3_v2+_^3_^5+_.mp3"
"","1030.3700000005774","html-button-response","228","1281719","0.0-21.0-4.0","51710","","<p>Which tone was played fourth after the cadence?</p><p>Please respond as quickly and as accurately as possible!</p>","7","","4","new_stimuli/mp3/melody_^2_^4_v3_v2_v1_v3_v2+_^3_^5+_.mp3"
"","1437.8700000017416","html-button-response","229","1283160","0.0-21.0-5.0","51710","","<p>Which tone was played fifth after the cadence?</p><p>Please respond as quickly and as accurately as possible!</p>","11","","5","new_stimuli/mp3/melody_^2_^4_v3_v2_v1_v3_v2+_^3_^5+_.mp3"
"","1214.5000000018626","html-button-response","230","1284378","0.0-21.0-6.0","51710","","<p>Which tone was played sixth after the cadence?</p><p>Please respond as quickly and as accurately as possible!</p>","9","","6","new_stimuli/mp3/melody_^2_^4_v3_v2_v1_v3_v2+_^3_^5+_.mp3"
"","636.9749999940395","html-button-response","231","1285017","0.0-21.0-7.0","51710","","<p>Which tone was played seventh after the cadence?</p><p>Please respond as quickly and as accurately as possible!</p>","7","","7","new_stimuli/mp3/melody_^2_^4_v3_v2_v1_v3_v2+_^3_^5+_.mp3"
"","513.3550000027753","html-button-response","232","1285534","0.0-21.0-8.0","51710","","<p>Which tone was played eight after the cadence?</p><p>Please respond as quickly and as accurately as possible!</p>","12","","8","new_stimuli/mp3/melody_^2_^4_v3_v2_v1_v3_v2+_^3_^5+_.mp3"
"","1476.0150000001304","html-button-response","233","1287014","0.0-21.0-9.0","51710","","<p>Which tone was played nineth after the cadence?</p><p>Please respond as quickly and as accurately as possible!</p>","12","","9","new_stimuli/mp3/melody_^2_^4_v3_v2_v1_v3_v2+_^3_^5+_.mp3"
"","null","audio-keyboard-response","234","1299655","0.0-21.0-0.1","51710","","new_stimuli/mp3/melody_v5_v4_v6+_^7_^3+_v3_v2_v5_^4_.mp3","","null","",""
"","3839.045000000391","html-button-response","235","1303500","0.0-21.0-1.1","51710","","<p>Which tone was played first after the cadence?</p><p>Please respond as quickly and as accurately as possible!</p>","7","","1","new_stimuli/mp3/melody_v5_v4_v6+_^7_^3+_v3_v2_v5_^4_.mp3"
"","1059.9849999998696","html-button-response","236","1304564","0.0-21.0-2.1","51710","","<p>Which tone was played second after the cadence?</p><p>Please respond as quickly and as accurately as possible!</p>","5","","2","new_stimuli/mp3/melody_v5_v4_v6+_^7_^3+_v3_v2_v5_^4_.mp3"
"","3689.8799999980256","html-button-response","237","1308258","0.0-21.0-3.1","51710","","<p>Which tone was played third after the cadence?</p><p>Please respond as quickly and as accurately as possible!</p>","4","","3","new_stimuli/mp3/melody_v5_v4_v6+_^7_^3+_v3_v2_v5_^4_.mp3"
"","4777.63500000583","html-button-response","238","1313039","0.0-21.0-4.1","51710","","<p>Which tone was played fourth after the cadence?</p><p>Please respond as quickly and as accurately as possible!</p>","0","","4","new_stimuli/mp3/melody_v5_v4_v6+_^7_^3+_v3_v2_v5_^4_.mp3"
"","1769.5899999961257","html-button-response","239","1314813","0.0-21.0-5.1","51710","","<p>Which tone was played fifth after the cadence?</p><p>Please respond as quickly and as accurately as possible!</p>","2","","5","new_stimuli/mp3/melody_v5_v4_v6+_^7_^3+_v3_v2_v5_^4_.mp3"
"","2739.6399999998976","html-button-response","240","1317556","0.0-21.0-6.1","51710","","<p>Which tone was played sixth after the cadence?</p><p>Please respond as quickly and as accurately as possible!</p>","6","","6","new_stimuli/mp3/melody_v5_v4_v6+_^7_^3+_v3_v2_v5_^4_.mp3"
"","860.4550000017043","html-button-response","241","1318419","0.0-21.0-7.1","51710","","<p>Which tone was played seventh after the cadence?</p><p>Please respond as quickly and as accurately as possible!</p>","0","","7","new_stimuli/mp3/melody_v5_v4_v6+_^7_^3+_v3_v2_v5_^4_.mp3"
"","3202.3699999989476","html-button-response","242","1321625","0.0-21.0-8.1","51710","","<p>Which tone was played eight after the cadence?</p><p>Please respond as quickly and as accurately as possible!</p>","7","","8","new_stimuli/mp3/melody_v5_v4_v6+_^7_^3+_v3_v2_v5_^4_.mp3"
"","965.9299999985378","html-button-response","243","1322595","0.0-21.0-9.1","51710","","<p>Which tone was played nineth after the cadence?</p><p>Please respond as quickly and as accurately as possible!</p>","7","","9","new_stimuli/mp3/melody_v5_v4_v6+_^7_^3+_v3_v2_v5_^4_.mp3"
"","null","audio-keyboard-response","244","1335297","0.0-21.0-0.2","51710","","new_stimuli/mp3/melody_^2_^3_^4_^5_^6_v5_v4_v3_v2_buffer.mp3","","null","",""
"","954.2649999929126","html-button-response","245","1336256","0.0-21.0-1.2","51710","","<p>Which tone was played first after the cadence?</p><p>Please respond as quickly and as accurately as possible!</p>","0","","1","new_stimuli/mp3/melody_^2_^3_^4_^5_^6_v5_v4_v3_v2_buffer.mp3"
"","861.6249999976717","html-button-response","246","1337121","0.0-21.0-2.2","51710","","<p>Which tone was played second after the cadence?</p><p>Please respond as quickly and as accurately as possible!</p>","2","","2","new_stimuli/mp3/melody_^2_^3_^4_^5_^6_v5_v4_v3_v2_buffer.mp3"
"","889.3800000005867","html-button-response","247","1338013","0.0-21.0-3.2","51710","","<p>Which tone was played third after the cadence?</p><p>Please respond as quickly and as accurately as possible!</p>","4","","3","new_stimuli/mp3/melody_^2_^3_^4_^5_^6_v5_v4_v3_v2_buffer.mp3"
"","568.4949999996461","html-button-response","248","1338585","0.0-21.0-4.2","51710","","<p>Which tone was played fourth after the cadence?</p><p>Please respond as quickly and as accurately as possible!</p>","5","","4","new_stimuli/mp3/melody_^2_^3_^4_^5_^6_v5_v4_v3_v2_buffer.mp3"
"","641.8999999950174","html-button-response","249","1339238","0.0-21.0-5.2","51710","","<p>Which tone was played fifth after the cadence?</p><p>Please respond as quickly and as accurately as possible!</p>","7","","5","new_stimuli/mp3/melody_^2_^3_^4_^5_^6_v5_v4_v3_v2_buffer.mp3"
"","490.695000000298","html-button-response","250","1339733","0.0-21.0-6.2","51710","","<p>Which tone was played sixth after the cadence?</p><p>Please respond as quickly and as accurately as possible!</p>","5","","6","new_stimuli/mp3/melody_^2_^3_^4_^5_^6_v5_v4_v3_v2_buffer.mp3"
"","542.4249999995809","html-button-response","251","1340280","0.0-21.0-7.2","51710","","<p>Which tone was played seventh after the cadence?</p><p>Please respond as quickly and as accurately as possible!</p>","3","","7","new_stimuli/mp3/melody_^2_^3_^4_^5_^6_v5_v4_v3_v2_buffer.mp3"
"","565.2049999989104","html-button-response","252","1340849","0.0-21.0-8.2","51710","","<p>Which tone was played eight after the cadence?</p><p>Please respond as quickly and as accurately as possible!</p>","1","","8","new_stimuli/mp3/melody_^2_^3_^4_^5_^6_v5_v4_v3_v2_buffer.mp3"
"","582.695000004489","html-button-response","253","1341435","0.0-21.0-9.2","51710","","<p>Which tone was played nineth after the cadence?</p><p>Please respond as quickly and as accurately as possible!</p>","0","","9","new_stimuli/mp3/melody_^2_^3_^4_^5_^6_v5_v4_v3_v2_buffer.mp3"
"","null","audio-keyboard-response","254","1354070","0.0-21.0-0.3","51710","","new_stimuli/mp3/melody_^3_^4_v2_v7_^1_^2_^3_3_^4_.mp3","","null","",""
"","5816.4299999990035","html-button-response","255","1359890","0.0-21.0-1.3","51710","","<p>Which tone was played first after the cadence?</p><p>Please respond as quickly and as accurately as possible!</p>","0","","1","new_stimuli/mp3/melody_^3_^4_v2_v7_^1_^2_^3_3_^4_.mp3"
"","1030.0500000012107","html-button-response","256","1360925","0.0-21.0-2.3","51710","","<p>Which tone was played second after the cadence?</p><p>Please respond as quickly and as accurately as possible!</p>","4","","2","new_stimuli/mp3/melody_^3_^4_v2_v7_^1_^2_^3_3_^4_.mp3"
"","1298.0899999965914","html-button-response","257","1362227","0.0-21.0-3.3","51710","","<p>Which tone was played third after the cadence?</p><p>Please respond as quickly and as accurately as possible!</p>","0","","3","new_stimuli/mp3/melody_^3_^4_v2_v7_^1_^2_^3_3_^4_.mp3"
"","2308.134999999311","html-button-response","258","1364539","0.0-21.0-4.3","51710","","<p>Which tone was played fourth after the cadence?</p><p>Please respond as quickly and as accurately as possible!</p>","7","","4","new_stimuli/mp3/melody_^3_^4_v2_v7_^1_^2_^3_3_^4_.mp3"
"","712.0599999979604","html-button-response","259","1365255","0.0-21.0-5.3","51710","","<p>Which tone was played fifth after the cadence?</p><p>Please respond as quickly and as accurately as possible!</p>","9","","5","new_stimuli/mp3/melody_^3_^4_v2_v7_^1_^2_^3_3_^4_.mp3"
"","990.1699999973644","html-button-response","260","1366249","0.0-21.0-6.3","51710","","<p>Which tone was played sixth after the cadence?</p><p>Please respond as quickly and as accurately as possible!</p>","11","","6","new_stimuli/mp3/melody_^3_^4_v2_v7_^1_^2_^3_3_^4_.mp3"
"","1876.365000003716","html-button-response","261","1368129","0.0-21.0-7.3","51710","","<p>Which tone was played seventh after the cadence?</p><p>Please respond as quickly and as accurately as possible!</p>","2","","7","new_stimuli/mp3/melody_^3_^4_v2_v7_^1_^2_^3_3_^4_.mp3"
"","1036.0150000050198","html-button-response","262","1369168","0.0-21.0-8.3","51710","","<p>Which tone was played eight after the cadence?</p><p>Please respond as quickly and as accurately as possible!</p>","4","","8","new_stimuli/mp3/melody_^3_^4_v2_v7_^1_^2_^3_3_^4_.mp3"
"","375.6649999995716","html-button-response","263","1369547","0.0-21.0-9.3","51710","","<p>Which tone was played nineth after the cadence?</p><p>Please respond as quickly and as accurately as possible!</p>","4","","9","new_stimuli/mp3/melody_^3_^4_v2_v7_^1_^2_^3_3_^4_.mp3"
"","null","audio-keyboard-response","264","1382116","0.0-21.0-0.4","51710","","new_stimuli/mp3/melody_^3_^4_^5 _^6_v5_v4_v3_v2_v1_.mp3","","null","",""
"","821.6200000024401","html-button-response","265","1382942","0.0-21.0-1.4","51710","","<p>Which tone was played first after the cadence?</p><p>Please respond as quickly and as accurately as possible!</p>","0","","1","new_stimuli/mp3/melody_^3_^4_^5 _^6_v5_v4_v3_v2_v1_.mp3"
"","966.3399999991525","html-button-response","266","1383912","0.0-21.0-2.4","51710","","<p>Which tone was played second after the cadence?</p><p>Please respond as quickly and as accurately as possible!</p>","2","","2","new_stimuli/mp3/melody_^3_^4_^5 _^6_v5_v4_v3_v2_v1_.mp3"
"","2957.435000003781","html-button-response","267","1386873","0.0-21.0-3.4","51710","","<p>Which tone was played third after the cadence?</p><p>Please respond as quickly and as accurately as possible!</p>","4","","3","new_stimuli/mp3/melody_^3_^4_^5 _^6_v5_v4_v3_v2_v1_.mp3"
"","797.3750000018626","html-button-response","268","1387674","0.0-21.0-4.4","51710","","<p>Which tone was played fourth after the cadence?</p><p>Please respond as quickly and as accurately as possible!</p>","5","","4","new_stimuli/mp3/melody_^3_^4_^5 _^6_v5_v4_v3_v2_v1_.mp3"
"","761.5900000019465","html-button-response","269","1388438","0.0-21.0-5.4","51710","","<p>Which tone was played fifth after the cadence?</p><p>Please respond as quickly and as accurately as possible!</p>","4","","5","new_stimuli/mp3/melody_^3_^4_^5 _^6_v5_v4_v3_v2_v1_.mp3"
"","743.0450000029523","html-button-response","270","1389184","0.0-21.0-6.4","51710","","<p>Which tone was played sixth after the cadence?</p><p>Please respond as quickly and as accurately as possible!</p>","2","","6","new_stimuli/mp3/melody_^3_^4_^5 _^6_v5_v4_v3_v2_v1_.mp3"
"","606.144999998156","html-button-response","271","1389794","0.0-21.0-7.4","51710","","<p>Which tone was played seventh after the cadence?</p><p>Please respond as quickly and as accurately as possible!</p>","0","","7","new_stimuli/mp3/melody_^3_^4_^5 _^6_v5_v4_v3_v2_v1_.mp3"
"","1136.6899999994785","html-button-response","272","1390935","0.0-21.0-8.4","51710","","<p>Which tone was played eight after the cadence?</p><p>Please respond as quickly and as accurately as possible!</p>","11","","8","new_stimuli/mp3/melody_^3_^4_^5 _^6_v5_v4_v3_v2_v1_.mp3"
"","604.1200000036042","html-button-response","273","1391542","0.0-21.0-9.4","51710","","<p>Which tone was played nineth after the cadence?</p><p>Please respond as quickly and as accurately as possible!</p>","12","","9","new_stimuli/mp3/melody_^3_^4_^5 _^6_v5_v4_v3_v2_v1_.mp3"
"","null","audio-keyboard-response","274","1404490","0.0-21.0-0.5","51710","","new_stimuli/mp3/melody_^5_^6_v5_v4_v3_v2_v1_^2_^3_buffer.mp3","","null","",""
"","7510.460000005085","html-button-response","275","1412006","0.0-21.0-1.5","51710","","<p>Which tone was played first after the cadence?</p><p>Please respond as quickly and as accurately as possible!</p>","7","","1","new_stimuli/mp3/melody_^5_^6_v5_v4_v3_v2_v1_^2_^3_buffer.mp3"
"","1596.4899999962654","html-button-response","276","1413609","0.0-21.0-2.5","51710","","<p>Which tone was played second after the cadence?</p><p>Please respond as quickly and as accurately as possible!</p>","12","","2","new_stimuli/mp3/melody_^5_^6_v5_v4_v3_v2_v1_^2_^3_buffer.mp3"
"","1297.099999996135","html-button-response","277","1414910","0.0-21.0-3.5","51710","","<p>Which tone was played third after the cadence?</p><p>Please respond as quickly and as accurately as possible!</p>","11","","3","new_stimuli/mp3/melody_^5_^6_v5_v4_v3_v2_v1_^2_^3_buffer.mp3"
"","1374.5600000037812","html-button-response","278","1416290","0.0-21.0-4.5","51710","","<p>Which tone was played fourth after the cadence?</p><p>Please respond as quickly and as accurately as possible!</p>","7","","4","new_stimuli/mp3/melody_^5_^6_v5_v4_v3_v2_v1_^2_^3_buffer.mp3"
"","1598.2900000019","html-button-response","279","1417892","0.0-21.0-5.5","51710","","<p>Which tone was played fifth after the cadence?</p><p>Please respond as quickly and as accurately as possible!</p>","4","","5","new_stimuli/mp3/melody_^5_^6_v5_v4_v3_v2_v1_^2_^3_buffer.mp3"
"","682.0200000002515","html-button-response","280","1418578","0.0-21.0-6.5","51710","","<p>Which tone was played sixth after the cadence?</p><p>Please respond as quickly and as accurately as possible!</p>","2","","6","new_stimuli/mp3/melody_^5_^6_v5_v4_v3_v2_v1_^2_^3_buffer.mp3"
"","696.3050000048243","html-button-response","281","1419278","0.0-21.0-7.5","51710","","<p>Which tone was played seventh after the cadence?</p><p>Please respond as quickly and as accurately as possible!</p>","0","","7","new_stimuli/mp3/melody_^5_^6_v5_v4_v3_v2_v1_^2_^3_buffer.mp3"
"","2764.4450000007637","html-button-response","282","1422046","0.0-21.0-8.5","51710","","<p>Which tone was played eight after the cadence?</p><p>Please respond as quickly and as accurately as possible!</p>","7","","8","new_stimuli/mp3/melody_^5_^6_v5_v4_v3_v2_v1_^2_^3_buffer.mp3"
"","758.1650000065565","html-button-response","283","1422808","0.0-21.0-9.5","51710","","<p>Which tone was played nineth after the cadence?</p><p>Please respond as quickly and as accurately as possible!</p>","7","","9","new_stimuli/mp3/melody_^5_^6_v5_v4_v3_v2_v1_^2_^3_buffer.mp3"
"","null","audio-keyboard-response","284","1435442","0.0-21.0-0.6","51710","","new_stimuli/mp3/melody_v7_v6_v5_^6_v5_v4_^5_^6_v5_.mp3","","null","",""
"","3712.1699999987613","html-button-response","285","1439160","0.0-21.0-1.6","51710","","<p>Which tone was played first after the cadence?</p><p>Please respond as quickly and as accurately as possible!</p>","7","","1","new_stimuli/mp3/melody_v7_v6_v5_^6_v5_v4_^5_^6_v5_.mp3"
"","544.0650000020396","html-button-response","286","1439708","0.0-21.0-2.6","51710","","<p>Which tone was played second after the cadence?</p><p>Please respond as quickly and as accurately as possible!</p>","5","","2","new_stimuli/mp3/melody_v7_v6_v5_^6_v5_v4_^5_^6_v5_.mp3"
"","1157.6400000050198","html-button-response","287","1440869","0.0-21.0-3.6","51710","","<p>Which tone was played third after the cadence?</p><p>Please respond as quickly and as accurately as possible!</p>","4","","3","new_stimuli/mp3/melody_v7_v6_v5_^6_v5_v4_^5_^6_v5_.mp3"
"","669.8450000039302","html-button-response","288","1441542","0.0-21.0-4.6","51710","","<p>Which tone was played fourth after the cadence?</p><p>Please respond as quickly and as accurately as possible!</p>","2","","4","new_stimuli/mp3/melody_v7_v6_v5_^6_v5_v4_^5_^6_v5_.mp3"
"","558.039999996312","html-button-response","289","1442104","0.0-21.0-5.6","51710","","<p>Which tone was played fifth after the cadence?</p><p>Please respond as quickly and as accurately as possible!</p>","4","","5","new_stimuli/mp3/melody_v7_v6_v5_^6_v5_v4_^5_^6_v5_.mp3"
"","1236.23499999661","html-button-response","290","1443344","0.0-21.0-6.6","51710","","<p>Which tone was played sixth after the cadence?</p><p>Please respond as quickly and as accurately as possible!</p>","7","","6","new_stimuli/mp3/melody_v7_v6_v5_^6_v5_v4_^5_^6_v5_.mp3"
"","704.5199999993201","html-button-response","291","1444052","0.0-21.0-7.6","51710","","<p>Which tone was played seventh after the cadence?</p><p>Please respond as quickly and as accurately as possible!</p>","5","","7","new_stimuli/mp3/melody_v7_v6_v5_^6_v5_v4_^5_^6_v5_.mp3"
"","1824.8099999981932","html-button-response","292","1445879","0.0-21.0-8.6","51710","","<p>Which tone was played eight after the cadence?</p><p>Please respond as quickly and as accurately as possible!</p>","0","","8","new_stimuli/mp3/melody_v7_v6_v5_^6_v5_v4_^5_^6_v5_.mp3"
"","775.2800000016578","html-button-response","293","1446657","0.0-21.0-9.6","51710","","<p>Which tone was played nineth after the cadence?</p><p>Please respond as quickly and as accurately as possible!</p>","4","","9","new_stimuli/mp3/melody_v7_v6_v5_^6_v5_v4_^5_^6_v5_.mp3"
"","61350.035000003176","survey-text","294","1508010","0.0-22.0","51710","{""Q0"":""Terrible ones. It was so long that I wanted to give up many times. Many times I clicked a wrong name than I meant to click because I'm not used to seeing the half steps written out. ""}","","","","",""
"","12604.829999996582","survey-text","295","1520618","0.0-23.0","51710","{""Q0"":""WAY TOO LONG""}","","","","",""
"","13908.340000001714","survey-text","296","1534529","0.0-24.0","51710","{""Q0"":""I was allowed to use an instrument?!?!?!?!?!""}","","","","",""
"","3805.4950000005774","survey-text","297","1538338","0.0-25.0","51710","{""Q0"":""speakers""}","","","","",""
"","3077.3300000000745","survey-text","298","1541417","0.0-26.0","51710","{""Q0"":""Male""}","","","","",""
"","3741.0149999996647","survey-text","299","1545161","0.0-27.0","51710","{""Q0"":""yes""}","","","","",""
"[{""page_index"":0,""viewing_time"":3516.334999992978}]","3516.5999999954365","instructions","300","1548678","0.0-28.0","51710","","","","","",""
