"view_history","rt","trial_type","trial_index","time_elapsed","internal_node_id","subject","responses","stimulus","button_pressed","key_press","response_sequence","melody"
"[{""page_index"":0,""viewing_time"":1357.65999997966},{""page_index"":1,""viewing_time"":1096.5249999426305},{""page_index"":2,""viewing_time"":1125.2400000812486}]","3580.699999933131","instructions","0","3653","0.0-0.0","54631","","","","","",""
"","1688.3199999574572","survey-text","1","5344","0.0-1.0","54631","{""Q0"":""36""}","","","","",""
"","7603.5050000064075","survey-text","2","12949","0.0-2.0","54631","{""Q0"":""Finished Terminal Degree""}","","","","",""
"","5008.144999970682","survey-text","3","17958","0.0-3.0","54631","{""Q0"":""Moveable-Do""}","","","","",""
"","2829.890000051819","survey-text","4","20790","0.0-4.0","54631","{""Q0"":""No""}","","","","",""
"","27385.05499996245","survey-text","5","48177","0.0-5.0","54631","{""Q0"":""no college-level training; years of childhood training in solfege""}","","","","",""
"","13010.379999992438","survey-text","6","61189","0.0-6.0","54631","{""Q0"":""10""}","","","","",""
"[{""page_index"":0,""viewing_time"":2294.5950001012534},{""page_index"":1,""viewing_time"":14419.96999992989},{""page_index"":2,""viewing_time"":1289.145000046119}]","18004.10500005819","instructions","7","79194","0.0-7.0","54631","","","","","",""
"","7155.969999963418","audio-button-response","8","86360","0.0-8.0","54631","","stimuli/long/c-do.mp3","0","","",""
"","6615.255000069737","audio-button-response","9","92976","0.0-9.0","54631","","stimuli/long/a-le.mp3","8","","",""
"[{""page_index"":0,""viewing_time"":4181.25499994494},{""page_index"":1,""viewing_time"":22289.325000019744}]","26470.78499989584","instructions","10","119452","0.0-10.0","54631","","","","","",""
"","7376.824999926612","audio-button-response","11","126832","0.0-11.0-0.0","54631","","stimuli/long/a-mi.mp3","4","","",""
"","7358.90999995172","audio-button-response","12","134194","0.0-11.0-0.1","54631","","stimuli/long/a-do.mp3","0","","",""
"","7251.159999985248","audio-button-response","13","141447","0.0-11.0-0.2","54631","","stimuli/long/c-sol.mp3","7","","",""
"","7159.785000025295","audio-button-response","14","148609","0.0-11.0-0.3","54631","","stimuli/long/a-sol.mp3","7","","",""
"","7059.000000008382","audio-button-response","15","155670","0.0-11.0-0.4","54631","","stimuli/long/c-le.mp3","8","","",""
"","7107.629999984056","audio-button-response","16","162779","0.0-11.0-0.5","54631","","stimuli/long/a-fa.mp3","5","","",""
"","7285.604999982752","audio-button-response","17","170067","0.0-11.0-0.6","54631","","stimuli/long/a-re.mp3","2","","",""
"","7161.699999938719","audio-button-response","18","177230","0.0-11.0-0.7","54631","","stimuli/long/e-do8.mp3","12","","",""
"","7191.334999981336","audio-button-response","19","184423","0.0-11.0-0.8","54631","","stimuli/long/e-ti.mp3","11","","",""
"","8171.3699999963865","audio-button-response","20","192596","0.0-11.0-0.9","54631","","stimuli/long/e-fi.mp3","6","","",""
"","7507.895000046119","audio-button-response","21","200106","0.0-11.0-0.10","54631","","stimuli/long/a-ti.mp3","11","","",""
"","7104.590000002645","audio-button-response","22","207213","0.0-11.0-0.11","54631","","stimuli/long/a-do8.mp3","12","","",""
"","7248.269999981858","audio-button-response","23","214463","0.0-11.0-0.12","54631","","stimuli/long/c-ti.mp3","11","","",""
"","7550.49500009045","audio-button-response","24","222015","0.0-11.0-0.13","54631","","stimuli/long/a-ra.mp3","1","","",""
"","7662.254999973811","audio-button-response","25","229679","0.0-11.0-0.14","54631","","stimuli/long/c-la.mp3","9","","",""
"","7543.614999973215","audio-button-response","26","237224","0.0-11.0-0.15","54631","","stimuli/long/a-le.mp3","8","","",""
"","7359.0900000417605","audio-button-response","27","244585","0.0-11.0-0.16","54631","","stimuli/long/c-re.mp3","2","","",""
"","7244.100000010803","audio-button-response","28","251831","0.0-11.0-0.17","54631","","stimuli/long/e-la.mp3","9","","",""
"","8687.199999927543","audio-button-response","29","260520","0.0-11.0-0.18","54631","","stimuli/long/e-le.mp3","8","","",""
"","7461.084999958985","audio-button-response","30","267982","0.0-11.0-0.19","54631","","stimuli/long/c-fi.mp3","6","","",""
"","7209.4200000865385","audio-button-response","31","275194","0.0-11.0-0.20","54631","","stimuli/long/e-ra.mp3","1","","",""
"","7472.685000044294","audio-button-response","32","282668","0.0-11.0-0.21","54631","","stimuli/long/a-la.mp3","9","","",""
"","7213.87999993749","audio-button-response","33","289883","0.0-11.0-0.22","54631","","stimuli/long/c-ra.mp3","1","","",""
"","7023.4749999362975","audio-button-response","34","296908","0.0-11.0-0.23","54631","","stimuli/long/e-sol.mp3","7","","",""
"","7399.320000084117","audio-button-response","35","304309","0.0-11.0-0.24","54631","","stimuli/long/e-mi.mp3","4","","",""
"","7380.845000036061","audio-button-response","36","311691","0.0-11.0-0.25","54631","","stimuli/long/e-do.mp3","0","","",""
"","6999.685000046156","audio-button-response","37","318693","0.0-11.0-0.26","54631","","stimuli/long/c-do.mp3","0","","",""
"","7018.24999996461","audio-button-response","38","325713","0.0-11.0-0.27","54631","","stimuli/long/a-fi.mp3","6","","",""
"","7841.030000010505","audio-button-response","39","333556","0.0-11.0-0.28","54631","","stimuli/long/e-me.mp3","3","","",""
"","7195.560000021942","audio-button-response","40","340753","0.0-11.0-0.29","54631","","stimuli/long/c-me.mp3","3","","",""
"","7350.985000026412","audio-button-response","41","348106","0.0-11.0-0.30","54631","","stimuli/long/c-mi.mp3","4","","",""
"","8464.404999976978","audio-button-response","42","356572","0.0-11.0-0.31","54631","","stimuli/long/a-te.mp3","10","","",""
"","7409.089999971911","audio-button-response","43","363983","0.0-11.0-0.32","54631","","stimuli/long/e-re.mp3","2","","",""
"","7336.060000001453","audio-button-response","44","371321","0.0-11.0-0.33","54631","","stimuli/long/a-me.mp3","3","","",""
"","7426.659999997355","audio-button-response","45","378749","0.0-11.0-0.34","54631","","stimuli/long/e-te.mp3","10","","",""
"","7595.0299999676645","audio-button-response","46","386346","0.0-11.0-0.35","54631","","stimuli/long/e-fa.mp3","5","","",""
"","7286.145000020042","audio-button-response","47","393635","0.0-11.0-0.36","54631","","stimuli/long/c-do8.mp3","12","","",""
"","7286.940000019968","audio-button-response","48","400923","0.0-11.0-0.37","54631","","stimuli/long/c-fa.mp3","5","","",""
"[{""page_index"":0,""viewing_time"":9130.924999946728},{""page_index"":1,""viewing_time"":1118.544999975711}]","10249.689999967813","instructions","49","411174","0.0-12.0","54631","","","","","",""
"","null","audio-keyboard-response","50","420343","0.0-13.0-0.0","54631","","new_stimuli/mp3/melody_v5_v1+_.mp3","","null","",""
"","2280.9849999612197","html-button-response","51","422625","0.0-13.0-1.0","54631","","<p>Which tone was played first after the cadence?</p><p>Please respond as quickly and as accurately as possible!</p>","7","","1","new_stimuli/mp3/melody_v5_v1+_.mp3"
"","901.9450000487268","html-button-response","52","423529","0.0-13.0-2.0","54631","","<p>Which tone was played second after the cadence?</p><p>Please respond as quickly and as accurately as possible!</p>","1","","2","new_stimuli/mp3/melody_v5_v1+_.mp3"
"","null","audio-keyboard-response","53","432986","0.0-13.0-0.1","54631","","new_stimuli/mp3/melody_^3_v4+_buffer.mp3","","null","",""
"","1486.284999991767","html-button-response","54","434473","0.0-13.0-1.1","54631","","<p>Which tone was played first after the cadence?</p><p>Please respond as quickly and as accurately as possible!</p>","4","","1","new_stimuli/mp3/melody_^3_v4+_buffer.mp3"
"","706.7449999740347","html-button-response","55","435181","0.0-13.0-2.1","54631","","<p>Which tone was played second after the cadence?</p><p>Please respond as quickly and as accurately as possible!</p>","6","","2","new_stimuli/mp3/melody_^3_v4+_buffer.mp3"
"","null","audio-keyboard-response","56","444352","0.0-13.0-0.2","54631","","new_stimuli/mp3/melody_^5_^1+_.mp3","","null","",""
"","1049.044999992475","html-button-response","57","445403","0.0-13.0-1.2","54631","","<p>Which tone was played first after the cadence?</p><p>Please respond as quickly and as accurately as possible!</p>","7","","1","new_stimuli/mp3/melody_^5_^1+_.mp3"
"","918.9800000749528","html-button-response","58","446323","0.0-13.0-2.2","54631","","<p>Which tone was played second after the cadence?</p><p>Please respond as quickly and as accurately as possible!</p>","1","","2","new_stimuli/mp3/melody_^5_^1+_.mp3"
"","null","audio-keyboard-response","59","455754","0.0-13.0-0.3","54631","","new_stimuli/mp3/melody_v4_v3_buffer.mp3","","null","",""
"","896.3699999731034","html-button-response","60","456652","0.0-13.0-1.3","54631","","<p>Which tone was played first after the cadence?</p><p>Please respond as quickly and as accurately as possible!</p>","5","","1","new_stimuli/mp3/melody_v4_v3_buffer.mp3"
"","561.2599999876693","html-button-response","61","457216","0.0-13.0-2.3","54631","","<p>Which tone was played second after the cadence?</p><p>Please respond as quickly and as accurately as possible!</p>","4","","2","new_stimuli/mp3/melody_v4_v3_buffer.mp3"
"","null","audio-keyboard-response","62","466232","0.0-13.0-0.4","54631","","new_stimuli/mp3/melody_^1_^2+_.mp3","","null","",""
"","1032.1799999801442","html-button-response","63","467265","0.0-13.0-1.4","54631","","<p>Which tone was played first after the cadence?</p><p>Please respond as quickly and as accurately as possible!</p>","0","","1","new_stimuli/mp3/melody_^1_^2+_.mp3"
"","683.5649999557063","html-button-response","64","467950","0.0-13.0-2.4","54631","","<p>Which tone was played second after the cadence?</p><p>Please respond as quickly and as accurately as possible!</p>","3","","2","new_stimuli/mp3/melody_^1_^2+_.mp3"
"","null","audio-keyboard-response","65","477145","0.0-13.0-0.5","54631","","new_stimuli/mp3/melody_v3_v2_buffer.mp3","","null","",""
"","1026.6550000524148","html-button-response","66","478174","0.0-13.0-1.5","54631","","<p>Which tone was played first after the cadence?</p><p>Please respond as quickly and as accurately as possible!</p>","4","","1","new_stimuli/mp3/melody_v3_v2_buffer.mp3"
"","622.6749999914318","html-button-response","67","478797","0.0-13.0-2.5","54631","","<p>Which tone was played second after the cadence?</p><p>Please respond as quickly and as accurately as possible!</p>","2","","2","new_stimuli/mp3/melody_v3_v2_buffer.mp3"
"","null","audio-keyboard-response","68","487966","0.0-13.0-0.6","54631","","new_stimuli/mp3/melody_^2_v7-_.mp3","","null","",""
"","1205.7400000048801","html-button-response","69","489174","0.0-13.0-1.6","54631","","<p>Which tone was played first after the cadence?</p><p>Please respond as quickly and as accurately as possible!</p>","2","","1","new_stimuli/mp3/melody_^2_v7-_.mp3"
"","1030.5450001033023","html-button-response","70","490205","0.0-13.0-2.6","54631","","<p>Which tone was played second after the cadence?</p><p>Please respond as quickly and as accurately as possible!</p>","10","","2","new_stimuli/mp3/melody_^2_v7-_.mp3"
"","null","audio-keyboard-response","71","499269","0.0-13.0-0.7","54631","","new_stimuli/mp3/melody_v2_v1_.mp3","","null","",""
"","849.1500000236556","html-button-response","72","500119","0.0-13.0-1.7","54631","","<p>Which tone was played first after the cadence?</p><p>Please respond as quickly and as accurately as possible!</p>","2","","1","new_stimuli/mp3/melody_v2_v1_.mp3"
"","636.0150000546128","html-button-response","73","500756","0.0-13.0-2.7","54631","","<p>Which tone was played second after the cadence?</p><p>Please respond as quickly and as accurately as possible!</p>","0","","2","new_stimuli/mp3/melody_v2_v1_.mp3"
"","null","audio-keyboard-response","74","510212","0.0-13.0-0.8","54631","","new_stimuli/mp3/melody_v7_v3_buffer.mp3","","null","",""
"","776.8100000685081","html-button-response","75","510990","0.0-13.0-1.8","54631","","<p>Which tone was played first after the cadence?</p><p>Please respond as quickly and as accurately as possible!</p>","11","","1","new_stimuli/mp3/melody_v7_v3_buffer.mp3"
"","863.4600000223145","html-button-response","76","511855","0.0-13.0-2.8","54631","","<p>Which tone was played second after the cadence?</p><p>Please respond as quickly and as accurately as possible!</p>","4","","2","new_stimuli/mp3/melody_v7_v3_buffer.mp3"
"","null","audio-keyboard-response","77","521154","0.0-13.0-0.9","54631","","new_stimuli/mp3/melody_3_^6_buffer.mp3","","null","",""
"","870.809999993071","html-button-response","78","522027","0.0-13.0-1.9","54631","","<p>Which tone was played first after the cadence?</p><p>Please respond as quickly and as accurately as possible!</p>","4","","1","new_stimuli/mp3/melody_3_^6_buffer.mp3"
"","882.5449999421835","html-button-response","79","522911","0.0-13.0-2.9","54631","","<p>Which tone was played second after the cadence?</p><p>Please respond as quickly and as accurately as possible!</p>","9","","2","new_stimuli/mp3/melody_3_^6_buffer.mp3"
"[{""page_index"":0,""viewing_time"":1819.1449999576434},{""page_index"":1,""viewing_time"":1001.8400000408292},{""page_index"":2,""viewing_time"":904.2949998984113}]","3725.4799999063835","instructions","80","526637","0.0-14.0","54631","","","","","",""
"","null","audio-keyboard-response","81","536143","0.0-15.0-0.0","54631","","new_stimuli/mp3/melody_1_v1+_^2_.mp3","","null","",""
"","758.8649999815971","html-button-response","82","536904","0.0-15.0-1.0","54631","","<p>Which tone was played first after the cadence?</p><p>Please respond as quickly and as accurately as possible!</p>","0","","1","new_stimuli/mp3/melody_1_v1+_^2_.mp3"
"","542.4249999923632","html-button-response","83","537448","0.0-15.0-2.0","54631","","<p>Which tone was played second after the cadence?</p><p>Please respond as quickly and as accurately as possible!</p>","1","","2","new_stimuli/mp3/melody_1_v1+_^2_.mp3"
"","727.7049999684095","html-button-response","84","538177","0.0-15.0-3.0","54631","","<p>Which tone was played third after the cadence?</p><p>Please respond as quickly and as accurately as possible!</p>","2","","3","new_stimuli/mp3/melody_1_v1+_^2_.mp3"
"","null","audio-keyboard-response","85","547736","0.0-15.0-0.1","54631","","new_stimuli/mp3/melody_v1_v7-_^7_.mp3","","null","",""
"","853.6349999485537","html-button-response","86","548592","0.0-15.0-1.1","54631","","<p>Which tone was played first after the cadence?</p><p>Please respond as quickly and as accurately as possible!</p>","12","","1","new_stimuli/mp3/melody_v1_v7-_^7_.mp3"
"","638.0549999885261","html-button-response","87","549231","0.0-15.0-2.1","54631","","<p>Which tone was played second after the cadence?</p><p>Please respond as quickly and as accurately as possible!</p>","10","","2","new_stimuli/mp3/melody_v1_v7-_^7_.mp3"
"","516.425000037998","html-button-response","88","549749","0.0-15.0-3.1","54631","","<p>Which tone was played third after the cadence?</p><p>Please respond as quickly and as accurately as possible!</p>","11","","3","new_stimuli/mp3/melody_v1_v7-_^7_.mp3"
"","null","audio-keyboard-response","89","559701","0.0-15.0-0.2","54631","","new_stimuli/mp3/melody_v5_v4_v3_buffer.mp3","","null","",""
"","1095.3949999529868","html-button-response","90","560798","0.0-15.0-1.2","54631","","<p>Which tone was played first after the cadence?</p><p>Please respond as quickly and as accurately as possible!</p>","7","","1","new_stimuli/mp3/melody_v5_v4_v3_buffer.mp3"
"","564.4500000635162","html-button-response","91","561363","0.0-15.0-2.2","54631","","<p>Which tone was played second after the cadence?</p><p>Please respond as quickly and as accurately as possible!</p>","5","","2","new_stimuli/mp3/melody_v5_v4_v3_buffer.mp3"
"","871.2399998912588","html-button-response","92","562235","0.0-15.0-3.2","54631","","<p>Which tone was played third after the cadence?</p><p>Please respond as quickly and as accurately as possible!</p>","4","","3","new_stimuli/mp3/melody_v5_v4_v3_buffer.mp3"
"","null","audio-keyboard-response","93","571822","0.0-15.0-0.3","54631","","new_stimuli/mp3/melody_v1_v7-_7-_buffer.mp3","","null","",""
"","882.8900000080466","html-button-response","94","572707","0.0-15.0-1.3","54631","","<p>Which tone was played first after the cadence?</p><p>Please respond as quickly and as accurately as possible!</p>","12","","1","new_stimuli/mp3/melody_v1_v7-_7-_buffer.mp3"
"","439.0099999727681","html-button-response","95","573147","0.0-15.0-2.3","54631","","<p>Which tone was played second after the cadence?</p><p>Please respond as quickly and as accurately as possible!</p>","10","","2","new_stimuli/mp3/melody_v1_v7-_7-_buffer.mp3"
"","262.334999977611","html-button-response","96","573410","0.0-15.0-3.3","54631","","<p>Which tone was played third after the cadence?</p><p>Please respond as quickly and as accurately as possible!</p>","10","","3","new_stimuli/mp3/melody_v1_v7-_7-_buffer.mp3"
"","null","audio-keyboard-response","97","582968","0.0-15.0-0.4","54631","","new_stimuli/mp3/melody_v3_v2_v1_.mp3","","null","",""
"","873.4399999957532","html-button-response","98","583843","0.0-15.0-1.4","54631","","<p>Which tone was played first after the cadence?</p><p>Please respond as quickly and as accurately as possible!</p>","4","","1","new_stimuli/mp3/melody_v3_v2_v1_.mp3"
"","414.47999991942197","html-button-response","99","584259","0.0-15.0-2.4","54631","","<p>Which tone was played second after the cadence?</p><p>Please respond as quickly and as accurately as possible!</p>","2","","2","new_stimuli/mp3/melody_v3_v2_v1_.mp3"
"","463.5499999858439","html-button-response","100","584723","0.0-15.0-3.4","54631","","<p>Which tone was played third after the cadence?</p><p>Please respond as quickly and as accurately as possible!</p>","0","","3","new_stimuli/mp3/melody_v3_v2_v1_.mp3"
"","null","audio-keyboard-response","101","594363","0.0-15.0-0.5","54631","","new_stimuli/mp3/melody_6_^1_v5_.mp3","","null","",""
"","726.1550000403076","html-button-response","102","595091","0.0-15.0-1.5","54631","","<p>Which tone was played first after the cadence?</p><p>Please respond as quickly and as accurately as possible!</p>","9","","1","new_stimuli/mp3/melody_6_^1_v5_.mp3"
"","702.7900000102818","html-button-response","103","595795","0.0-15.0-2.5","54631","","<p>Which tone was played second after the cadence?</p><p>Please respond as quickly and as accurately as possible!</p>","12","","2","new_stimuli/mp3/melody_6_^1_v5_.mp3"
"","661.6250000661239","html-button-response","104","596459","0.0-15.0-3.5","54631","","<p>Which tone was played third after the cadence?</p><p>Please respond as quickly and as accurately as possible!</p>","7","","3","new_stimuli/mp3/melody_6_^1_v5_.mp3"
"","null","audio-keyboard-response","105","606363","0.0-15.0-0.6","54631","","new_stimuli/mp3/melody_^1_v6_v5+_.mp3","","null","",""
"","951.8849999876693","html-button-response","106","607316","0.0-15.0-1.6","54631","","<p>Which tone was played first after the cadence?</p><p>Please respond as quickly and as accurately as possible!</p>","12","","1","new_stimuli/mp3/melody_^1_v6_v5+_.mp3"
"","502.02999997418374","html-button-response","107","607820","0.0-15.0-2.6","54631","","<p>Which tone was played second after the cadence?</p><p>Please respond as quickly and as accurately as possible!</p>","9","","2","new_stimuli/mp3/melody_^1_v6_v5+_.mp3"
"","447.0450000371784","html-button-response","108","608268","0.0-15.0-3.6","54631","","<p>Which tone was played third after the cadence?</p><p>Please respond as quickly and as accurately as possible!</p>","8","","3","new_stimuli/mp3/melody_^1_v6_v5+_.mp3"
"","null","audio-keyboard-response","109","617961","0.0-15.0-0.7","54631","","new_stimuli/mp3/melody_v4_v3_v2_buffer.mp3","","null","",""
"","1097.2149999579415","html-button-response","110","619060","0.0-15.0-1.7","54631","","<p>Which tone was played first after the cadence?</p><p>Please respond as quickly and as accurately as possible!</p>","5","","1","new_stimuli/mp3/melody_v4_v3_v2_buffer.mp3"
"","326.2349999276921","html-button-response","111","619388","0.0-15.0-2.7","54631","","<p>Which tone was played second after the cadence?</p><p>Please respond as quickly and as accurately as possible!</p>","4","","2","new_stimuli/mp3/melody_v4_v3_v2_buffer.mp3"
"","599.8249999247491","html-button-response","112","619989","0.0-15.0-3.7","54631","","<p>Which tone was played third after the cadence?</p><p>Please respond as quickly and as accurately as possible!</p>","2","","3","new_stimuli/mp3/melody_v4_v3_v2_buffer.mp3"
"","null","audio-keyboard-response","113","629966","0.0-15.0-0.8","54631","","new_stimuli/mp3/melody_v2_v5_^3_buffer.mp3","","null","",""
"","956.125000026077","html-button-response","114","630924","0.0-15.0-1.8","54631","","<p>Which tone was played first after the cadence?</p><p>Please respond as quickly and as accurately as possible!</p>","2","","1","new_stimuli/mp3/melody_v2_v5_^3_buffer.mp3"
"","711.4149999106303","html-button-response","115","631637","0.0-15.0-2.8","54631","","<p>Which tone was played second after the cadence?</p><p>Please respond as quickly and as accurately as possible!</p>","7","","2","new_stimuli/mp3/melody_v2_v5_^3_buffer.mp3"
"","582.5549999717623","html-button-response","116","632220","0.0-15.0-3.8","54631","","<p>Which tone was played third after the cadence?</p><p>Please respond as quickly and as accurately as possible!</p>","4","","3","new_stimuli/mp3/melody_v2_v5_^3_buffer.mp3"
"[{""page_index"":0,""viewing_time"":1535.0999999791384},{""page_index"":1,""viewing_time"":2719.5000000065193},{""page_index"":2,""viewing_time"":800.3800000296906}]","5055.210000020452","instructions","117","637276","0.0-16.0","54631","","","","","",""
"","null","audio-keyboard-response","118","648223","0.0-17.0-0.0","54631","","new_stimuli/mp3/melody_^5_^6_v5_v4_v3_buffer.mp3","","null","",""
"","1044.5499999914318","html-button-response","119","649269","0.0-17.0-1.0","54631","","<p>Which tone was played first after the cadence?</p><p>Please respond as quickly and as accurately as possible!</p>","7","","1","new_stimuli/mp3/melody_^5_^6_v5_v4_v3_buffer.mp3"
"","463.36000005248934","html-button-response","120","649734","0.0-17.0-2.0","54631","","<p>Which tone was played second after the cadence?</p><p>Please respond as quickly and as accurately as possible!</p>","9","","2","new_stimuli/mp3/melody_^5_^6_v5_v4_v3_buffer.mp3"
"","397.6650000549853","html-button-response","121","650133","0.0-17.0-3.0","54631","","<p>Which tone was played third after the cadence?</p><p>Please respond as quickly and as accurately as possible!</p>","7","","3","new_stimuli/mp3/melody_^5_^6_v5_v4_v3_buffer.mp3"
"","773.9849999779835","html-button-response","122","650908","0.0-17.0-4.0","54631","","<p>Which tone was played fourth after the cadence?</p><p>Please respond as quickly and as accurately as possible!</p>","5","","4","new_stimuli/mp3/melody_^5_^6_v5_v4_v3_buffer.mp3"
"","543.1899999966845","html-button-response","123","651453","0.0-17.0-5.0","54631","","<p>Which tone was played fifth after the cadence?</p><p>Please respond as quickly and as accurately as possible!</p>","4","","5","new_stimuli/mp3/melody_^5_^6_v5_v4_v3_buffer.mp3"
"","null","audio-keyboard-response","124","662162","0.0-17.0-0.1","54631","","new_stimuli/mp3/melody_^6_v5_v4_v3_v2_buffer.mp3","","null","",""
"","946.0299999918789","html-button-response","125","663109","0.0-17.0-1.1","54631","","<p>Which tone was played first after the cadence?</p><p>Please respond as quickly and as accurately as possible!</p>","9","","1","new_stimuli/mp3/melody_^6_v5_v4_v3_v2_buffer.mp3"
"","550.8050000062212","html-button-response","126","663662","0.0-17.0-2.1","54631","","<p>Which tone was played second after the cadence?</p><p>Please respond as quickly and as accurately as possible!</p>","7","","2","new_stimuli/mp3/melody_^6_v5_v4_v3_v2_buffer.mp3"
"","606.8199999863282","html-button-response","127","664270","0.0-17.0-3.1","54631","","<p>Which tone was played third after the cadence?</p><p>Please respond as quickly and as accurately as possible!</p>","5","","3","new_stimuli/mp3/melody_^6_v5_v4_v3_v2_buffer.mp3"
"","581.9500000216067","html-button-response","128","664853","0.0-17.0-4.1","54631","","<p>Which tone was played fourth after the cadence?</p><p>Please respond as quickly and as accurately as possible!</p>","4","","4","new_stimuli/mp3/melody_^6_v5_v4_v3_v2_buffer.mp3"
"","743.3050000108778","html-button-response","129","665598","0.0-17.0-5.1","54631","","<p>Which tone was played fifth after the cadence?</p><p>Please respond as quickly and as accurately as possible!</p>","2","","5","new_stimuli/mp3/melody_^6_v5_v4_v3_v2_buffer.mp3"
"","null","audio-keyboard-response","130","676234","0.0-17.0-0.2","54631","","new_stimuli/mp3/melody_v5_^6+_^7_^1_5_.mp3","","null","",""
"","930.6950001046062","html-button-response","131","677166","0.0-17.0-1.2","54631","","<p>Which tone was played first after the cadence?</p><p>Please respond as quickly and as accurately as possible!</p>","7","","1","new_stimuli/mp3/melody_v5_^6+_^7_^1_5_.mp3"
"","462.33999996911734","html-button-response","132","677629","0.0-17.0-2.2","54631","","<p>Which tone was played second after the cadence?</p><p>Please respond as quickly and as accurately as possible!</p>","9","","2","new_stimuli/mp3/melody_v5_^6+_^7_^1_5_.mp3"
"","583.2550000632182","html-button-response","133","678213","0.0-17.0-3.2","54631","","<p>Which tone was played third after the cadence?</p><p>Please respond as quickly and as accurately as possible!</p>","11","","3","new_stimuli/mp3/melody_v5_^6+_^7_^1_5_.mp3"
"","575.1199999358505","html-button-response","134","678790","0.0-17.0-4.2","54631","","<p>Which tone was played fourth after the cadence?</p><p>Please respond as quickly and as accurately as possible!</p>","12","","4","new_stimuli/mp3/melody_v5_^6+_^7_^1_5_.mp3"
"","694.1949999891222","html-button-response","135","679486","0.0-17.0-5.2","54631","","<p>Which tone was played fifth after the cadence?</p><p>Please respond as quickly and as accurately as possible!</p>","7","","5","new_stimuli/mp3/melody_v5_^6+_^7_^1_5_.mp3"
"","null","audio-keyboard-response","136","690067","0.0-17.0-0.3","54631","","new_stimuli/mp3/melody_v5_v4_v3_v2_v1_.mp3","","null","",""
"","825.1600000075996","html-button-response","137","690894","0.0-17.0-1.3","54631","","<p>Which tone was played first after the cadence?</p><p>Please respond as quickly and as accurately as possible!</p>","7","","1","new_stimuli/mp3/melody_v5_v4_v3_v2_v1_.mp3"
"","542.9949999088421","html-button-response","138","691438","0.0-17.0-2.3","54631","","<p>Which tone was played second after the cadence?</p><p>Please respond as quickly and as accurately as possible!</p>","5","","2","new_stimuli/mp3/melody_v5_v4_v3_v2_v1_.mp3"
"","590.7100000185892","html-button-response","139","692030","0.0-17.0-3.3","54631","","<p>Which tone was played third after the cadence?</p><p>Please respond as quickly and as accurately as possible!</p>","4","","3","new_stimuli/mp3/melody_v5_v4_v3_v2_v1_.mp3"
"","446.14499993622303","html-button-response","140","692478","0.0-17.0-4.3","54631","","<p>Which tone was played fourth after the cadence?</p><p>Please respond as quickly and as accurately as possible!</p>","2","","4","new_stimuli/mp3/melody_v5_v4_v3_v2_v1_.mp3"
"","766.620000009425","html-button-response","141","693246","0.0-17.0-5.3","54631","","<p>Which tone was played fifth after the cadence?</p><p>Please respond as quickly and as accurately as possible!</p>","0","","5","new_stimuli/mp3/melody_v5_v4_v3_v2_v1_.mp3"
"","null","audio-keyboard-response","142","703825","0.0-17.0-0.4","54631","","new_stimuli/mp3/melody_v2_2_^3_^4_v2_.mp3","","null","",""
"","1099.2349999723956","html-button-response","143","704926","0.0-17.0-1.4","54631","","<p>Which tone was played first after the cadence?</p><p>Please respond as quickly and as accurately as possible!</p>","2","","1","new_stimuli/mp3/melody_v2_2_^3_^4_v2_.mp3"
"","367.5299999304116","html-button-response","144","705295","0.0-17.0-2.4","54631","","<p>Which tone was played second after the cadence?</p><p>Please respond as quickly and as accurately as possible!</p>","2","","2","new_stimuli/mp3/melody_v2_2_^3_^4_v2_.mp3"
"","589.4749999279156","html-button-response","145","705886","0.0-17.0-3.4","54631","","<p>Which tone was played third after the cadence?</p><p>Please respond as quickly and as accurately as possible!</p>","4","","3","new_stimuli/mp3/melody_v2_2_^3_^4_v2_.mp3"
"","415.5699999537319","html-button-response","146","706303","0.0-17.0-4.4","54631","","<p>Which tone was played fourth after the cadence?</p><p>Please respond as quickly and as accurately as possible!</p>","5","","4","new_stimuli/mp3/melody_v2_2_^3_^4_v2_.mp3"
"","774.3450000416487","html-button-response","147","707078","0.0-17.0-5.4","54631","","<p>Which tone was played fifth after the cadence?</p><p>Please respond as quickly and as accurately as possible!</p>","2","","5","new_stimuli/mp3/melody_v2_2_^3_^4_v2_.mp3"
"","null","audio-keyboard-response","148","718025","0.0-17.0-0.5","54631","","new_stimuli/mp3/melody_v5-_v3_3_^4+_v3_.mp3","","null","",""
"","988.454999984242","html-button-response","149","719015","0.0-17.0-1.5","54631","","<p>Which tone was played first after the cadence?</p><p>Please respond as quickly and as accurately as possible!</p>","6","","1","new_stimuli/mp3/melody_v5-_v3_3_^4+_v3_.mp3"
"","591.0000000149012","html-button-response","150","719607","0.0-17.0-2.5","54631","","<p>Which tone was played second after the cadence?</p><p>Please respond as quickly and as accurately as possible!</p>","4","","2","new_stimuli/mp3/melody_v5-_v3_3_^4+_v3_.mp3"
"","310.5149999028072","html-button-response","151","719919","0.0-17.0-3.5","54631","","<p>Which tone was played third after the cadence?</p><p>Please respond as quickly and as accurately as possible!</p>","4","","3","new_stimuli/mp3/melody_v5-_v3_3_^4+_v3_.mp3"
"","631.1200000345707","html-button-response","152","720551","0.0-17.0-4.5","54631","","<p>Which tone was played fourth after the cadence?</p><p>Please respond as quickly and as accurately as possible!</p>","6","","4","new_stimuli/mp3/melody_v5-_v3_3_^4+_v3_.mp3"
"","566.0749999806285","html-button-response","153","721119","0.0-17.0-5.5","54631","","<p>Which tone was played fifth after the cadence?</p><p>Please respond as quickly and as accurately as possible!</p>","4","","5","new_stimuli/mp3/melody_v5-_v3_3_^4+_v3_.mp3"
"","null","audio-keyboard-response","154","731702","0.0-17.0-0.6","54631","","new_stimuli/mp3/melody_v5_v4_v3_v2_v1 _buffer.mp3","","null","",""
"","999.7849999926984","html-button-response","155","732703","0.0-17.0-1.6","54631","","<p>Which tone was played first after the cadence?</p><p>Please respond as quickly and as accurately as possible!</p>","7","","1","new_stimuli/mp3/melody_v5_v4_v3_v2_v1 _buffer.mp3"
"","462.4299999559298","html-button-response","156","733167","0.0-17.0-2.6","54631","","<p>Which tone was played second after the cadence?</p><p>Please respond as quickly and as accurately as possible!</p>","5","","2","new_stimuli/mp3/melody_v5_v4_v3_v2_v1 _buffer.mp3"
"","439.3150000832975","html-button-response","157","733608","0.0-17.0-3.6","54631","","<p>Which tone was played third after the cadence?</p><p>Please respond as quickly and as accurately as possible!</p>","4","","3","new_stimuli/mp3/melody_v5_v4_v3_v2_v1 _buffer.mp3"
"","574.2200000677258","html-button-response","158","734183","0.0-17.0-4.6","54631","","<p>Which tone was played fourth after the cadence?</p><p>Please respond as quickly and as accurately as possible!</p>","2","","4","new_stimuli/mp3/melody_v5_v4_v3_v2_v1 _buffer.mp3"
"","735.0299999816343","html-button-response","159","734920","0.0-17.0-5.6","54631","","<p>Which tone was played fifth after the cadence?</p><p>Please respond as quickly and as accurately as possible!</p>","0","","5","new_stimuli/mp3/melody_v5_v4_v3_v2_v1 _buffer.mp3"
"","null","audio-keyboard-response","160","745553","0.0-17.0-0.7","54631","","new_stimuli/mp3/melody_^6_v4_v3_^4_^5_.mp3","","null","",""
"","1061.5850000176579","html-button-response","161","746616","0.0-17.0-1.7","54631","","<p>Which tone was played first after the cadence?</p><p>Please respond as quickly and as accurately as possible!</p>","9","","1","new_stimuli/mp3/melody_^6_v4_v3_^4_^5_.mp3"
"","1006.1650000279769","html-button-response","162","747624","0.0-17.0-2.7","54631","","<p>Which tone was played second after the cadence?</p><p>Please respond as quickly and as accurately as possible!</p>","5","","2","new_stimuli/mp3/melody_^6_v4_v3_^4_^5_.mp3"
"","678.6550000542775","html-button-response","163","748304","0.0-17.0-3.7","54631","","<p>Which tone was played third after the cadence?</p><p>Please respond as quickly and as accurately as possible!</p>","4","","3","new_stimuli/mp3/melody_^6_v4_v3_^4_^5_.mp3"
"","414.6649999311194","html-button-response","164","748720","0.0-17.0-4.7","54631","","<p>Which tone was played fourth after the cadence?</p><p>Please respond as quickly and as accurately as possible!</p>","5","","4","new_stimuli/mp3/melody_^6_v4_v3_^4_^5_.mp3"
"","502.4800000246614","html-button-response","165","749224","0.0-17.0-5.7","54631","","<p>Which tone was played fifth after the cadence?</p><p>Please respond as quickly and as accurately as possible!</p>","7","","5","new_stimuli/mp3/melody_^6_v4_v3_^4_^5_.mp3"
"[{""page_index"":0,""viewing_time"":2814.959999988787},{""page_index"":1,""viewing_time"":720.075000077486},{""page_index"":2,""viewing_time"":655.9899999992922}]","4191.259999992326","instructions","166","753415","0.0-18.0","54631","","","","","",""
"","null","audio-keyboard-response","167","764989","0.0-19.0-0.0","54631","","new_stimuli/mp3/melody_^5_^6_v5_v4_v3_v2_v1_buffer.mp3","","null","",""
"","938.2699999259785","html-button-response","168","765929","0.0-19.0-1.0","54631","","<p>Which tone was played first after the cadence?</p><p>Please respond as quickly and as accurately as possible!</p>","7","","1","new_stimuli/mp3/melody_^5_^6_v5_v4_v3_v2_v1_buffer.mp3"
"","638.3749999804422","html-button-response","169","766568","0.0-19.0-2.0","54631","","<p>Which tone was played second after the cadence?</p><p>Please respond as quickly and as accurately as possible!</p>","9","","2","new_stimuli/mp3/melody_^5_^6_v5_v4_v3_v2_v1_buffer.mp3"
"","454.95499996468425","html-button-response","170","767024","0.0-19.0-3.0","54631","","<p>Which tone was played third after the cadence?</p><p>Please respond as quickly and as accurately as possible!</p>","7","","3","new_stimuli/mp3/melody_^5_^6_v5_v4_v3_v2_v1_buffer.mp3"
"","582.7700000954792","html-button-response","171","767608","0.0-19.0-4.0","54631","","<p>Which tone was played fourth after the cadence?</p><p>Please respond as quickly and as accurately as possible!</p>","5","","4","new_stimuli/mp3/melody_^5_^6_v5_v4_v3_v2_v1_buffer.mp3"
"","463.0050000268966","html-button-response","172","768073","0.0-19.0-5.0","54631","","<p>Which tone was played fifth after the cadence?</p><p>Please respond as quickly and as accurately as possible!</p>","4","","5","new_stimuli/mp3/melody_^5_^6_v5_v4_v3_v2_v1_buffer.mp3"
"","814.2450000159442","html-button-response","173","768888","0.0-19.0-6.0","54631","","<p>Which tone was played sixth after the cadence?</p><p>Please respond as quickly and as accurately as possible!</p>","2","","6","new_stimuli/mp3/melody_^5_^6_v5_v4_v3_v2_v1_buffer.mp3"
"","525.3849999280646","html-button-response","174","769416","0.0-19.0-7.0","54631","","<p>Which tone was played seventh after the cadence?</p><p>Please respond as quickly and as accurately as possible!</p>","0","","7","new_stimuli/mp3/melody_^5_^6_v5_v4_v3_v2_v1_buffer.mp3"
"","null","audio-keyboard-response","175","781115","0.0-19.0-0.1","54631","","new_stimuli/mp3/melody_^4_^5_^6_v5_v4_v3_v2_.mp3","","null","",""
"","1027.8350000735372","html-button-response","176","782145","0.0-19.0-1.1","54631","","<p>Which tone was played first after the cadence?</p><p>Please respond as quickly and as accurately as possible!</p>","5","","1","new_stimuli/mp3/melody_^4_^5_^6_v5_v4_v3_v2_.mp3"
"","615.1250000111759","html-button-response","177","782762","0.0-19.0-2.1","54631","","<p>Which tone was played second after the cadence?</p><p>Please respond as quickly and as accurately as possible!</p>","7","","2","new_stimuli/mp3/melody_^4_^5_^6_v5_v4_v3_v2_.mp3"
"","621.5199999278411","html-button-response","178","783384","0.0-19.0-3.1","54631","","<p>Which tone was played third after the cadence?</p><p>Please respond as quickly and as accurately as possible!</p>","9","","3","new_stimuli/mp3/melody_^4_^5_^6_v5_v4_v3_v2_.mp3"
"","471.35000000707805","html-button-response","179","783857","0.0-19.0-4.1","54631","","<p>Which tone was played fourth after the cadence?</p><p>Please respond as quickly and as accurately as possible!</p>","7","","4","new_stimuli/mp3/melody_^4_^5_^6_v5_v4_v3_v2_.mp3"
"","638.3400000631809","html-button-response","180","784497","0.0-19.0-5.1","54631","","<p>Which tone was played fifth after the cadence?</p><p>Please respond as quickly and as accurately as possible!</p>","5","","5","new_stimuli/mp3/melody_^4_^5_^6_v5_v4_v3_v2_.mp3"
"","503.25499998871237","html-button-response","181","785001","0.0-19.0-6.1","54631","","<p>Which tone was played sixth after the cadence?</p><p>Please respond as quickly and as accurately as possible!</p>","4","","6","new_stimuli/mp3/melody_^4_^5_^6_v5_v4_v3_v2_.mp3"
"","534.540000022389","html-button-response","182","785537","0.0-19.0-7.1","54631","","<p>Which tone was played seventh after the cadence?</p><p>Please respond as quickly and as accurately as possible!</p>","2","","7","new_stimuli/mp3/melody_^4_^5_^6_v5_v4_v3_v2_.mp3"
"","null","audio-keyboard-response","183","797184","0.0-19.0-0.2","54631","","new_stimuli/mp3/melody_^6_v5+_v4_^5+_v3_v1_v7-_.mp3","","null","",""
"","991.7350000469014","html-button-response","184","798178","0.0-19.0-1.2","54631","","<p>Which tone was played first after the cadence?</p><p>Please respond as quickly and as accurately as possible!</p>","9","","1","new_stimuli/mp3/melody_^6_v5+_v4_^5+_v3_v1_v7-_.mp3"
"","440.0899999309331","html-button-response","185","798619","0.0-19.0-2.2","54631","","<p>Which tone was played second after the cadence?</p><p>Please respond as quickly and as accurately as possible!</p>","8","","2","new_stimuli/mp3/melody_^6_v5+_v4_^5+_v3_v1_v7-_.mp3"
"","852.7250000042841","html-button-response","186","799473","0.0-19.0-3.2","54631","","<p>Which tone was played third after the cadence?</p><p>Please respond as quickly and as accurately as possible!</p>","5","","3","new_stimuli/mp3/melody_^6_v5+_v4_^5+_v3_v1_v7-_.mp3"
"","1183.6900000926107","html-button-response","187","800658","0.0-19.0-4.2","54631","","<p>Which tone was played fourth after the cadence?</p><p>Please respond as quickly and as accurately as possible!</p>","8","","4","new_stimuli/mp3/melody_^6_v5+_v4_^5+_v3_v1_v7-_.mp3"
"","1054.5700000366196","html-button-response","188","801714","0.0-19.0-5.2","54631","","<p>Which tone was played fifth after the cadence?</p><p>Please respond as quickly and as accurately as possible!</p>","4","","5","new_stimuli/mp3/melody_^6_v5+_v4_^5+_v3_v1_v7-_.mp3"
"","822.4949999712408","html-button-response","189","802537","0.0-19.0-6.2","54631","","<p>Which tone was played sixth after the cadence?</p><p>Please respond as quickly and as accurately as possible!</p>","0","","6","new_stimuli/mp3/melody_^6_v5+_v4_^5+_v3_v1_v7-_.mp3"
"","655.3250000579283","html-button-response","190","803194","0.0-19.0-7.2","54631","","<p>Which tone was played seventh after the cadence?</p><p>Please respond as quickly and as accurately as possible!</p>","10","","7","new_stimuli/mp3/melody_^6_v5+_v4_^5+_v3_v1_v7-_.mp3"
"","null","audio-keyboard-response","191","815157","0.0-19.0-0.3","54631","","new_stimuli/mp3/melody_1_^3_v1_^5_v3_v2_^3_.mp3","","null","",""
"","627.4949999060482","html-button-response","192","815786","0.0-19.0-1.3","54631","","<p>Which tone was played first after the cadence?</p><p>Please respond as quickly and as accurately as possible!</p>","0","","1","new_stimuli/mp3/melody_1_^3_v1_^5_v3_v2_^3_.mp3"
"","854.4700000202283","html-button-response","193","816641","0.0-19.0-2.3","54631","","<p>Which tone was played second after the cadence?</p><p>Please respond as quickly and as accurately as possible!</p>","4","","2","new_stimuli/mp3/melody_1_^3_v1_^5_v3_v2_^3_.mp3"
"","670.9950000513345","html-button-response","194","817314","0.0-19.0-3.3","54631","","<p>Which tone was played third after the cadence?</p><p>Please respond as quickly and as accurately as possible!</p>","0","","3","new_stimuli/mp3/melody_1_^3_v1_^5_v3_v2_^3_.mp3"
"","974.6300000697374","html-button-response","195","818290","0.0-19.0-4.3","54631","","<p>Which tone was played fourth after the cadence?</p><p>Please respond as quickly and as accurately as possible!</p>","7","","4","new_stimuli/mp3/melody_1_^3_v1_^5_v3_v2_^3_.mp3"
"","559.0399999637157","html-button-response","196","818850","0.0-19.0-5.3","54631","","<p>Which tone was played fifth after the cadence?</p><p>Please respond as quickly and as accurately as possible!</p>","4","","5","new_stimuli/mp3/melody_1_^3_v1_^5_v3_v2_^3_.mp3"
"","438.13999998383224","html-button-response","197","819290","0.0-19.0-6.3","54631","","<p>Which tone was played sixth after the cadence?</p><p>Please respond as quickly and as accurately as possible!</p>","2","","6","new_stimuli/mp3/melody_1_^3_v1_^5_v3_v2_^3_.mp3"
"","710.6550000607967","html-button-response","198","820002","0.0-19.0-7.3","54631","","<p>Which tone was played seventh after the cadence?</p><p>Please respond as quickly and as accurately as possible!</p>","4","","7","new_stimuli/mp3/melody_1_^3_v1_^5_v3_v2_^3_.mp3"
"","null","audio-keyboard-response","199","831702","0.0-19.0-0.4","54631","","new_stimuli/mp3/melody_v1_^2_v1_v7_^1_^3_v2_.mp3","","null","",""
"","715.1050000684336","html-button-response","200","832418","0.0-19.0-1.4","54631","","<p>Which tone was played first after the cadence?</p><p>Please respond as quickly and as accurately as possible!</p>","0","","1","new_stimuli/mp3/melody_v1_^2_v1_v7_^1_^3_v2_.mp3"
"","639.0299999620765","html-button-response","201","833059","0.0-19.0-2.4","54631","","<p>Which tone was played second after the cadence?</p><p>Please respond as quickly and as accurately as possible!</p>","2","","2","new_stimuli/mp3/melody_v1_^2_v1_v7_^1_^3_v2_.mp3"
"","503.859999938868","html-button-response","202","833564","0.0-19.0-3.4","54631","","<p>Which tone was played third after the cadence?</p><p>Please respond as quickly and as accurately as possible!</p>","0","","3","new_stimuli/mp3/melody_v1_^2_v1_v7_^1_^3_v2_.mp3"
"","965.5250000068918","html-button-response","203","834531","0.0-19.0-4.4","54631","","<p>Which tone was played fourth after the cadence?</p><p>Please respond as quickly and as accurately as possible!</p>","11","","4","new_stimuli/mp3/melody_v1_^2_v1_v7_^1_^3_v2_.mp3"
"","926.7700000200421","html-button-response","204","835459","0.0-19.0-5.4","54631","","<p>Which tone was played fifth after the cadence?</p><p>Please respond as quickly and as accurately as possible!</p>","0","","5","new_stimuli/mp3/melody_v1_^2_v1_v7_^1_^3_v2_.mp3"
"","526.7799999564886","html-button-response","205","835987","0.0-19.0-6.4","54631","","<p>Which tone was played sixth after the cadence?</p><p>Please respond as quickly and as accurately as possible!</p>","4","","6","new_stimuli/mp3/melody_v1_^2_v1_v7_^1_^3_v2_.mp3"
"","622.484999941662","html-button-response","206","836611","0.0-19.0-7.4","54631","","<p>Which tone was played seventh after the cadence?</p><p>Please respond as quickly and as accurately as possible!</p>","2","","7","new_stimuli/mp3/melody_v1_^2_v1_v7_^1_^3_v2_.mp3"
"","null","audio-keyboard-response","207","848310","0.0-19.0-0.5","54631","","new_stimuli/mp3/melody_^1_v7_v6_v5_v4_v3_v2_buffer.mp3","","null","",""
"","658.8650000048801","html-button-response","208","848971","0.0-19.0-1.5","54631","","<p>Which tone was played first after the cadence?</p><p>Please respond as quickly and as accurately as possible!</p>","12","","1","new_stimuli/mp3/melody_^1_v7_v6_v5_v4_v3_v2_buffer.mp3"
"","558.8950000237674","html-button-response","209","849531","0.0-19.0-2.5","54631","","<p>Which tone was played second after the cadence?</p><p>Please respond as quickly and as accurately as possible!</p>","11","","2","new_stimuli/mp3/melody_^1_v7_v6_v5_v4_v3_v2_buffer.mp3"
"","686.3750000484288","html-button-response","210","850219","0.0-19.0-3.5","54631","","<p>Which tone was played third after the cadence?</p><p>Please respond as quickly and as accurately as possible!</p>","9","","3","new_stimuli/mp3/melody_^1_v7_v6_v5_v4_v3_v2_buffer.mp3"
"","678.4850000403821","html-button-response","211","850899","0.0-19.0-4.5","54631","","<p>Which tone was played fourth after the cadence?</p><p>Please respond as quickly and as accurately as possible!</p>","7","","4","new_stimuli/mp3/melody_^1_v7_v6_v5_v4_v3_v2_buffer.mp3"
"","686.2000001128763","html-button-response","212","851587","0.0-19.0-5.5","54631","","<p>Which tone was played fifth after the cadence?</p><p>Please respond as quickly and as accurately as possible!</p>","5","","5","new_stimuli/mp3/melody_^1_v7_v6_v5_v4_v3_v2_buffer.mp3"
"","742.655000067316","html-button-response","213","852331","0.0-19.0-6.5","54631","","<p>Which tone was played sixth after the cadence?</p><p>Please respond as quickly and as accurately as possible!</p>","4","","6","new_stimuli/mp3/melody_^1_v7_v6_v5_v4_v3_v2_buffer.mp3"
"","542.8550000069663","html-button-response","214","852875","0.0-19.0-7.5","54631","","<p>Which tone was played seventh after the cadence?</p><p>Please respond as quickly and as accurately as possible!</p>","2","","7","new_stimuli/mp3/melody_^1_v7_v6_v5_v4_v3_v2_buffer.mp3"
"","null","audio-keyboard-response","215","864553","0.0-19.0-0.6","54631","","new_stimuli/mp3/melody_^4_v6-_v5-_^6-_^4_v2-_2-_.mp3","","null","",""
"","984.9000000394881","html-button-response","216","865540","0.0-19.0-1.6","54631","","<p>Which tone was played first after the cadence?</p><p>Please respond as quickly and as accurately as possible!</p>","5","","1","new_stimuli/mp3/melody_^4_v6-_v5-_^6-_^4_v2-_2-_.mp3"
"","2846.679999958724","html-button-response","217","868388","0.0-19.0-2.6","54631","","<p>Which tone was played second after the cadence?</p><p>Please respond as quickly and as accurately as possible!</p>","8","","2","new_stimuli/mp3/melody_^4_v6-_v5-_^6-_^4_v2-_2-_.mp3"
"","550.5400000838563","html-button-response","218","868940","0.0-19.0-3.6","54631","","<p>Which tone was played third after the cadence?</p><p>Please respond as quickly and as accurately as possible!</p>","6","","3","new_stimuli/mp3/melody_^4_v6-_v5-_^6-_^4_v2-_2-_.mp3"
"","566.5049999952316","html-button-response","219","869508","0.0-19.0-4.6","54631","","<p>Which tone was played fourth after the cadence?</p><p>Please respond as quickly and as accurately as possible!</p>","8","","4","new_stimuli/mp3/melody_^4_v6-_v5-_^6-_^4_v2-_2-_.mp3"
"","734.9850001046434","html-button-response","220","870244","0.0-19.0-5.6","54631","","<p>Which tone was played fifth after the cadence?</p><p>Please respond as quickly and as accurately as possible!</p>","5","","5","new_stimuli/mp3/melody_^4_v6-_v5-_^6-_^4_v2-_2-_.mp3"
"","934.1499999864027","html-button-response","221","871179","0.0-19.0-6.6","54631","","<p>Which tone was played sixth after the cadence?</p><p>Please respond as quickly and as accurately as possible!</p>","1","","6","new_stimuli/mp3/melody_^4_v6-_v5-_^6-_^4_v2-_2-_.mp3"
"","351.2549999868497","html-button-response","222","871532","0.0-19.0-7.6","54631","","<p>Which tone was played seventh after the cadence?</p><p>Please respond as quickly and as accurately as possible!</p>","1","","7","new_stimuli/mp3/melody_^4_v6-_v5-_^6-_^4_v2-_2-_.mp3"
"[{""page_index"":0,""viewing_time"":1742.4449999816716},{""page_index"":1,""viewing_time"":847.8599999798462},{""page_index"":2,""viewing_time"":856.7200000397861}]","3447.2850000020117","instructions","223","874980","0.0-20.0","54631","","","","","",""
"","null","audio-keyboard-response","224","887623","0.0-21.0-0.0","54631","","new_stimuli/mp3/melody_v7_v6_v5_^6_v5_v4_^5_^6_v5_.mp3","","null","",""
"","1323.4200000297278","html-button-response","225","888948","0.0-21.0-1.0","54631","","<p>Which tone was played first after the cadence?</p><p>Please respond as quickly and as accurately as possible!</p>","11","","1","new_stimuli/mp3/melody_v7_v6_v5_^6_v5_v4_^5_^6_v5_.mp3"
"","654.8599998932332","html-button-response","226","889604","0.0-21.0-2.0","54631","","<p>Which tone was played second after the cadence?</p><p>Please respond as quickly and as accurately as possible!</p>","9","","2","new_stimuli/mp3/melody_v7_v6_v5_^6_v5_v4_^5_^6_v5_.mp3"
"","478.6950000561774","html-button-response","227","890084","0.0-21.0-3.0","54631","","<p>Which tone was played third after the cadence?</p><p>Please respond as quickly and as accurately as possible!</p>","7","","3","new_stimuli/mp3/melody_v7_v6_v5_^6_v5_v4_^5_^6_v5_.mp3"
"","558.5700001101941","html-button-response","228","890644","0.0-21.0-4.0","54631","","<p>Which tone was played fourth after the cadence?</p><p>Please respond as quickly and as accurately as possible!</p>","5","","4","new_stimuli/mp3/melody_v7_v6_v5_^6_v5_v4_^5_^6_v5_.mp3"
"","535.3050000267103","html-button-response","229","891180","0.0-21.0-5.0","54631","","<p>Which tone was played fifth after the cadence?</p><p>Please respond as quickly and as accurately as possible!</p>","7","","5","new_stimuli/mp3/melody_v7_v6_v5_^6_v5_v4_^5_^6_v5_.mp3"
"","630.04999991972","html-button-response","230","891812","0.0-21.0-6.0","54631","","<p>Which tone was played sixth after the cadence?</p><p>Please respond as quickly and as accurately as possible!</p>","9","","6","new_stimuli/mp3/melody_v7_v6_v5_^6_v5_v4_^5_^6_v5_.mp3"
"","502.5700000114739","html-button-response","231","892316","0.0-21.0-7.0","54631","","<p>Which tone was played seventh after the cadence?</p><p>Please respond as quickly and as accurately as possible!</p>","7","","7","new_stimuli/mp3/melody_v7_v6_v5_^6_v5_v4_^5_^6_v5_.mp3"
"","486.74999992363155","html-button-response","232","892804","0.0-21.0-8.0","54631","","<p>Which tone was played eight after the cadence?</p><p>Please respond as quickly and as accurately as possible!</p>","5","","8","new_stimuli/mp3/melody_v7_v6_v5_^6_v5_v4_^5_^6_v5_.mp3"
"","478.6049999529496","html-button-response","233","893284","0.0-21.0-9.0","54631","","<p>Which tone was played nineth after the cadence?</p><p>Please respond as quickly and as accurately as possible!</p>","7","","9","new_stimuli/mp3/melody_v7_v6_v5_^6_v5_v4_^5_^6_v5_.mp3"
"","null","audio-keyboard-response","234","906217","0.0-21.0-0.1","54631","","new_stimuli/mp3/melody_^2_^4_v3_v2_v1_v3_v2+_^3_^5+_.mp3","","null","",""
"","746.2600000435486","html-button-response","235","906964","0.0-21.0-1.1","54631","","<p>Which tone was played first after the cadence?</p><p>Please respond as quickly and as accurately as possible!</p>","1","","1","new_stimuli/mp3/melody_^2_^4_v3_v2_v1_v3_v2+_^3_^5+_.mp3"
"","902.6799999410287","html-button-response","236","907869","0.0-21.0-2.1","54631","","<p>Which tone was played second after the cadence?</p><p>Please respond as quickly and as accurately as possible!</p>","5","","2","new_stimuli/mp3/melody_^2_^4_v3_v2_v1_v3_v2+_^3_^5+_.mp3"
"","1166.704999981448","html-button-response","237","909037","0.0-21.0-3.1","54631","","<p>Which tone was played third after the cadence?</p><p>Please respond as quickly and as accurately as possible!</p>","4","","3","new_stimuli/mp3/melody_^2_^4_v3_v2_v1_v3_v2+_^3_^5+_.mp3"
"","598.8050000742078","html-button-response","238","909637","0.0-21.0-4.1","54631","","<p>Which tone was played fourth after the cadence?</p><p>Please respond as quickly and as accurately as possible!</p>","2","","4","new_stimuli/mp3/melody_^2_^4_v3_v2_v1_v3_v2+_^3_^5+_.mp3"
"","790.3299999888986","html-button-response","239","910428","0.0-21.0-5.1","54631","","<p>Which tone was played fifth after the cadence?</p><p>Please respond as quickly and as accurately as possible!</p>","0","","5","new_stimuli/mp3/melody_^2_^4_v3_v2_v1_v3_v2+_^3_^5+_.mp3"
"","1310.9699999913573","html-button-response","240","911741","0.0-21.0-6.1","54631","","<p>Which tone was played sixth after the cadence?</p><p>Please respond as quickly and as accurately as possible!</p>","4","","6","new_stimuli/mp3/melody_^2_^4_v3_v2_v1_v3_v2+_^3_^5+_.mp3"
"","494.9400000041351","html-button-response","241","912237","0.0-21.0-7.1","54631","","<p>Which tone was played seventh after the cadence?</p><p>Please respond as quickly and as accurately as possible!</p>","3","","7","new_stimuli/mp3/melody_^2_^4_v3_v2_v1_v3_v2+_^3_^5+_.mp3"
"","494.59499993827194","html-button-response","242","912732","0.0-21.0-8.1","54631","","<p>Which tone was played eight after the cadence?</p><p>Please respond as quickly and as accurately as possible!</p>","4","","8","new_stimuli/mp3/melody_^2_^4_v3_v2_v1_v3_v2+_^3_^5+_.mp3"
"","726.9549999618903","html-button-response","243","913461","0.0-21.0-9.1","54631","","<p>Which tone was played nineth after the cadence?</p><p>Please respond as quickly and as accurately as possible!</p>","8","","9","new_stimuli/mp3/melody_^2_^4_v3_v2_v1_v3_v2+_^3_^5+_.mp3"
"","null","audio-keyboard-response","244","926157","0.0-21.0-0.2","54631","","new_stimuli/mp3/melody_^2_^3_^4_^5_^6_v5_v4_v3_v2_buffer.mp3","","null","",""
"","1190.4250000370666","html-button-response","245","927349","0.0-21.0-1.2","54631","","<p>Which tone was played first after the cadence?</p><p>Please respond as quickly and as accurately as possible!</p>","2","","1","new_stimuli/mp3/melody_^2_^3_^4_^5_^6_v5_v4_v3_v2_buffer.mp3"
"","590.4450000962242","html-button-response","246","927941","0.0-21.0-2.2","54631","","<p>Which tone was played second after the cadence?</p><p>Please respond as quickly and as accurately as possible!</p>","4","","2","new_stimuli/mp3/melody_^2_^3_^4_^5_^6_v5_v4_v3_v2_buffer.mp3"
"","454.909999971278","html-button-response","247","928397","0.0-21.0-3.2","54631","","<p>Which tone was played third after the cadence?</p><p>Please respond as quickly and as accurately as possible!</p>","5","","3","new_stimuli/mp3/melody_^2_^3_^4_^5_^6_v5_v4_v3_v2_buffer.mp3"
"","502.6700000744313","html-button-response","248","928901","0.0-21.0-4.2","54631","","<p>Which tone was played fourth after the cadence?</p><p>Please respond as quickly and as accurately as possible!</p>","7","","4","new_stimuli/mp3/melody_^2_^3_^4_^5_^6_v5_v4_v3_v2_buffer.mp3"
"","494.75499999243766","html-button-response","249","929397","0.0-21.0-5.2","54631","","<p>Which tone was played fifth after the cadence?</p><p>Please respond as quickly and as accurately as possible!</p>","9","","5","new_stimuli/mp3/melody_^2_^3_^4_^5_^6_v5_v4_v3_v2_buffer.mp3"
"","494.7600000305101","html-button-response","250","929893","0.0-21.0-6.2","54631","","<p>Which tone was played sixth after the cadence?</p><p>Please respond as quickly and as accurately as possible!</p>","7","","6","new_stimuli/mp3/melody_^2_^3_^4_^5_^6_v5_v4_v3_v2_buffer.mp3"
"","583.3499999716878","html-button-response","251","930477","0.0-21.0-7.2","54631","","<p>Which tone was played seventh after the cadence?</p><p>Please respond as quickly and as accurately as possible!</p>","5","","7","new_stimuli/mp3/melody_^2_^3_^4_^5_^6_v5_v4_v3_v2_buffer.mp3"
"","494.71499992068857","html-button-response","252","930973","0.0-21.0-8.2","54631","","<p>Which tone was played eight after the cadence?</p><p>Please respond as quickly and as accurately as possible!</p>","4","","8","new_stimuli/mp3/melody_^2_^3_^4_^5_^6_v5_v4_v3_v2_buffer.mp3"
"","478.8300000363961","html-button-response","253","931454","0.0-21.0-9.2","54631","","<p>Which tone was played nineth after the cadence?</p><p>Please respond as quickly and as accurately as possible!</p>","2","","9","new_stimuli/mp3/melody_^2_^3_^4_^5_^6_v5_v4_v3_v2_buffer.mp3"
"","null","audio-keyboard-response","254","944020","0.0-21.0-0.3","54631","","new_stimuli/mp3/melody_^3_^4_^5 _^6_v5_v4_v3_v2_v1_.mp3","","null","",""
"","1039.809999987483","html-button-response","255","945061","0.0-21.0-1.3","54631","","<p>Which tone was played first after the cadence?</p><p>Please respond as quickly and as accurately as possible!</p>","4","","1","new_stimuli/mp3/melody_^3_^4_^5 _^6_v5_v4_v3_v2_v1_.mp3"
"","462.595000048168","html-button-response","256","945525","0.0-21.0-2.3","54631","","<p>Which tone was played second after the cadence?</p><p>Please respond as quickly and as accurately as possible!</p>","5","","2","new_stimuli/mp3/melody_^3_^4_^5 _^6_v5_v4_v3_v2_v1_.mp3"
"","599.0150000434369","html-button-response","257","946126","0.0-21.0-3.3","54631","","<p>Which tone was played third after the cadence?</p><p>Please respond as quickly and as accurately as possible!</p>","7","","3","new_stimuli/mp3/melody_^3_^4_^5 _^6_v5_v4_v3_v2_v1_.mp3"
"","471.0699999704957","html-button-response","258","946598","0.0-21.0-4.3","54631","","<p>Which tone was played fourth after the cadence?</p><p>Please respond as quickly and as accurately as possible!</p>","8","","4","new_stimuli/mp3/melody_^3_^4_^5 _^6_v5_v4_v3_v2_v1_.mp3"
"","134.13999998010695","html-button-response","259","946734","0.0-21.0-5.3","54631","","<p>Which tone was played fifth after the cadence?</p><p>Please respond as quickly and as accurately as possible!</p>","8","","5","new_stimuli/mp3/melody_^3_^4_^5 _^6_v5_v4_v3_v2_v1_.mp3"
"","1814.6249999990687","html-button-response","260","948550","0.0-21.0-6.3","54631","","<p>Which tone was played sixth after the cadence?</p><p>Please respond as quickly and as accurately as possible!</p>","5","","6","new_stimuli/mp3/melody_^3_^4_^5 _^6_v5_v4_v3_v2_v1_.mp3"
"","583.3250000141561","html-button-response","261","949135","0.0-21.0-7.3","54631","","<p>Which tone was played seventh after the cadence?</p><p>Please respond as quickly and as accurately as possible!</p>","4","","7","new_stimuli/mp3/melody_^3_^4_^5 _^6_v5_v4_v3_v2_v1_.mp3"
"","509.955000015907","html-button-response","262","949646","0.0-21.0-8.3","54631","","<p>Which tone was played eight after the cadence?</p><p>Please respond as quickly and as accurately as possible!</p>","2","","8","new_stimuli/mp3/melody_^3_^4_^5 _^6_v5_v4_v3_v2_v1_.mp3"
"","639.0050000045449","html-button-response","263","950286","0.0-21.0-9.3","54631","","<p>Which tone was played nineth after the cadence?</p><p>Please respond as quickly and as accurately as possible!</p>","0","","9","new_stimuli/mp3/melody_^3_^4_^5 _^6_v5_v4_v3_v2_v1_.mp3"
"","null","audio-keyboard-response","264","962927","0.0-21.0-0.4","54631","","new_stimuli/mp3/melody_^3_^4_v2_v7_^1_^2_^3_3_^4_.mp3","","null","",""
"","1149.5799999684095","html-button-response","265","964078","0.0-21.0-1.4","54631","","<p>Which tone was played first after the cadence?</p><p>Please respond as quickly and as accurately as possible!</p>","4","","1","new_stimuli/mp3/melody_^3_^4_v2_v7_^1_^2_^3_3_^4_.mp3"
"","526.5849999850616","html-button-response","266","964606","0.0-21.0-2.4","54631","","<p>Which tone was played second after the cadence?</p><p>Please respond as quickly and as accurately as possible!</p>","5","","2","new_stimuli/mp3/melody_^3_^4_v2_v7_^1_^2_^3_3_^4_.mp3"
"","862.7550000092015","html-button-response","267","965471","0.0-21.0-3.4","54631","","<p>Which tone was played third after the cadence?</p><p>Please respond as quickly and as accurately as possible!</p>","2","","3","new_stimuli/mp3/melody_^3_^4_v2_v7_^1_^2_^3_3_^4_.mp3"
"","878.2549999887124","html-button-response","268","966350","0.0-21.0-4.4","54631","","<p>Which tone was played fourth after the cadence?</p><p>Please respond as quickly and as accurately as possible!</p>","11","","4","new_stimuli/mp3/melody_^3_^4_v2_v7_^1_^2_^3_3_^4_.mp3"
"","959.3200000235811","html-button-response","269","967311","0.0-21.0-5.4","54631","","<p>Which tone was played fifth after the cadence?</p><p>Please respond as quickly and as accurately as possible!</p>","0","","5","new_stimuli/mp3/melody_^3_^4_v2_v7_^1_^2_^3_3_^4_.mp3"
"","558.2649999996647","html-button-response","270","967870","0.0-21.0-6.4","54631","","<p>Which tone was played sixth after the cadence?</p><p>Please respond as quickly and as accurately as possible!</p>","2","","6","new_stimuli/mp3/melody_^3_^4_v2_v7_^1_^2_^3_3_^4_.mp3"
"","678.7149999290705","html-button-response","271","968550","0.0-21.0-7.4","54631","","<p>Which tone was played seventh after the cadence?</p><p>Please respond as quickly and as accurately as possible!</p>","4","","7","new_stimuli/mp3/melody_^3_^4_v2_v7_^1_^2_^3_3_^4_.mp3"
"","310.0200000917539","html-button-response","272","968862","0.0-21.0-8.4","54631","","<p>Which tone was played eight after the cadence?</p><p>Please respond as quickly and as accurately as possible!</p>","4","","8","new_stimuli/mp3/melody_^3_^4_v2_v7_^1_^2_^3_3_^4_.mp3"
"","446.65499997790903","html-button-response","273","969310","0.0-21.0-9.4","54631","","<p>Which tone was played nineth after the cadence?</p><p>Please respond as quickly and as accurately as possible!</p>","5","","9","new_stimuli/mp3/melody_^3_^4_v2_v7_^1_^2_^3_3_^4_.mp3"
"","null","audio-keyboard-response","274","981951","0.0-21.0-0.5","54631","","new_stimuli/mp3/melody_v5_v4_v6+_^7_^3+_v3_v2_v5_^4_.mp3","","null","",""
"","1582.505000056699","html-button-response","275","983535","0.0-21.0-1.5","54631","","<p>Which tone was played first after the cadence?</p><p>Please respond as quickly and as accurately as possible!</p>","7","","1","new_stimuli/mp3/melody_v5_v4_v6+_^7_^3+_v3_v2_v5_^4_.mp3"
"","934.2800000449643","html-button-response","276","984471","0.0-21.0-2.5","54631","","<p>Which tone was played second after the cadence?</p><p>Please respond as quickly and as accurately as possible!</p>","6","","2","new_stimuli/mp3/melody_v5_v4_v6+_^7_^3+_v3_v2_v5_^4_.mp3"
"","510.5749999638647","html-button-response","277","984983","0.0-21.0-3.5","54631","","<p>Which tone was played third after the cadence?</p><p>Please respond as quickly and as accurately as possible!</p>","5","","3","new_stimuli/mp3/melody_v5_v4_v6+_^7_^3+_v3_v2_v5_^4_.mp3"
"","1983.0000000074506","html-button-response","278","986967","0.0-21.0-4.5","54631","","<p>Which tone was played fourth after the cadence?</p><p>Please respond as quickly and as accurately as possible!</p>","9","","4","new_stimuli/mp3/melody_v5_v4_v6+_^7_^3+_v3_v2_v5_^4_.mp3"
"","862.3450000304729","html-button-response","279","987831","0.0-21.0-5.5","54631","","<p>Which tone was played fifth after the cadence?</p><p>Please respond as quickly and as accurately as possible!</p>","4","","5","new_stimuli/mp3/melody_v5_v4_v6+_^7_^3+_v3_v2_v5_^4_.mp3"
"","478.99500001221895","html-button-response","280","988311","0.0-21.0-6.5","54631","","<p>Which tone was played sixth after the cadence?</p><p>Please respond as quickly and as accurately as possible!</p>","3","","6","new_stimuli/mp3/melody_v5_v4_v6+_^7_^3+_v3_v2_v5_^4_.mp3"
"","622.9550000280142","html-button-response","281","988935","0.0-21.0-7.5","54631","","<p>Which tone was played seventh after the cadence?</p><p>Please respond as quickly and as accurately as possible!</p>","2","","7","new_stimuli/mp3/melody_v5_v4_v6+_^7_^3+_v3_v2_v5_^4_.mp3"
"","1494.6400000480935","html-button-response","282","990431","0.0-21.0-8.5","54631","","<p>Which tone was played eight after the cadence?</p><p>Please respond as quickly and as accurately as possible!</p>","7","","8","new_stimuli/mp3/melody_v5_v4_v6+_^7_^3+_v3_v2_v5_^4_.mp3"
"","526.1399999726564","html-button-response","283","990959","0.0-21.0-9.5","54631","","<p>Which tone was played nineth after the cadence?</p><p>Please respond as quickly and as accurately as possible!</p>","5","","9","new_stimuli/mp3/melody_v5_v4_v6+_^7_^3+_v3_v2_v5_^4_.mp3"
"","null","audio-keyboard-response","284","1003912","0.0-21.0-0.6","54631","","new_stimuli/mp3/melody_^5_^6_v5_v4_v3_v2_v1_^2_^3_buffer.mp3","","null","",""
"","1006.0049999738112","html-button-response","285","1004919","0.0-21.0-1.6","54631","","<p>Which tone was played first after the cadence?</p><p>Please respond as quickly and as accurately as possible!</p>","7","","1","new_stimuli/mp3/melody_^5_^6_v5_v4_v3_v2_v1_^2_^3_buffer.mp3"
"","470.83999996539205","html-button-response","286","1005392","0.0-21.0-2.6","54631","","<p>Which tone was played second after the cadence?</p><p>Please respond as quickly and as accurately as possible!</p>","9","","2","new_stimuli/mp3/melody_^5_^6_v5_v4_v3_v2_v1_^2_^3_buffer.mp3"
"","517.3400000203401","html-button-response","287","1005911","0.0-21.0-3.6","54631","","<p>Which tone was played third after the cadence?</p><p>Please respond as quickly and as accurately as possible!</p>","7","","3","new_stimuli/mp3/melody_^5_^6_v5_v4_v3_v2_v1_^2_^3_buffer.mp3"
"","663.5500000556931","html-button-response","288","1006576","0.0-21.0-4.6","54631","","<p>Which tone was played fourth after the cadence?</p><p>Please respond as quickly and as accurately as possible!</p>","5","","4","new_stimuli/mp3/melody_^5_^6_v5_v4_v3_v2_v1_^2_^3_buffer.mp3"
"","486.3449999829754","html-button-response","289","1007064","0.0-21.0-5.6","54631","","<p>Which tone was played fifth after the cadence?</p><p>Please respond as quickly and as accurately as possible!</p>","4","","5","new_stimuli/mp3/melody_^5_^6_v5_v4_v3_v2_v1_^2_^3_buffer.mp3"
"","694.480000063777","html-button-response","290","1007760","0.0-21.0-6.6","54631","","<p>Which tone was played sixth after the cadence?</p><p>Please respond as quickly and as accurately as possible!</p>","2","","6","new_stimuli/mp3/melody_^5_^6_v5_v4_v3_v2_v1_^2_^3_buffer.mp3"
"","471.2200000649318","html-button-response","291","1008232","0.0-21.0-7.6","54631","","<p>Which tone was played seventh after the cadence?</p><p>Please respond as quickly and as accurately as possible!</p>","0","","7","new_stimuli/mp3/melody_^5_^6_v5_v4_v3_v2_v1_^2_^3_buffer.mp3"
"","758.7850000709295","html-button-response","292","1008992","0.0-21.0-8.6","54631","","<p>Which tone was played eight after the cadence?</p><p>Please respond as quickly and as accurately as possible!</p>","2","","8","new_stimuli/mp3/melody_^5_^6_v5_v4_v3_v2_v1_^2_^3_buffer.mp3"
"","718.6550000915304","html-button-response","293","1009712","0.0-21.0-9.6","54631","","<p>Which tone was played nineth after the cadence?</p><p>Please respond as quickly and as accurately as possible!</p>","4","","9","new_stimuli/mp3/melody_^5_^6_v5_v4_v3_v2_v1_^2_^3_buffer.mp3"
"","91059.63500007056","survey-text","294","1100776","0.0-22.0","54631","{""Q0"":""Primarily chunking. It was easy to do when things were stepwise or arpeggiating; just pay attention to where the contour shifts direction. It was really hard when the melody didn't confirm the key, however; I could usually come up with a new key to justify the pattern or way of thinking about it (sometimes as a set of very local relationships), but it took longer and the more I had to think about it to come up with a framework for chunking, the more it interfered with my ability to simultaneously retain the melody.""}","","","","",""
"","4559.099999954924","survey-text","295","1105336","0.0-23.0","54631","{""Q0"":""""}","","","","",""
"","3925.2250000135973","survey-text","296","1109263","0.0-24.0","54631","{""Q0"":""No""}","","","","",""
"","4982.904999982566","survey-text","297","1114247","0.0-25.0","54631","{""Q0"":""Computer speakers""}","","","","",""
"","2983.724999940023","survey-text","298","1117233","0.0-26.0","54631","{""Q0"":""Male""}","","","","",""
"","2691.0599999828264","survey-text","299","1119925","0.0-27.0","54631","{""Q0"":""Yes""}","","","","",""
"[{""page_index"":0,""viewing_time"":3424.8549999902025}]","3425.1850000582635","instructions","300","1123351","0.0-28.0","54631","","","","","",""
