"view_history","rt","trial_type","trial_index","time_elapsed","internal_node_id","subject","responses","stimulus","button_pressed","key_press","response_sequence","melody"
"[{""page_index"":0,""viewing_time"":3766.8200000189245},{""page_index"":1,""viewing_time"":7132.065000012517},{""page_index"":2,""viewing_time"":2348.4000000171363}]","13249.885000055656","instructions","0","13267","0.0-0.0","55070","","","","","",""
"","3799.9650000128895","survey-text","1","17077","0.0-1.0","55070","{""Q0"":""42""}","","","","",""
"","14035.19999992568","survey-text","2","31117","0.0-2.0","55070","{""Q0"":""Finished Terminal Degree (Ph.D.)""}","","","","",""
"","10455.4749999661","survey-text","3","41575","0.0-3.0","55070","{""Q0"":""moveable do with do-based minor""}","","","","",""
"","4044.9299999745563","survey-text","4","45622","0.0-4.0","55070","{""Q0"":""no""}","","","","",""
"","9952.485000016168","survey-text","5","55578","0.0-5.0","55070","{""Q0"":""90""}","","","","",""
"","6518.585000070743","survey-text","6","62100","0.0-6.0","55070","{""Q0"":""5""}","","","","",""
"[{""page_index"":0,""viewing_time"":1799.2899999953806},{""page_index"":1,""viewing_time"":17456.37499995064},{""page_index"":2,""viewing_time"":1724.4900000514463}]","20980.949999997392","instructions","7","83083","0.0-7.0","55070","","","","","",""
"","11580.475000082515","audio-button-response","8","94674","0.0-8.0","55070","","stimuli/long/c-do.mp3","0","","",""
"","18577.43499998469","audio-button-response","9","113258","0.0-9.0","55070","","stimuli/long/a-le.mp3","8","","",""
"[{""page_index"":0,""viewing_time"":4163.025000016205},{""page_index"":1,""viewing_time"":18404.929999960586}]","22570.240000030026","instructions","10","135831","0.0-10.0","55070","","","","","",""
"","10016.625000047497","audio-button-response","11","145857","0.0-11.0-0.0","55070","","stimuli/long/e-fi.mp3","6","","",""
"","8417.424999992363","audio-button-response","12","154282","0.0-11.0-0.1","55070","","stimuli/long/e-ti.mp3","11","","",""
"","8785.520000034012","audio-button-response","13","163073","0.0-11.0-0.2","55070","","stimuli/long/e-la.mp3","9","","",""
"","10256.135000032373","audio-button-response","14","173336","0.0-11.0-0.3","55070","","stimuli/long/a-la.mp3","9","","",""
"","12175.290000042878","audio-button-response","15","185518","0.0-11.0-0.4","55070","","stimuli/long/c-la.mp3","9","","",""
"","17107.895000022836","audio-button-response","16","202632","0.0-11.0-0.5","55070","","stimuli/long/e-me.mp3","4","","",""
"","7629.674999974668","audio-button-response","17","210268","0.0-11.0-0.6","55070","","stimuli/long/e-do.mp3","0","","",""
"","9868.664999958128","audio-button-response","18","220143","0.0-11.0-0.7","55070","","stimuli/long/c-mi.mp3","4","","",""
"","7650.634999969043","audio-button-response","19","227801","0.0-11.0-0.8","55070","","stimuli/long/c-do8.mp3","12","","",""
"","12180.860000080429","audio-button-response","20","239988","0.0-11.0-0.9","55070","","stimuli/long/a-mi.mp3","3","","",""
"","8461.099999956787","audio-button-response","21","248458","0.0-11.0-0.10","55070","","stimuli/long/a-sol.mp3","7","","",""
"","11998.474999913014","audio-button-response","22","260468","0.0-11.0-0.11","55070","","stimuli/long/a-le.mp3","8","","",""
"","8182.7099999645725","audio-button-response","23","268659","0.0-11.0-0.12","55070","","stimuli/long/a-fa.mp3","5","","",""
"","15875.145000056364","audio-button-response","24","284541","0.0-11.0-0.13","55070","","stimuli/long/e-re.mp3","2","","",""
"","9828.56999989599","audio-button-response","25","294376","0.0-11.0-0.14","55070","","stimuli/long/e-le.mp3","8","","",""
"","9367.369999992661","audio-button-response","26","303751","0.0-11.0-0.15","55070","","stimuli/long/e-mi.mp3","4","","",""
"","16238.604999962263","audio-button-response","27","319996","0.0-11.0-0.16","55070","","stimuli/long/c-me.mp3","3","","",""
"","7746.820000000298","audio-button-response","28","327750","0.0-11.0-0.17","55070","","stimuli/long/a-fi.mp3","6","","",""
"","7437.8100000321865","audio-button-response","29","335195","0.0-11.0-0.18","55070","","stimuli/long/a-do.mp3","0","","",""
"","10963.579999981448","audio-button-response","30","346167","0.0-11.0-0.19","55070","","stimuli/long/c-le.mp3","8","","",""
"","10835.379999945872","audio-button-response","31","357009","0.0-11.0-0.20","55070","","stimuli/long/e-te.mp3","10","","",""
"","8467.50000002794","audio-button-response","32","365483","0.0-11.0-0.21","55070","","stimuli/long/a-re.mp3","2","","",""
"","9438.839999958873","audio-button-response","33","374931","0.0-11.0-0.22","55070","","stimuli/long/e-fa.mp3","5","","",""
"","8177.864999976009","audio-button-response","34","383116","0.0-11.0-0.23","55070","","stimuli/long/a-ra.mp3","1","","",""
"","null","audio-button-response","35","403123","0.0-11.0-0.24","55070","","stimuli/long/c-fi.mp3","null","","",""
"","1550.1999999396503","audio-button-response","36","404682","0.0-11.0-0.25","55070","","stimuli/long/a-ti.mp3","6","","",""
"","9748.099999967963","audio-button-response","37","414436","0.0-11.0-0.26","55070","","stimuli/long/e-sol.mp3","7","","",""
"","10021.180000039749","audio-button-response","38","424464","0.0-11.0-0.27","55070","","stimuli/long/c-ti.mp3","11","","",""
"","15227.42000001017","audio-button-response","39","439698","0.0-11.0-0.28","55070","","stimuli/long/e-ra.mp3","8","","",""
"","11113.08999999892","audio-button-response","40","450817","0.0-11.0-0.29","55070","","stimuli/long/a-me.mp3","3","","",""
"","7908.584999968298","audio-button-response","41","458732","0.0-11.0-0.30","55070","","stimuli/long/a-do8.mp3","12","","",""
"","7501.709999982268","audio-button-response","42","466243","0.0-11.0-0.31","55070","","stimuli/long/e-do8.mp3","12","","",""
"","7763.139999937266","audio-button-response","43","474014","0.0-11.0-0.32","55070","","stimuli/long/c-re.mp3","2","","",""
"","13473.28000003472","audio-button-response","44","487494","0.0-11.0-0.33","55070","","stimuli/long/a-te.mp3","8","","",""
"","10077.189999981783","audio-button-response","45","497580","0.0-11.0-0.34","55070","","stimuli/long/c-sol.mp3","7","","",""
"","7605.065000010654","audio-button-response","46","505191","0.0-11.0-0.35","55070","","stimuli/long/c-ra.mp3","1","","",""
"","7930.389999994077","audio-button-response","47","513126","0.0-11.0-0.36","55070","","stimuli/long/c-fa.mp3","5","","",""
"","7447.874999954365","audio-button-response","48","520581","0.0-11.0-0.37","55070","","stimuli/long/c-do.mp3","0","","",""
"[{""page_index"":0,""viewing_time"":16798.545000026934},{""page_index"":1,""viewing_time"":4860.140000004321}]","21660.510000074282","instructions","49","542244","0.0-12.0","55070","","","","","",""
"","null","audio-keyboard-response","50","551261","0.0-13.0-0.0","55070","","new_stimuli/mp3/melody_^1_^2+_.mp3","","null","",""
"","1547.7549999486655","html-button-response","51","552819","0.0-13.0-1.0","55070","","<p>Which tone was played first after the cadence?</p><p>Please respond as quickly and as accurately as possible!</p>","0","","1","new_stimuli/mp3/melody_^1_^2+_.mp3"
"","1030.9200000483543","html-button-response","52","553855","0.0-13.0-2.0","55070","","<p>Which tone was played second after the cadence?</p><p>Please respond as quickly and as accurately as possible!</p>","3","","2","new_stimuli/mp3/melody_^1_^2+_.mp3"
"","null","audio-keyboard-response","53","563151","0.0-13.0-0.1","55070","","new_stimuli/mp3/melody_3_^6_buffer.mp3","","null","",""
"","5705.544999917038","html-button-response","54","568860","0.0-13.0-1.1","55070","","<p>Which tone was played first after the cadence?</p><p>Please respond as quickly and as accurately as possible!</p>","4","","1","new_stimuli/mp3/melody_3_^6_buffer.mp3"
"","1295.1849999371916","html-button-response","55","570160","0.0-13.0-2.1","55070","","<p>Which tone was played second after the cadence?</p><p>Please respond as quickly and as accurately as possible!</p>","9","","2","new_stimuli/mp3/melody_3_^6_buffer.mp3"
"","null","audio-keyboard-response","56","579230","0.0-13.0-0.2","55070","","new_stimuli/mp3/melody_v2_v1_.mp3","","null","",""
"","1044.0399999497458","html-button-response","57","580278","0.0-13.0-1.2","55070","","<p>Which tone was played first after the cadence?</p><p>Please respond as quickly and as accurately as possible!</p>","2","","1","new_stimuli/mp3/melody_v2_v1_.mp3"
"","665.9900000086054","html-button-response","58","580946","0.0-13.0-2.2","55070","","<p>Which tone was played second after the cadence?</p><p>Please respond as quickly and as accurately as possible!</p>","0","","2","new_stimuli/mp3/melody_v2_v1_.mp3"
"","null","audio-keyboard-response","59","590380","0.0-13.0-0.3","55070","","new_stimuli/mp3/melody_v4_v3_buffer.mp3","","null","",""
"","941.5099999168888","html-button-response","60","591327","0.0-13.0-1.3","55070","","<p>Which tone was played first after the cadence?</p><p>Please respond as quickly and as accurately as possible!</p>","5","","1","new_stimuli/mp3/melody_v4_v3_buffer.mp3"
"","783.5650000488386","html-button-response","61","592113","0.0-13.0-2.3","55070","","<p>Which tone was played second after the cadence?</p><p>Please respond as quickly and as accurately as possible!</p>","4","","2","new_stimuli/mp3/melody_v4_v3_buffer.mp3"
"","null","audio-keyboard-response","62","601281","0.0-13.0-0.4","55070","","new_stimuli/mp3/melody_^2_v7-_.mp3","","null","",""
"","2931.0350000159815","html-button-response","63","604218","0.0-13.0-1.4","55070","","<p>Which tone was played first after the cadence?</p><p>Please respond as quickly and as accurately as possible!</p>","2","","1","new_stimuli/mp3/melody_^2_v7-_.mp3"
"","1011.5200000582263","html-button-response","64","605236","0.0-13.0-2.4","55070","","<p>Which tone was played second after the cadence?</p><p>Please respond as quickly and as accurately as possible!</p>","10","","2","new_stimuli/mp3/melody_^2_v7-_.mp3"
"","null","audio-keyboard-response","65","614430","0.0-13.0-0.5","55070","","new_stimuli/mp3/melody_v3_v2_buffer.mp3","","null","",""
"","1255.1400000229478","html-button-response","66","615688","0.0-13.0-1.5","55070","","<p>Which tone was played first after the cadence?</p><p>Please respond as quickly and as accurately as possible!</p>","4","","1","new_stimuli/mp3/melody_v3_v2_buffer.mp3"
"","695.5050000688061","html-button-response","67","616386","0.0-13.0-2.5","55070","","<p>Which tone was played second after the cadence?</p><p>Please respond as quickly and as accurately as possible!</p>","2","","2","new_stimuli/mp3/melody_v3_v2_buffer.mp3"
"","null","audio-keyboard-response","68","625550","0.0-13.0-0.6","55070","","new_stimuli/mp3/melody_v5_v1+_.mp3","","null","",""
"","12750.090000103228","html-button-response","69","638306","0.0-13.0-1.6","55070","","<p>Which tone was played first after the cadence?</p><p>Please respond as quickly and as accurately as possible!</p>","7","","1","new_stimuli/mp3/melody_v5_v1+_.mp3"
"","1544.2150000017136","html-button-response","70","639856","0.0-13.0-2.6","55070","","<p>Which tone was played second after the cadence?</p><p>Please respond as quickly and as accurately as possible!</p>","1","","2","new_stimuli/mp3/melody_v5_v1+_.mp3"
"","null","audio-keyboard-response","71","649311","0.0-13.0-0.7","55070","","new_stimuli/mp3/melody_^3_v4+_buffer.mp3","","null","",""
"","10044.579999987036","html-button-response","72","659366","0.0-13.0-1.7","55070","","<p>Which tone was played first after the cadence?</p><p>Please respond as quickly and as accurately as possible!</p>","4","","1","new_stimuli/mp3/melody_^3_v4+_buffer.mp3"
"","977.2349999984726","html-button-response","73","660348","0.0-13.0-2.7","55070","","<p>Which tone was played second after the cadence?</p><p>Please respond as quickly and as accurately as possible!</p>","6","","2","new_stimuli/mp3/melody_^3_v4+_buffer.mp3"
"","null","audio-keyboard-response","74","669521","0.0-13.0-0.8","55070","","new_stimuli/mp3/melody_^5_^1+_.mp3","","null","",""
"","1596.2649999419227","html-button-response","75","671121","0.0-13.0-1.8","55070","","<p>Which tone was played first after the cadence?</p><p>Please respond as quickly and as accurately as possible!</p>","7","","1","new_stimuli/mp3/melody_^5_^1+_.mp3"
"","4563.360000029206","html-button-response","76","675686","0.0-13.0-2.8","55070","","<p>Which tone was played second after the cadence?</p><p>Please respond as quickly and as accurately as possible!</p>","1","","2","new_stimuli/mp3/melody_^5_^1+_.mp3"
"","null","audio-keyboard-response","77","685142","0.0-13.0-0.9","55070","","new_stimuli/mp3/melody_v7_v3_buffer.mp3","","null","",""
"","936.989999958314","html-button-response","78","686084","0.0-13.0-1.9","55070","","<p>Which tone was played first after the cadence?</p><p>Please respond as quickly and as accurately as possible!</p>","11","","1","new_stimuli/mp3/melody_v7_v3_buffer.mp3"
"","971.4349999558181","html-button-response","79","687066","0.0-13.0-2.9","55070","","<p>Which tone was played second after the cadence?</p><p>Please respond as quickly and as accurately as possible!</p>","4","","2","new_stimuli/mp3/melody_v7_v3_buffer.mp3"
"[{""page_index"":0,""viewing_time"":2633.259999915026},{""page_index"":1,""viewing_time"":1748.0300000170246},{""page_index"":2,""viewing_time"":1307.340000057593}]","5689.535000012256","instructions","80","692757","0.0-14.0","55070","","","","","",""
"","null","audio-keyboard-response","81","702741","0.0-15.0-0.0","55070","","new_stimuli/mp3/melody_v2_v5_^3_buffer.mp3","","null","",""
"","1906.0949999839067","html-button-response","82","704653","0.0-15.0-1.0","55070","","<p>Which tone was played first after the cadence?</p><p>Please respond as quickly and as accurately as possible!</p>","2","","1","new_stimuli/mp3/melody_v2_v5_^3_buffer.mp3"
"","2173.94999996759","html-button-response","83","706835","0.0-15.0-2.0","55070","","<p>Which tone was played second after the cadence?</p><p>Please respond as quickly and as accurately as possible!</p>","7","","2","new_stimuli/mp3/melody_v2_v5_^3_buffer.mp3"
"","976.7850000644103","html-button-response","84","707818","0.0-15.0-3.0","55070","","<p>Which tone was played third after the cadence?</p><p>Please respond as quickly and as accurately as possible!</p>","4","","3","new_stimuli/mp3/melody_v2_v5_^3_buffer.mp3"
"","null","audio-keyboard-response","85","717719","0.0-15.0-0.1","55070","","new_stimuli/mp3/melody_^1_v6_v5+_.mp3","","null","",""
"","2130.394999985583","html-button-response","86","719851","0.0-15.0-1.1","55070","","<p>Which tone was played first after the cadence?</p><p>Please respond as quickly and as accurately as possible!</p>","12","","1","new_stimuli/mp3/melody_^1_v6_v5+_.mp3"
"","1183.034999994561","html-button-response","87","721036","0.0-15.0-2.1","55070","","<p>Which tone was played second after the cadence?</p><p>Please respond as quickly and as accurately as possible!</p>","9","","2","new_stimuli/mp3/melody_^1_v6_v5+_.mp3"
"","996.6850000200793","html-button-response","88","722036","0.0-15.0-3.1","55070","","<p>Which tone was played third after the cadence?</p><p>Please respond as quickly and as accurately as possible!</p>","8","","3","new_stimuli/mp3/melody_^1_v6_v5+_.mp3"
"","null","audio-keyboard-response","89","731730","0.0-15.0-0.2","55070","","new_stimuli/mp3/melody_v4_v3_v2_buffer.mp3","","null","",""
"","1121.099999989383","html-button-response","90","732860","0.0-15.0-1.2","55070","","<p>Which tone was played first after the cadence?</p><p>Please respond as quickly and as accurately as possible!</p>","5","","1","new_stimuli/mp3/melody_v4_v3_v2_buffer.mp3"
"","586.3600000739098","html-button-response","91","733451","0.0-15.0-2.2","55070","","<p>Which tone was played second after the cadence?</p><p>Please respond as quickly and as accurately as possible!</p>","4","","2","new_stimuli/mp3/melody_v4_v3_v2_buffer.mp3"
"","566.3750000530854","html-button-response","92","734020","0.0-15.0-3.2","55070","","<p>Which tone was played third after the cadence?</p><p>Please respond as quickly and as accurately as possible!</p>","2","","3","new_stimuli/mp3/melody_v4_v3_v2_buffer.mp3"
"","null","audio-keyboard-response","93","743980","0.0-15.0-0.3","55070","","new_stimuli/mp3/melody_v5_v4_v3_buffer.mp3","","null","",""
"","980.6199999293312","html-button-response","94","744966","0.0-15.0-1.3","55070","","<p>Which tone was played first after the cadence?</p><p>Please respond as quickly and as accurately as possible!</p>","7","","1","new_stimuli/mp3/melody_v5_v4_v3_buffer.mp3"
"","743.5500000137836","html-button-response","95","745712","0.0-15.0-2.3","55070","","<p>Which tone was played second after the cadence?</p><p>Please respond as quickly and as accurately as possible!</p>","5","","2","new_stimuli/mp3/melody_v5_v4_v3_buffer.mp3"
"","621.9800000544637","html-button-response","96","746336","0.0-15.0-3.3","55070","","<p>Which tone was played third after the cadence?</p><p>Please respond as quickly and as accurately as possible!</p>","4","","3","new_stimuli/mp3/melody_v5_v4_v3_buffer.mp3"
"","null","audio-keyboard-response","97","755900","0.0-15.0-0.4","55070","","new_stimuli/mp3/melody_v3_v2_v1_.mp3","","null","",""
"","1259.4899999676272","html-button-response","98","757166","0.0-15.0-1.4","55070","","<p>Which tone was played first after the cadence?</p><p>Please respond as quickly and as accurately as possible!</p>","4","","1","new_stimuli/mp3/melody_v3_v2_v1_.mp3"
"","593.5599999502301","html-button-response","99","757763","0.0-15.0-2.4","55070","","<p>Which tone was played second after the cadence?</p><p>Please respond as quickly and as accurately as possible!</p>","2","","2","new_stimuli/mp3/melody_v3_v2_v1_.mp3"
"","554.5250000432134","html-button-response","100","758320","0.0-15.0-3.4","55070","","<p>Which tone was played third after the cadence?</p><p>Please respond as quickly and as accurately as possible!</p>","0","","3","new_stimuli/mp3/melody_v3_v2_v1_.mp3"
"","null","audio-keyboard-response","101","767960","0.0-15.0-0.5","55070","","new_stimuli/mp3/melody_6_^1_v5_.mp3","","null","",""
"","2646.629999973811","html-button-response","102","770612","0.0-15.0-1.5","55070","","<p>Which tone was played first after the cadence?</p><p>Please respond as quickly and as accurately as possible!</p>","9","","1","new_stimuli/mp3/melody_6_^1_v5_.mp3"
"","680.8450000826269","html-button-response","103","771297","0.0-15.0-2.5","55070","","<p>Which tone was played second after the cadence?</p><p>Please respond as quickly and as accurately as possible!</p>","12","","2","new_stimuli/mp3/melody_6_^1_v5_.mp3"
"","923.94999996759","html-button-response","104","772226","0.0-15.0-3.5","55070","","<p>Which tone was played third after the cadence?</p><p>Please respond as quickly and as accurately as possible!</p>","7","","3","new_stimuli/mp3/melody_6_^1_v5_.mp3"
"","null","audio-keyboard-response","105","781730","0.0-15.0-0.6","55070","","new_stimuli/mp3/melody_1_v1+_^2_.mp3","","null","",""
"","1144.1000000340864","html-button-response","106","782877","0.0-15.0-1.6","55070","","<p>Which tone was played first after the cadence?</p><p>Please respond as quickly and as accurately as possible!</p>","0","","1","new_stimuli/mp3/melody_1_v1+_^2_.mp3"
"","545.8499999949709","html-button-response","107","783427","0.0-15.0-2.6","55070","","<p>Which tone was played second after the cadence?</p><p>Please respond as quickly and as accurately as possible!</p>","1","","2","new_stimuli/mp3/melody_1_v1+_^2_.mp3"
"","501.56999996397644","html-button-response","108","783932","0.0-15.0-3.6","55070","","<p>Which tone was played third after the cadence?</p><p>Please respond as quickly and as accurately as possible!</p>","2","","3","new_stimuli/mp3/melody_1_v1+_^2_.mp3"
"","null","audio-keyboard-response","109","793499","0.0-15.0-0.7","55070","","new_stimuli/mp3/melody_v1_v7-_^7_.mp3","","null","",""
"","1428.4250000491738","html-button-response","110","794931","0.0-15.0-1.7","55070","","<p>Which tone was played first after the cadence?</p><p>Please respond as quickly and as accurately as possible!</p>","12","","1","new_stimuli/mp3/melody_v1_v7-_^7_.mp3"
"","560.5699999723583","html-button-response","111","795502","0.0-15.0-2.7","55070","","<p>Which tone was played second after the cadence?</p><p>Please respond as quickly and as accurately as possible!</p>","10","","2","new_stimuli/mp3/melody_v1_v7-_^7_.mp3"
"","484.27000001538545","html-button-response","112","795990","0.0-15.0-3.7","55070","","<p>Which tone was played third after the cadence?</p><p>Please respond as quickly and as accurately as possible!</p>","11","","3","new_stimuli/mp3/melody_v1_v7-_^7_.mp3"
"","null","audio-keyboard-response","113","805581","0.0-15.0-0.8","55070","","new_stimuli/mp3/melody_v1_v7-_7-_buffer.mp3","","null","",""
"","884.9250000203028","html-button-response","114","806471","0.0-15.0-1.8","55070","","<p>Which tone was played first after the cadence?</p><p>Please respond as quickly and as accurately as possible!</p>","12","","1","new_stimuli/mp3/melody_v1_v7-_7-_buffer.mp3"
"","520.7749999826774","html-button-response","115","806995","0.0-15.0-2.8","55070","","<p>Which tone was played second after the cadence?</p><p>Please respond as quickly and as accurately as possible!</p>","10","","2","new_stimuli/mp3/melody_v1_v7-_7-_buffer.mp3"
"","455.33999998588115","html-button-response","116","807452","0.0-15.0-3.8","55070","","<p>Which tone was played third after the cadence?</p><p>Please respond as quickly and as accurately as possible!</p>","10","","3","new_stimuli/mp3/melody_v1_v7-_7-_buffer.mp3"
"[{""page_index"":0,""viewing_time"":3762.345000053756},{""page_index"":1,""viewing_time"":1668.8299999805167},{""page_index"":2,""viewing_time"":1747.02500004787}]","7179.105000104755","instructions","117","814632","0.0-16.0","55070","","","","","",""
"","null","audio-keyboard-response","118","825271","0.0-17.0-0.0","55070","","new_stimuli/mp3/melody_^6_v4_v3_^4_^5_.mp3","","null","",""
"","1962.4499999918044","html-button-response","119","827238","0.0-17.0-1.0","55070","","<p>Which tone was played first after the cadence?</p><p>Please respond as quickly and as accurately as possible!</p>","9","","1","new_stimuli/mp3/melody_^6_v4_v3_^4_^5_.mp3"
"","2042.5149999791756","html-button-response","120","829283","0.0-17.0-2.0","55070","","<p>Which tone was played second after the cadence?</p><p>Please respond as quickly and as accurately as possible!</p>","5","","2","new_stimuli/mp3/melody_^6_v4_v3_^4_^5_.mp3"
"","1917.9149999981746","html-button-response","121","831207","0.0-17.0-3.0","55070","","<p>Which tone was played third after the cadence?</p><p>Please respond as quickly and as accurately as possible!</p>","4","","3","new_stimuli/mp3/melody_^6_v4_v3_^4_^5_.mp3"
"","907.4199999449775","html-button-response","122","832119","0.0-17.0-4.0","55070","","<p>Which tone was played fourth after the cadence?</p><p>Please respond as quickly and as accurately as possible!</p>","5","","4","new_stimuli/mp3/melody_^6_v4_v3_^4_^5_.mp3"
"","677.4549999972805","html-button-response","123","832802","0.0-17.0-5.0","55070","","<p>Which tone was played fifth after the cadence?</p><p>Please respond as quickly and as accurately as possible!</p>","7","","5","new_stimuli/mp3/melody_^6_v4_v3_^4_^5_.mp3"
"","null","audio-keyboard-response","124","843390","0.0-17.0-0.1","55070","","new_stimuli/mp3/melody_v2_2_^3_^4_v2_.mp3","","null","",""
"","1457.9149999190122","html-button-response","125","844853","0.0-17.0-1.1","55070","","<p>Which tone was played first after the cadence?</p><p>Please respond as quickly and as accurately as possible!</p>","2","","1","new_stimuli/mp3/melody_v2_2_^3_^4_v2_.mp3"
"","540.2599999215454","html-button-response","126","845397","0.0-17.0-2.1","55070","","<p>Which tone was played second after the cadence?</p><p>Please respond as quickly and as accurately as possible!</p>","2","","2","new_stimuli/mp3/melody_v2_2_^3_^4_v2_.mp3"
"","4714.450000086799","html-button-response","127","850117","0.0-17.0-3.1","55070","","<p>Which tone was played third after the cadence?</p><p>Please respond as quickly and as accurately as possible!</p>","4","","3","new_stimuli/mp3/melody_v2_2_^3_^4_v2_.mp3"
"","537.8950000740588","html-button-response","128","850659","0.0-17.0-4.1","55070","","<p>Which tone was played fourth after the cadence?</p><p>Please respond as quickly and as accurately as possible!</p>","5","","4","new_stimuli/mp3/melody_v2_2_^3_^4_v2_.mp3"
"","658.1950000254437","html-button-response","129","851320","0.0-17.0-5.1","55070","","<p>Which tone was played fifth after the cadence?</p><p>Please respond as quickly and as accurately as possible!</p>","2","","5","new_stimuli/mp3/melody_v2_2_^3_^4_v2_.mp3"
"","null","audio-keyboard-response","130","861910","0.0-17.0-0.2","55070","","new_stimuli/mp3/melody_v5_v4_v3_v2_v1 _buffer.mp3","","null","",""
"","901.2299999594688","html-button-response","131","862817","0.0-17.0-1.2","55070","","<p>Which tone was played first after the cadence?</p><p>Please respond as quickly and as accurately as possible!</p>","7","","1","new_stimuli/mp3/melody_v5_v4_v3_v2_v1 _buffer.mp3"
"","517.0700000599027","html-button-response","132","863337","0.0-17.0-2.2","55070","","<p>Which tone was played second after the cadence?</p><p>Please respond as quickly and as accurately as possible!</p>","5","","2","new_stimuli/mp3/melody_v5_v4_v3_v2_v1 _buffer.mp3"
"","407.00999996624887","html-button-response","133","863746","0.0-17.0-3.2","55070","","<p>Which tone was played third after the cadence?</p><p>Please respond as quickly and as accurately as possible!</p>","4","","3","new_stimuli/mp3/melody_v5_v4_v3_v2_v1 _buffer.mp3"
"","510.96500002313405","html-button-response","134","864260","0.0-17.0-4.2","55070","","<p>Which tone was played fourth after the cadence?</p><p>Please respond as quickly and as accurately as possible!</p>","2","","4","new_stimuli/mp3/melody_v5_v4_v3_v2_v1 _buffer.mp3"
"","470.9949999814853","html-button-response","135","864735","0.0-17.0-5.2","55070","","<p>Which tone was played fifth after the cadence?</p><p>Please respond as quickly and as accurately as possible!</p>","0","","5","new_stimuli/mp3/melody_v5_v4_v3_v2_v1 _buffer.mp3"
"","null","audio-keyboard-response","136","875441","0.0-17.0-0.3","55070","","new_stimuli/mp3/melody_^6_v5_v4_v3_v2_buffer.mp3","","null","",""
"","1248.8750000484288","html-button-response","137","876694","0.0-17.0-1.3","55070","","<p>Which tone was played first after the cadence?</p><p>Please respond as quickly and as accurately as possible!</p>","9","","1","new_stimuli/mp3/melody_^6_v5_v4_v3_v2_buffer.mp3"
"","496.0999999893829","html-button-response","138","877194","0.0-17.0-2.3","55070","","<p>Which tone was played second after the cadence?</p><p>Please respond as quickly and as accurately as possible!</p>","7","","2","new_stimuli/mp3/melody_^6_v5_v4_v3_v2_buffer.mp3"
"","509.3099999940023","html-button-response","139","877709","0.0-17.0-3.3","55070","","<p>Which tone was played third after the cadence?</p><p>Please respond as quickly and as accurately as possible!</p>","5","","3","new_stimuli/mp3/melody_^6_v5_v4_v3_v2_buffer.mp3"
"","410.52499995566905","html-button-response","140","878125","0.0-17.0-4.3","55070","","<p>Which tone was played fourth after the cadence?</p><p>Please respond as quickly and as accurately as possible!</p>","4","","4","new_stimuli/mp3/melody_^6_v5_v4_v3_v2_buffer.mp3"
"","454.20999999623746","html-button-response","141","878582","0.0-17.0-5.3","55070","","<p>Which tone was played fifth after the cadence?</p><p>Please respond as quickly and as accurately as possible!</p>","2","","5","new_stimuli/mp3/melody_^6_v5_v4_v3_v2_buffer.mp3"
"","null","audio-keyboard-response","142","889220","0.0-17.0-0.4","55070","","new_stimuli/mp3/melody_v5_^6+_^7_^1_5_.mp3","","null","",""
"","1587.9349999595433","html-button-response","143","890813","0.0-17.0-1.4","55070","","<p>Which tone was played first after the cadence?</p><p>Please respond as quickly and as accurately as possible!</p>","7","","1","new_stimuli/mp3/melody_v5_^6+_^7_^1_5_.mp3"
"","527.2300000069663","html-button-response","144","891345","0.0-17.0-2.4","55070","","<p>Which tone was played second after the cadence?</p><p>Please respond as quickly and as accurately as possible!</p>","9","","2","new_stimuli/mp3/melody_v5_^6+_^7_^1_5_.mp3"
"","625.8049999596551","html-button-response","145","891973","0.0-17.0-3.4","55070","","<p>Which tone was played third after the cadence?</p><p>Please respond as quickly and as accurately as possible!</p>","11","","3","new_stimuli/mp3/melody_v5_^6+_^7_^1_5_.mp3"
"","634.0899999486282","html-button-response","146","892612","0.0-17.0-4.4","55070","","<p>Which tone was played fourth after the cadence?</p><p>Please respond as quickly and as accurately as possible!</p>","12","","4","new_stimuli/mp3/melody_v5_^6+_^7_^1_5_.mp3"
"","884.1449999017641","html-button-response","147","893500","0.0-17.0-5.4","55070","","<p>Which tone was played fifth after the cadence?</p><p>Please respond as quickly and as accurately as possible!</p>","7","","5","new_stimuli/mp3/melody_v5_^6+_^7_^1_5_.mp3"
"","null","audio-keyboard-response","148","904452","0.0-17.0-0.5","55070","","new_stimuli/mp3/melody_^5_^6_v5_v4_v3_buffer.mp3","","null","",""
"","1241.7249999707565","html-button-response","149","905698","0.0-17.0-1.5","55070","","<p>Which tone was played first after the cadence?</p><p>Please respond as quickly and as accurately as possible!</p>","7","","1","new_stimuli/mp3/melody_^5_^6_v5_v4_v3_buffer.mp3"
"","485.89500004891306","html-button-response","150","906187","0.0-17.0-2.5","55070","","<p>Which tone was played second after the cadence?</p><p>Please respond as quickly and as accurately as possible!</p>","9","","2","new_stimuli/mp3/melody_^5_^6_v5_v4_v3_buffer.mp3"
"","532.4000000255182","html-button-response","151","906722","0.0-17.0-3.5","55070","","<p>Which tone was played third after the cadence?</p><p>Please respond as quickly and as accurately as possible!</p>","7","","3","new_stimuli/mp3/melody_^5_^6_v5_v4_v3_buffer.mp3"
"","502.9649999924004","html-button-response","152","907230","0.0-17.0-4.5","55070","","<p>Which tone was played fourth after the cadence?</p><p>Please respond as quickly and as accurately as possible!</p>","5","","4","new_stimuli/mp3/melody_^5_^6_v5_v4_v3_buffer.mp3"
"","455.19999996759","html-button-response","153","907688","0.0-17.0-5.5","55070","","<p>Which tone was played fifth after the cadence?</p><p>Please respond as quickly and as accurately as possible!</p>","4","","5","new_stimuli/mp3/melody_^5_^6_v5_v4_v3_buffer.mp3"
"","null","audio-keyboard-response","154","918632","0.0-17.0-0.6","55070","","new_stimuli/mp3/melody_v5-_v3_3_^4+_v3_.mp3","","null","",""
"","3108.2200000528246","html-button-response","155","921745","0.0-17.0-1.6","55070","","<p>Which tone was played first after the cadence?</p><p>Please respond as quickly and as accurately as possible!</p>","6","","1","new_stimuli/mp3/melody_v5-_v3_3_^4+_v3_.mp3"
"","521.7300000367686","html-button-response","156","922272","0.0-17.0-2.6","55070","","<p>Which tone was played second after the cadence?</p><p>Please respond as quickly and as accurately as possible!</p>","4","","2","new_stimuli/mp3/melody_v5-_v3_3_^4+_v3_.mp3"
"","483.7950000073761","html-button-response","157","922759","0.0-17.0-3.6","55070","","<p>Which tone was played third after the cadence?</p><p>Please respond as quickly and as accurately as possible!</p>","4","","3","new_stimuli/mp3/melody_v5-_v3_3_^4+_v3_.mp3"
"","547.3250000504777","html-button-response","158","923310","0.0-17.0-4.6","55070","","<p>Which tone was played fourth after the cadence?</p><p>Please respond as quickly and as accurately as possible!</p>","6","","4","new_stimuli/mp3/melody_v5-_v3_3_^4+_v3_.mp3"
"","501.35999999474734","html-button-response","159","923814","0.0-17.0-5.6","55070","","<p>Which tone was played fifth after the cadence?</p><p>Please respond as quickly and as accurately as possible!</p>","4","","5","new_stimuli/mp3/melody_v5-_v3_3_^4+_v3_.mp3"
"","null","audio-keyboard-response","160","934391","0.0-17.0-0.7","55070","","new_stimuli/mp3/melody_v5_v4_v3_v2_v1_.mp3","","null","",""
"","961.0600000014529","html-button-response","161","935358","0.0-17.0-1.7","55070","","<p>Which tone was played first after the cadence?</p><p>Please respond as quickly and as accurately as possible!</p>","7","","1","new_stimuli/mp3/melody_v5_v4_v3_v2_v1_.mp3"
"","481.48999991826713","html-button-response","162","935848","0.0-17.0-2.7","55070","","<p>Which tone was played second after the cadence?</p><p>Please respond as quickly and as accurately as possible!</p>","5","","2","new_stimuli/mp3/melody_v5_v4_v3_v2_v1_.mp3"
"","381.4149999525398","html-button-response","163","936232","0.0-17.0-3.7","55070","","<p>Which tone was played third after the cadence?</p><p>Please respond as quickly and as accurately as possible!</p>","4","","3","new_stimuli/mp3/melody_v5_v4_v3_v2_v1_.mp3"
"","510.2099999785423","html-button-response","164","936747","0.0-17.0-4.7","55070","","<p>Which tone was played fourth after the cadence?</p><p>Please respond as quickly and as accurately as possible!</p>","2","","4","new_stimuli/mp3/melody_v5_v4_v3_v2_v1_.mp3"
"","436.09999993350357","html-button-response","165","937187","0.0-17.0-5.7","55070","","<p>Which tone was played fifth after the cadence?</p><p>Please respond as quickly and as accurately as possible!</p>","0","","5","new_stimuli/mp3/melody_v5_v4_v3_v2_v1_.mp3"
"[{""page_index"":0,""viewing_time"":2311.6200000513345},{""page_index"":1,""viewing_time"":1873.8049999810755},{""page_index"":2,""viewing_time"":1490.929999970831}]","5677.574999979697","instructions","166","942866","0.0-18.0","55070","","","","","",""
"","null","audio-keyboard-response","167","954581","0.0-19.0-0.0","55070","","new_stimuli/mp3/melody_^1_v7_v6_v5_v4_v3_v2_buffer.mp3","","null","",""
"","1147.5499999942258","html-button-response","168","955734","0.0-19.0-1.0","55070","","<p>Which tone was played first after the cadence?</p><p>Please respond as quickly and as accurately as possible!</p>","12","","1","new_stimuli/mp3/melody_^1_v7_v6_v5_v4_v3_v2_buffer.mp3"
"","462.81500009354204","html-button-response","169","956201","0.0-19.0-2.0","55070","","<p>Which tone was played second after the cadence?</p><p>Please respond as quickly and as accurately as possible!</p>","11","","2","new_stimuli/mp3/melody_^1_v7_v6_v5_v4_v3_v2_buffer.mp3"
"","529.0250000543892","html-button-response","170","956733","0.0-19.0-3.0","55070","","<p>Which tone was played third after the cadence?</p><p>Please respond as quickly and as accurately as possible!</p>","9","","3","new_stimuli/mp3/melody_^1_v7_v6_v5_v4_v3_v2_buffer.mp3"
"","577.0950000733137","html-button-response","171","957313","0.0-19.0-4.0","55070","","<p>Which tone was played fourth after the cadence?</p><p>Please respond as quickly and as accurately as possible!</p>","7","","4","new_stimuli/mp3/melody_^1_v7_v6_v5_v4_v3_v2_buffer.mp3"
"","602.5299999164417","html-button-response","172","957918","0.0-19.0-5.0","55070","","<p>Which tone was played fifth after the cadence?</p><p>Please respond as quickly and as accurately as possible!</p>","5","","5","new_stimuli/mp3/melody_^1_v7_v6_v5_v4_v3_v2_buffer.mp3"
"","425.0499999616295","html-button-response","173","958347","0.0-19.0-6.0","55070","","<p>Which tone was played sixth after the cadence?</p><p>Please respond as quickly and as accurately as possible!</p>","4","","6","new_stimuli/mp3/melody_^1_v7_v6_v5_v4_v3_v2_buffer.mp3"
"","491.7849999619648","html-button-response","174","958842","0.0-19.0-7.0","55070","","<p>Which tone was played seventh after the cadence?</p><p>Please respond as quickly and as accurately as possible!</p>","2","","7","new_stimuli/mp3/melody_^1_v7_v6_v5_v4_v3_v2_buffer.mp3"
"","null","audio-keyboard-response","175","970521","0.0-19.0-0.1","55070","","new_stimuli/mp3/melody_^4_v6-_v5-_^6-_^4_v2-_2-_.mp3","","null","",""
"","6706.660000025295","html-button-response","176","977234","0.0-19.0-1.1","55070","","<p>Which tone was played first after the cadence?</p><p>Please respond as quickly and as accurately as possible!</p>","5","","1","new_stimuli/mp3/melody_^4_v6-_v5-_^6-_^4_v2-_2-_.mp3"
"","1981.9850000785664","html-button-response","177","979222","0.0-19.0-2.1","55070","","<p>Which tone was played second after the cadence?</p><p>Please respond as quickly and as accurately as possible!</p>","9","","2","new_stimuli/mp3/melody_^4_v6-_v5-_^6-_^4_v2-_2-_.mp3"
"","621.0600000340492","html-button-response","178","979848","0.0-19.0-3.1","55070","","<p>Which tone was played third after the cadence?</p><p>Please respond as quickly and as accurately as possible!</p>","9","","3","new_stimuli/mp3/melody_^4_v6-_v5-_^6-_^4_v2-_2-_.mp3"
"","6206.544999964535","html-button-response","179","986059","0.0-19.0-4.1","55070","","<p>Which tone was played fourth after the cadence?</p><p>Please respond as quickly and as accurately as possible!</p>","11","","4","new_stimuli/mp3/melody_^4_v6-_v5-_^6-_^4_v2-_2-_.mp3"
"","1257.8099999809638","html-button-response","180","987323","0.0-19.0-5.1","55070","","<p>Which tone was played fifth after the cadence?</p><p>Please respond as quickly and as accurately as possible!</p>","5","","5","new_stimuli/mp3/melody_^4_v6-_v5-_^6-_^4_v2-_2-_.mp3"
"","1044.389999937266","html-button-response","181","988371","0.0-19.0-6.1","55070","","<p>Which tone was played sixth after the cadence?</p><p>Please respond as quickly and as accurately as possible!</p>","9","","6","new_stimuli/mp3/melody_^4_v6-_v5-_^6-_^4_v2-_2-_.mp3"
"","500.6250001024455","html-button-response","182","988874","0.0-19.0-7.1","55070","","<p>Which tone was played seventh after the cadence?</p><p>Please respond as quickly and as accurately as possible!</p>","9","","7","new_stimuli/mp3/melody_^4_v6-_v5-_^6-_^4_v2-_2-_.mp3"
"","null","audio-keyboard-response","183","1000580","0.0-19.0-0.2","55070","","new_stimuli/mp3/melody_^4_^5_^6_v5_v4_v3_v2_.mp3","","null","",""
"","10726.919999928214","html-button-response","184","1011311","0.0-19.0-1.2","55070","","<p>Which tone was played first after the cadence?</p><p>Please respond as quickly and as accurately as possible!</p>","5","","1","new_stimuli/mp3/melody_^4_^5_^6_v5_v4_v3_v2_.mp3"
"","527.5600000750273","html-button-response","185","1011842","0.0-19.0-2.2","55070","","<p>Which tone was played second after the cadence?</p><p>Please respond as quickly and as accurately as possible!</p>","7","","2","new_stimuli/mp3/melody_^4_^5_^6_v5_v4_v3_v2_.mp3"
"","545.1800000155345","html-button-response","186","1012390","0.0-19.0-3.2","55070","","<p>Which tone was played third after the cadence?</p><p>Please respond as quickly and as accurately as possible!</p>","9","","3","new_stimuli/mp3/melody_^4_^5_^6_v5_v4_v3_v2_.mp3"
"","450.7149999262765","html-button-response","187","1012843","0.0-19.0-4.2","55070","","<p>Which tone was played fourth after the cadence?</p><p>Please respond as quickly and as accurately as possible!</p>","7","","4","new_stimuli/mp3/melody_^4_^5_^6_v5_v4_v3_v2_.mp3"
"","416.7100000195205","html-button-response","188","1013263","0.0-19.0-5.2","55070","","<p>Which tone was played fifth after the cadence?</p><p>Please respond as quickly and as accurately as possible!</p>","5","","5","new_stimuli/mp3/melody_^4_^5_^6_v5_v4_v3_v2_.mp3"
"","634.6599999815226","html-button-response","189","1013902","0.0-19.0-6.2","55070","","<p>Which tone was played sixth after the cadence?</p><p>Please respond as quickly and as accurately as possible!</p>","4","","6","new_stimuli/mp3/melody_^4_^5_^6_v5_v4_v3_v2_.mp3"
"","518.1350000202656","html-button-response","190","1014422","0.0-19.0-7.2","55070","","<p>Which tone was played seventh after the cadence?</p><p>Please respond as quickly and as accurately as possible!</p>","2","","7","new_stimuli/mp3/melody_^4_^5_^6_v5_v4_v3_v2_.mp3"
"","null","audio-keyboard-response","191","1026069","0.0-19.0-0.3","55070","","new_stimuli/mp3/melody_^6_v5+_v4_^5+_v3_v1_v7-_.mp3","","null","",""
"","1360.3200000943616","html-button-response","192","1027433","0.0-19.0-1.3","55070","","<p>Which tone was played first after the cadence?</p><p>Please respond as quickly and as accurately as possible!</p>","9","","1","new_stimuli/mp3/melody_^6_v5+_v4_^5+_v3_v1_v7-_.mp3"
"","446.2749999947846","html-button-response","193","1027882","0.0-19.0-2.3","55070","","<p>Which tone was played second after the cadence?</p><p>Please respond as quickly and as accurately as possible!</p>","8","","2","new_stimuli/mp3/melody_^6_v5+_v4_^5+_v3_v1_v7-_.mp3"
"","948.3750000363216","html-button-response","194","1028834","0.0-19.0-3.3","55070","","<p>Which tone was played third after the cadence?</p><p>Please respond as quickly and as accurately as possible!</p>","7","","3","new_stimuli/mp3/melody_^6_v5+_v4_^5+_v3_v1_v7-_.mp3"
"","532.5400000438094","html-button-response","195","1029370","0.0-19.0-4.3","55070","","<p>Which tone was played fourth after the cadence?</p><p>Please respond as quickly and as accurately as possible!</p>","8","","4","new_stimuli/mp3/melody_^6_v5+_v4_^5+_v3_v1_v7-_.mp3"
"","2166.5600000414997","html-button-response","196","1031539","0.0-19.0-5.3","55070","","<p>Which tone was played fifth after the cadence?</p><p>Please respond as quickly and as accurately as possible!</p>","5","","5","new_stimuli/mp3/melody_^6_v5+_v4_^5+_v3_v1_v7-_.mp3"
"","1174.585000029765","html-button-response","197","1032717","0.0-19.0-6.3","55070","","<p>Which tone was played sixth after the cadence?</p><p>Please respond as quickly and as accurately as possible!</p>","3","","6","new_stimuli/mp3/melody_^6_v5+_v4_^5+_v3_v1_v7-_.mp3"
"","516.4900000672787","html-button-response","198","1033237","0.0-19.0-7.3","55070","","<p>Which tone was played seventh after the cadence?</p><p>Please respond as quickly and as accurately as possible!</p>","2","","7","new_stimuli/mp3/melody_^6_v5+_v4_^5+_v3_v1_v7-_.mp3"
"","null","audio-keyboard-response","199","1044810","0.0-19.0-0.4","55070","","new_stimuli/mp3/melody_^5_^6_v5_v4_v3_v2_v1_buffer.mp3","","null","",""
"","971.0750000085682","html-button-response","200","1045786","0.0-19.0-1.4","55070","","<p>Which tone was played first after the cadence?</p><p>Please respond as quickly and as accurately as possible!</p>","7","","1","new_stimuli/mp3/melody_^5_^6_v5_v4_v3_v2_v1_buffer.mp3"
"","492.2549999319017","html-button-response","201","1046283","0.0-19.0-2.4","55070","","<p>Which tone was played second after the cadence?</p><p>Please respond as quickly and as accurately as possible!</p>","9","","2","new_stimuli/mp3/melody_^5_^6_v5_v4_v3_v2_v1_buffer.mp3"
"","488.1449999520555","html-button-response","202","1046775","0.0-19.0-3.4","55070","","<p>Which tone was played third after the cadence?</p><p>Please respond as quickly and as accurately as possible!</p>","7","","3","new_stimuli/mp3/melody_^5_^6_v5_v4_v3_v2_v1_buffer.mp3"
"","504.0000000735745","html-button-response","203","1047283","0.0-19.0-4.4","55070","","<p>Which tone was played fourth after the cadence?</p><p>Please respond as quickly and as accurately as possible!</p>","5","","4","new_stimuli/mp3/melody_^5_^6_v5_v4_v3_v2_v1_buffer.mp3"
"","395.87000000756234","html-button-response","204","1047683","0.0-19.0-5.4","55070","","<p>Which tone was played fifth after the cadence?</p><p>Please respond as quickly and as accurately as possible!</p>","4","","5","new_stimuli/mp3/melody_^5_^6_v5_v4_v3_v2_v1_buffer.mp3"
"","437.4500000849366","html-button-response","205","1048125","0.0-19.0-6.4","55070","","<p>Which tone was played sixth after the cadence?</p><p>Please respond as quickly and as accurately as possible!</p>","2","","6","new_stimuli/mp3/melody_^5_^6_v5_v4_v3_v2_v1_buffer.mp3"
"","415.6299999449402","html-button-response","206","1048544","0.0-19.0-7.4","55070","","<p>Which tone was played seventh after the cadence?</p><p>Please respond as quickly and as accurately as possible!</p>","0","","7","new_stimuli/mp3/melody_^5_^6_v5_v4_v3_v2_v1_buffer.mp3"
"","null","audio-keyboard-response","207","1060250","0.0-19.0-0.5","55070","","new_stimuli/mp3/melody_v1_^2_v1_v7_^1_^3_v2_.mp3","","null","",""
"","1669.0499999094754","html-button-response","208","1061923","0.0-19.0-1.5","55070","","<p>Which tone was played first after the cadence?</p><p>Please respond as quickly and as accurately as possible!</p>","0","","1","new_stimuli/mp3/melody_v1_^2_v1_v7_^1_^3_v2_.mp3"
"","601.0300000198185","html-button-response","209","1062527","0.0-19.0-2.5","55070","","<p>Which tone was played second after the cadence?</p><p>Please respond as quickly and as accurately as possible!</p>","1","","2","new_stimuli/mp3/melody_v1_^2_v1_v7_^1_^3_v2_.mp3"
"","495.89999997988343","html-button-response","210","1063027","0.0-19.0-3.5","55070","","<p>Which tone was played third after the cadence?</p><p>Please respond as quickly and as accurately as possible!</p>","0","","3","new_stimuli/mp3/melody_v1_^2_v1_v7_^1_^3_v2_.mp3"
"","732.6449999818578","html-button-response","211","1063763","0.0-19.0-4.5","55070","","<p>Which tone was played fourth after the cadence?</p><p>Please respond as quickly and as accurately as possible!</p>","11","","4","new_stimuli/mp3/melody_v1_^2_v1_v7_^1_^3_v2_.mp3"
"","858.269999967888","html-button-response","212","1064625","0.0-19.0-5.5","55070","","<p>Which tone was played fifth after the cadence?</p><p>Please respond as quickly and as accurately as possible!</p>","12","","5","new_stimuli/mp3/melody_v1_^2_v1_v7_^1_^3_v2_.mp3"
"","2947.0799999544397","html-button-response","213","1067574","0.0-19.0-6.5","55070","","<p>Which tone was played sixth after the cadence?</p><p>Please respond as quickly and as accurately as possible!</p>","4","","6","new_stimuli/mp3/melody_v1_^2_v1_v7_^1_^3_v2_.mp3"
"","467.61500008869916","html-button-response","214","1068045","0.0-19.0-7.5","55070","","<p>Which tone was played seventh after the cadence?</p><p>Please respond as quickly and as accurately as possible!</p>","2","","7","new_stimuli/mp3/melody_v1_^2_v1_v7_^1_^3_v2_.mp3"
"","null","audio-keyboard-response","215","1080010","0.0-19.0-0.6","55070","","new_stimuli/mp3/melody_1_^3_v1_^5_v3_v2_^3_.mp3","","null","",""
"","1416.399999987334","html-button-response","216","1081431","0.0-19.0-1.6","55070","","<p>Which tone was played first after the cadence?</p><p>Please respond as quickly and as accurately as possible!</p>","0","","1","new_stimuli/mp3/melody_1_^3_v1_^5_v3_v2_^3_.mp3"
"","811.0549999400973","html-button-response","217","1082245","0.0-19.0-2.6","55070","","<p>Which tone was played second after the cadence?</p><p>Please respond as quickly and as accurately as possible!</p>","4","","2","new_stimuli/mp3/melody_1_^3_v1_^5_v3_v2_^3_.mp3"
"","607.9850000096485","html-button-response","218","1082858","0.0-19.0-3.6","55070","","<p>Which tone was played third after the cadence?</p><p>Please respond as quickly and as accurately as possible!</p>","0","","3","new_stimuli/mp3/melody_1_^3_v1_^5_v3_v2_^3_.mp3"
"","1246.3749999878928","html-button-response","219","1084108","0.0-19.0-4.6","55070","","<p>Which tone was played fourth after the cadence?</p><p>Please respond as quickly and as accurately as possible!</p>","7","","4","new_stimuli/mp3/melody_1_^3_v1_^5_v3_v2_^3_.mp3"
"","2228.4399999771267","html-button-response","220","1086341","0.0-19.0-5.6","55070","","<p>Which tone was played fifth after the cadence?</p><p>Please respond as quickly and as accurately as possible!</p>","4","","5","new_stimuli/mp3/melody_1_^3_v1_^5_v3_v2_^3_.mp3"
"","412.2800000477582","html-button-response","221","1086762","0.0-19.0-6.6","55070","","<p>Which tone was played sixth after the cadence?</p><p>Please respond as quickly and as accurately as possible!</p>","2","","6","new_stimuli/mp3/melody_1_^3_v1_^5_v3_v2_^3_.mp3"
"","513.9799999305978","html-button-response","222","1087280","0.0-19.0-7.6","55070","","<p>Which tone was played seventh after the cadence?</p><p>Please respond as quickly and as accurately as possible!</p>","4","","7","new_stimuli/mp3/melody_1_^3_v1_^5_v3_v2_^3_.mp3"
"[{""page_index"":0,""viewing_time"":2640.5500000109896},{""page_index"":1,""viewing_time"":1457.4649999849498},{""page_index"":2,""viewing_time"":2425.6700000260025}]","6524.770000018179","instructions","223","1093807","0.0-20.0","55070","","","","","",""
"","null","audio-keyboard-response","224","1106771","0.0-21.0-0.0","55070","","new_stimuli/mp3/melody_^5_^6_v5_v4_v3_v2_v1_^2_^3_buffer.mp3","","null","",""
"","884.3249999918044","html-button-response","225","1107661","0.0-21.0-1.0","55070","","<p>Which tone was played first after the cadence?</p><p>Please respond as quickly and as accurately as possible!</p>","7","","1","new_stimuli/mp3/melody_^5_^6_v5_v4_v3_v2_v1_^2_^3_buffer.mp3"
"","542.3749999608845","html-button-response","226","1108207","0.0-21.0-2.0","55070","","<p>Which tone was played second after the cadence?</p><p>Please respond as quickly and as accurately as possible!</p>","9","","2","new_stimuli/mp3/melody_^5_^6_v5_v4_v3_v2_v1_^2_^3_buffer.mp3"
"","518.225000007078","html-button-response","227","1108731","0.0-21.0-3.0","55070","","<p>Which tone was played third after the cadence?</p><p>Please respond as quickly and as accurately as possible!</p>","7","","3","new_stimuli/mp3/melody_^5_^6_v5_v4_v3_v2_v1_^2_^3_buffer.mp3"
"","565.815000096336","html-button-response","228","1109302","0.0-21.0-4.0","55070","","<p>Which tone was played fourth after the cadence?</p><p>Please respond as quickly and as accurately as possible!</p>","5","","4","new_stimuli/mp3/melody_^5_^6_v5_v4_v3_v2_v1_^2_^3_buffer.mp3"
"","435.67999999504536","html-button-response","229","1109741","0.0-21.0-5.0","55070","","<p>Which tone was played fifth after the cadence?</p><p>Please respond as quickly and as accurately as possible!</p>","4","","5","new_stimuli/mp3/melody_^5_^6_v5_v4_v3_v2_v1_^2_^3_buffer.mp3"
"","461.15999994799495","html-button-response","230","1110204","0.0-21.0-6.0","55070","","<p>Which tone was played sixth after the cadence?</p><p>Please respond as quickly and as accurately as possible!</p>","2","","6","new_stimuli/mp3/melody_^5_^6_v5_v4_v3_v2_v1_^2_^3_buffer.mp3"
"","506.52999989688396","html-button-response","231","1110713","0.0-21.0-7.0","55070","","<p>Which tone was played seventh after the cadence?</p><p>Please respond as quickly and as accurately as possible!</p>","0","","7","new_stimuli/mp3/melody_^5_^6_v5_v4_v3_v2_v1_^2_^3_buffer.mp3"
"","521.5450000250712","html-button-response","232","1111238","0.0-21.0-8.0","55070","","<p>Which tone was played eight after the cadence?</p><p>Please respond as quickly and as accurately as possible!</p>","2","","8","new_stimuli/mp3/melody_^5_^6_v5_v4_v3_v2_v1_^2_^3_buffer.mp3"
"","496.42000009771436","html-button-response","233","1111736","0.0-21.0-9.0","55070","","<p>Which tone was played nineth after the cadence?</p><p>Please respond as quickly and as accurately as possible!</p>","4","","9","new_stimuli/mp3/melody_^5_^6_v5_v4_v3_v2_v1_^2_^3_buffer.mp3"
"","null","audio-keyboard-response","234","1124379","0.0-21.0-0.1","55070","","new_stimuli/mp3/melody_v5_v4_v6+_^7_^3+_v3_v2_v5_^4_.mp3","","null","",""
"","1050.5350000457838","html-button-response","235","1125432","0.0-21.0-1.1","55070","","<p>Which tone was played first after the cadence?</p><p>Please respond as quickly and as accurately as possible!</p>","7","","1","new_stimuli/mp3/melody_v5_v4_v6+_^7_^3+_v3_v2_v5_^4_.mp3"
"","579.9899999983609","html-button-response","236","1126015","0.0-21.0-2.1","55070","","<p>Which tone was played second after the cadence?</p><p>Please respond as quickly and as accurately as possible!</p>","5","","2","new_stimuli/mp3/melody_v5_v4_v6+_^7_^3+_v3_v2_v5_^4_.mp3"
"","4398.960000020452","html-button-response","237","1130418","0.0-21.0-3.1","55070","","<p>Which tone was played third after the cadence?</p><p>Please respond as quickly and as accurately as possible!</p>","9","","3","new_stimuli/mp3/melody_v5_v4_v6+_^7_^3+_v3_v2_v5_^4_.mp3"
"","572.2500000847504","html-button-response","238","1130996","0.0-21.0-4.1","55070","","<p>Which tone was played fourth after the cadence?</p><p>Please respond as quickly and as accurately as possible!</p>","11","","4","new_stimuli/mp3/melody_v5_v4_v6+_^7_^3+_v3_v2_v5_^4_.mp3"
"","5946.16000005044","html-button-response","239","1136948","0.0-21.0-5.1","55070","","<p>Which tone was played fifth after the cadence?</p><p>Please respond as quickly and as accurately as possible!</p>","4","","5","new_stimuli/mp3/melody_v5_v4_v6+_^7_^3+_v3_v2_v5_^4_.mp3"
"","504.57500002812594","html-button-response","240","1137460","0.0-21.0-6.1","55070","","<p>Which tone was played sixth after the cadence?</p><p>Please respond as quickly and as accurately as possible!</p>","3","","6","new_stimuli/mp3/melody_v5_v4_v6+_^7_^3+_v3_v2_v5_^4_.mp3"
"","544.4949999218807","html-button-response","241","1138008","0.0-21.0-7.1","55070","","<p>Which tone was played seventh after the cadence?</p><p>Please respond as quickly and as accurately as possible!</p>","2","","7","new_stimuli/mp3/melody_v5_v4_v6+_^7_^3+_v3_v2_v5_^4_.mp3"
"","4263.789999997243","html-button-response","242","1142277","0.0-21.0-8.1","55070","","<p>Which tone was played eight after the cadence?</p><p>Please respond as quickly and as accurately as possible!</p>","10","","8","new_stimuli/mp3/melody_v5_v4_v6+_^7_^3+_v3_v2_v5_^4_.mp3"
"","1747.5049999775365","html-button-response","243","1144030","0.0-21.0-9.1","55070","","<p>Which tone was played nineth after the cadence?</p><p>Please respond as quickly and as accurately as possible!</p>","1","","9","new_stimuli/mp3/melody_v5_v4_v6+_^7_^3+_v3_v2_v5_^4_.mp3"
"","null","audio-keyboard-response","244","1156601","0.0-21.0-0.2","55070","","new_stimuli/mp3/melody_^3_^4_^5 _^6_v5_v4_v3_v2_v1_.mp3","","null","",""
"","5386.389999999665","html-button-response","245","1161992","0.0-21.0-1.2","55070","","<p>Which tone was played first after the cadence?</p><p>Please respond as quickly and as accurately as possible!</p>","4","","1","new_stimuli/mp3/melody_^3_^4_^5 _^6_v5_v4_v3_v2_v1_.mp3"
"","445.1549999648705","html-button-response","246","1162441","0.0-21.0-2.2","55070","","<p>Which tone was played second after the cadence?</p><p>Please respond as quickly and as accurately as possible!</p>","5","","2","new_stimuli/mp3/melody_^3_^4_^5 _^6_v5_v4_v3_v2_v1_.mp3"
"","552.4100000038743","html-button-response","247","1162996","0.0-21.0-3.2","55070","","<p>Which tone was played third after the cadence?</p><p>Please respond as quickly and as accurately as possible!</p>","7","","3","new_stimuli/mp3/melody_^3_^4_^5 _^6_v5_v4_v3_v2_v1_.mp3"
"","959.8900000564754","html-button-response","248","1163961","0.0-21.0-4.2","55070","","<p>Which tone was played fourth after the cadence?</p><p>Please respond as quickly and as accurately as possible!</p>","9","","4","new_stimuli/mp3/melody_^3_^4_^5 _^6_v5_v4_v3_v2_v1_.mp3"
"","468.3799999766052","html-button-response","249","1164437","0.0-21.0-5.2","55070","","<p>Which tone was played fifth after the cadence?</p><p>Please respond as quickly and as accurately as possible!</p>","7","","5","new_stimuli/mp3/melody_^3_^4_^5 _^6_v5_v4_v3_v2_v1_.mp3"
"","842.8149999817833","html-button-response","250","1165284","0.0-21.0-6.2","55070","","<p>Which tone was played sixth after the cadence?</p><p>Please respond as quickly and as accurately as possible!</p>","5","","6","new_stimuli/mp3/melody_^3_^4_^5 _^6_v5_v4_v3_v2_v1_.mp3"
"","546.3199999649078","html-button-response","251","1165834","0.0-21.0-7.2","55070","","<p>Which tone was played seventh after the cadence?</p><p>Please respond as quickly and as accurately as possible!</p>","4","","7","new_stimuli/mp3/melody_^3_^4_^5 _^6_v5_v4_v3_v2_v1_.mp3"
"","611.9399999734014","html-button-response","252","1166450","0.0-21.0-8.2","55070","","<p>Which tone was played eight after the cadence?</p><p>Please respond as quickly and as accurately as possible!</p>","2","","8","new_stimuli/mp3/melody_^3_^4_^5 _^6_v5_v4_v3_v2_v1_.mp3"
"","2351.5599999809638","html-button-response","253","1168804","0.0-21.0-9.2","55070","","<p>Which tone was played nineth after the cadence?</p><p>Please respond as quickly and as accurately as possible!</p>","0","","9","new_stimuli/mp3/melody_^3_^4_^5 _^6_v5_v4_v3_v2_v1_.mp3"
"","null","audio-keyboard-response","254","1181742","0.0-21.0-0.3","55070","","new_stimuli/mp3/melody_^2_^4_v3_v2_v1_v3_v2+_^3_^5+_.mp3","","null","",""
"","2609.0750000439584","html-button-response","255","1184358","0.0-21.0-1.3","55070","","<p>Which tone was played first after the cadence?</p><p>Please respond as quickly and as accurately as possible!</p>","2","","1","new_stimuli/mp3/melody_^2_^4_v3_v2_v1_v3_v2+_^3_^5+_.mp3"
"","666.230000089854","html-button-response","256","1185027","0.0-21.0-2.3","55070","","<p>Which tone was played second after the cadence?</p><p>Please respond as quickly and as accurately as possible!</p>","5","","2","new_stimuli/mp3/melody_^2_^4_v3_v2_v1_v3_v2+_^3_^5+_.mp3"
"","405.1299999700859","html-button-response","257","1185435","0.0-21.0-3.3","55070","","<p>Which tone was played third after the cadence?</p><p>Please respond as quickly and as accurately as possible!</p>","4","","3","new_stimuli/mp3/melody_^2_^4_v3_v2_v1_v3_v2+_^3_^5+_.mp3"
"","487.9499999806285","html-button-response","258","1185927","0.0-21.0-4.3","55070","","<p>Which tone was played fourth after the cadence?</p><p>Please respond as quickly and as accurately as possible!</p>","2","","4","new_stimuli/mp3/melody_^2_^4_v3_v2_v1_v3_v2+_^3_^5+_.mp3"
"","948.0700000422075","html-button-response","259","1186879","0.0-21.0-5.3","55070","","<p>Which tone was played fifth after the cadence?</p><p>Please respond as quickly and as accurately as possible!</p>","0","","5","new_stimuli/mp3/melody_^2_^4_v3_v2_v1_v3_v2+_^3_^5+_.mp3"
"","1184.9499999079853","html-button-response","260","1188072","0.0-21.0-6.3","55070","","<p>Which tone was played sixth after the cadence?</p><p>Please respond as quickly and as accurately as possible!</p>","6","","6","new_stimuli/mp3/melody_^2_^4_v3_v2_v1_v3_v2+_^3_^5+_.mp3"
"","1705.7400000048801","html-button-response","261","1189782","0.0-21.0-7.3","55070","","<p>Which tone was played seventh after the cadence?</p><p>Please respond as quickly and as accurately as possible!</p>","4","","7","new_stimuli/mp3/melody_^2_^4_v3_v2_v1_v3_v2+_^3_^5+_.mp3"
"","665.8400000305846","html-button-response","262","1190453","0.0-21.0-8.3","55070","","<p>Which tone was played eight after the cadence?</p><p>Please respond as quickly and as accurately as possible!</p>","6","","8","new_stimuli/mp3/melody_^2_^4_v3_v2_v1_v3_v2+_^3_^5+_.mp3"
"","1853.1349999830127","html-button-response","263","1192312","0.0-21.0-9.3","55070","","<p>Which tone was played nineth after the cadence?</p><p>Please respond as quickly and as accurately as possible!</p>","3","","9","new_stimuli/mp3/melody_^2_^4_v3_v2_v1_v3_v2+_^3_^5+_.mp3"
"","null","audio-keyboard-response","264","1205011","0.0-21.0-0.4","55070","","new_stimuli/mp3/melody_^2_^3_^4_^5_^6_v5_v4_v3_v2_buffer.mp3","","null","",""
"","1384.6050000283867","html-button-response","265","1206400","0.0-21.0-1.4","55070","","<p>Which tone was played first after the cadence?</p><p>Please respond as quickly and as accurately as possible!</p>","2","","1","new_stimuli/mp3/melody_^2_^3_^4_^5_^6_v5_v4_v3_v2_buffer.mp3"
"","1138.9550000894815","html-button-response","266","1207542","0.0-21.0-2.4","55070","","<p>Which tone was played second after the cadence?</p><p>Please respond as quickly and as accurately as possible!</p>","4","","2","new_stimuli/mp3/melody_^2_^3_^4_^5_^6_v5_v4_v3_v2_buffer.mp3"
"","402.12500002235174","html-button-response","267","1207948","0.0-21.0-3.4","55070","","<p>Which tone was played third after the cadence?</p><p>Please respond as quickly and as accurately as possible!</p>","5","","3","new_stimuli/mp3/melody_^2_^3_^4_^5_^6_v5_v4_v3_v2_buffer.mp3"
"","543.5300000244752","html-button-response","268","1208496","0.0-21.0-4.4","55070","","<p>Which tone was played fourth after the cadence?</p><p>Please respond as quickly and as accurately as possible!</p>","7","","4","new_stimuli/mp3/melody_^2_^3_^4_^5_^6_v5_v4_v3_v2_buffer.mp3"
"","491.47000000812113","html-button-response","269","1208994","0.0-21.0-5.4","55070","","<p>Which tone was played fifth after the cadence?</p><p>Please respond as quickly and as accurately as possible!</p>","9","","5","new_stimuli/mp3/melody_^2_^3_^4_^5_^6_v5_v4_v3_v2_buffer.mp3"
"","474.7549999738112","html-button-response","270","1209471","0.0-21.0-6.4","55070","","<p>Which tone was played sixth after the cadence?</p><p>Please respond as quickly and as accurately as possible!</p>","7","","6","new_stimuli/mp3/melody_^2_^3_^4_^5_^6_v5_v4_v3_v2_buffer.mp3"
"","535.4550000047311","html-button-response","271","1210010","0.0-21.0-7.4","55070","","<p>Which tone was played seventh after the cadence?</p><p>Please respond as quickly and as accurately as possible!</p>","5","","7","new_stimuli/mp3/melody_^2_^3_^4_^5_^6_v5_v4_v3_v2_buffer.mp3"
"","404.7499999869615","html-button-response","272","1210420","0.0-21.0-8.4","55070","","<p>Which tone was played eight after the cadence?</p><p>Please respond as quickly and as accurately as possible!</p>","4","","8","new_stimuli/mp3/melody_^2_^3_^4_^5_^6_v5_v4_v3_v2_buffer.mp3"
"","435.10999996215105","html-button-response","273","1210858","0.0-21.0-9.4","55070","","<p>Which tone was played nineth after the cadence?</p><p>Please respond as quickly and as accurately as possible!</p>","2","","9","new_stimuli/mp3/melody_^2_^3_^4_^5_^6_v5_v4_v3_v2_buffer.mp3"
"","null","audio-keyboard-response","274","1223502","0.0-21.0-0.5","55070","","new_stimuli/mp3/melody_v7_v6_v5_^6_v5_v4_^5_^6_v5_.mp3","","null","",""
"","1708.9949999935925","html-button-response","275","1225217","0.0-21.0-1.5","55070","","<p>Which tone was played first after the cadence?</p><p>Please respond as quickly and as accurately as possible!</p>","11","","1","new_stimuli/mp3/melody_v7_v6_v5_^6_v5_v4_^5_^6_v5_.mp3"
"","482.1549999760464","html-button-response","276","1225708","0.0-21.0-2.5","55070","","<p>Which tone was played second after the cadence?</p><p>Please respond as quickly and as accurately as possible!</p>","9","","2","new_stimuli/mp3/melody_v7_v6_v5_^6_v5_v4_^5_^6_v5_.mp3"
"","494.0049999859184","html-button-response","277","1226206","0.0-21.0-3.5","55070","","<p>Which tone was played third after the cadence?</p><p>Please respond as quickly and as accurately as possible!</p>","7","","3","new_stimuli/mp3/melody_v7_v6_v5_^6_v5_v4_^5_^6_v5_.mp3"
"","473.24000007938594","html-button-response","278","1226683","0.0-21.0-4.5","55070","","<p>Which tone was played fourth after the cadence?</p><p>Please respond as quickly and as accurately as possible!</p>","9","","4","new_stimuli/mp3/melody_v7_v6_v5_^6_v5_v4_^5_^6_v5_.mp3"
"","523.9999999757856","html-button-response","279","1227212","0.0-21.0-5.5","55070","","<p>Which tone was played fifth after the cadence?</p><p>Please respond as quickly and as accurately as possible!</p>","7","","5","new_stimuli/mp3/melody_v7_v6_v5_^6_v5_v4_^5_^6_v5_.mp3"
"","573.8699999637902","html-button-response","280","1227791","0.0-21.0-6.5","55070","","<p>Which tone was played sixth after the cadence?</p><p>Please respond as quickly and as accurately as possible!</p>","5","","6","new_stimuli/mp3/melody_v7_v6_v5_^6_v5_v4_^5_^6_v5_.mp3"
"","555.9999999823049","html-button-response","281","1228351","0.0-21.0-7.5","55070","","<p>Which tone was played seventh after the cadence?</p><p>Please respond as quickly and as accurately as possible!</p>","7","","7","new_stimuli/mp3/melody_v7_v6_v5_^6_v5_v4_^5_^6_v5_.mp3"
"","473.8149999175221","html-button-response","282","1228829","0.0-21.0-8.5","55070","","<p>Which tone was played eight after the cadence?</p><p>Please respond as quickly and as accurately as possible!</p>","9","","8","new_stimuli/mp3/melody_v7_v6_v5_^6_v5_v4_^5_^6_v5_.mp3"
"","444.14499995764345","html-button-response","283","1229279","0.0-21.0-9.5","55070","","<p>Which tone was played nineth after the cadence?</p><p>Please respond as quickly and as accurately as possible!</p>","7","","9","new_stimuli/mp3/melody_v7_v6_v5_^6_v5_v4_^5_^6_v5_.mp3"
"","null","audio-keyboard-response","284","1241930","0.0-21.0-0.6","55070","","new_stimuli/mp3/melody_^3_^4_v2_v7_^1_^2_^3_3_^4_.mp3","","null","",""
"","4463.740000035614","html-button-response","285","1246397","0.0-21.0-1.6","55070","","<p>Which tone was played first after the cadence?</p><p>Please respond as quickly and as accurately as possible!</p>","4","","1","new_stimuli/mp3/melody_^3_^4_v2_v7_^1_^2_^3_3_^4_.mp3"
"","551.5049999812618","html-button-response","286","1246953","0.0-21.0-2.6","55070","","<p>Which tone was played second after the cadence?</p><p>Please respond as quickly and as accurately as possible!</p>","5","","2","new_stimuli/mp3/melody_^3_^4_v2_v7_^1_^2_^3_3_^4_.mp3"
"","1041.9349999865517","html-button-response","287","1247999","0.0-21.0-3.6","55070","","<p>Which tone was played third after the cadence?</p><p>Please respond as quickly and as accurately as possible!</p>","2","","3","new_stimuli/mp3/melody_^3_^4_v2_v7_^1_^2_^3_3_^4_.mp3"
"","758.9650000445545","html-button-response","288","1248761","0.0-21.0-4.6","55070","","<p>Which tone was played fourth after the cadence?</p><p>Please respond as quickly and as accurately as possible!</p>","11","","4","new_stimuli/mp3/melody_^3_^4_v2_v7_^1_^2_^3_3_^4_.mp3"
"","2801.270000054501","html-button-response","289","1251565","0.0-21.0-5.6","55070","","<p>Which tone was played fifth after the cadence?</p><p>Please respond as quickly and as accurately as possible!</p>","2","","5","new_stimuli/mp3/melody_^3_^4_v2_v7_^1_^2_^3_3_^4_.mp3"
"","570.4549999209121","html-button-response","290","1252137","0.0-21.0-6.6","55070","","<p>Which tone was played sixth after the cadence?</p><p>Please respond as quickly and as accurately as possible!</p>","4","","6","new_stimuli/mp3/melody_^3_^4_v2_v7_^1_^2_^3_3_^4_.mp3"
"","496.59500003326684","html-button-response","291","1252636","0.0-21.0-7.6","55070","","<p>Which tone was played seventh after the cadence?</p><p>Please respond as quickly and as accurately as possible!</p>","4","","7","new_stimuli/mp3/melody_^3_^4_v2_v7_^1_^2_^3_3_^4_.mp3"
"","546.1549999890849","html-button-response","292","1253185","0.0-21.0-8.6","55070","","<p>Which tone was played eight after the cadence?</p><p>Please respond as quickly and as accurately as possible!</p>","5","","8","new_stimuli/mp3/melody_^3_^4_v2_v7_^1_^2_^3_3_^4_.mp3"
"","1024.6650000335649","html-button-response","293","1254211","0.0-21.0-9.6","55070","","<p>Which tone was played nineth after the cadence?</p><p>Please respond as quickly and as accurately as possible!</p>","5","","9","new_stimuli/mp3/melody_^3_^4_v2_v7_^1_^2_^3_3_^4_.mp3"
"","8430.410000029951","survey-text","294","1262643","0.0-22.0","55070","{""Q0"":""sing back, hum the tonic""}","","","","",""
"","29173.594999941997","survey-text","295","1291818","0.0-23.0","55070","{""Q0"":""""}","","","","",""
"","4499.505000072531","survey-text","296","1296319","0.0-24.0","55070","{""Q0"":""no""}","","","","",""
"","5597.444999963045","survey-text","297","1301920","0.0-25.0","55070","{""Q0"":""headphones""}","","","","",""
"","4639.1500000609085","survey-text","298","1306562","0.0-26.0","55070","{""Q0"":""female""}","","","","",""
"","4300.619999994524","survey-text","299","1310865","0.0-27.0","55070","{""Q0"":""yes""}","","","","",""
"[{""page_index"":0,""viewing_time"":2928.399999975227}]","2929.3499999912456","instructions","300","1313796","0.0-28.0","55070","","","","","",""
