"view_history","rt","trial_type","trial_index","time_elapsed","internal_node_id","subject","responses","stimulus","button_pressed","key_press","response_sequence","melody"
"[{""page_index"":0,""viewing_time"":16317.294999957085},{""page_index"":1,""viewing_time"":7944.52999997884},{""page_index"":2,""viewing_time"":2017.6500000525266}]","26280.324999941513","instructions","0","26342","0.0-0.0","55761","","","","","",""
"","2461.9849999435246","survey-text","1","28806","0.0-1.0","55761","{""Q0"":""38""}","","","","",""
"","8129.8250001855195","survey-text","2","36937","0.0-2.0","55761","{""Q0"":""finished Ph.D""}","","","","",""
"","7746.084999991581","survey-text","3","44683","0.0-3.0","55761","{""Q0"":""Moveable-Do""}","","","","",""
"","2574.724999954924","survey-text","4","47259","0.0-4.0","55761","{""Q0"":""No""}","","","","",""
"","10651.649999897927","survey-text","5","57912","0.0-5.0","55761","{""Q0"":""60 weeks""}","","","","",""
"","17933.16000001505","survey-text","6","75846","0.0-6.0","55761","{""Q0"":""6""}","","","","",""
"[{""page_index"":0,""viewing_time"":9002.339999889955},{""page_index"":1,""viewing_time"":14856.660000048578},{""page_index"":2,""viewing_time"":1353.7350001279265}]","25213.01000006497","instructions","7","101059","0.0-7.0","55761","","","","","",""
"","7980.505000101402","audio-button-response","8","109042","0.0-8.0","55761","","stimuli/long/c-do.mp3","0","","",""
"","7179.190000053495","audio-button-response","9","116223","0.0-9.0","55761","","stimuli/long/a-le.mp3","8","","",""
"[{""page_index"":0,""viewing_time"":6628.509999951348},{""page_index"":1,""viewing_time"":18894.800000125542}]","25523.530000122264","instructions","10","141746","0.0-10.0","55761","","","","","",""
"","7288.085000123829","audio-button-response","11","149036","0.0-11.0-0.0","55761","","stimuli/long/e-do.mp3","0","","",""
"","7585.570000112057","audio-button-response","12","156624","0.0-11.0-0.1","55761","","stimuli/long/e-sol.mp3","7","","",""
"","8906.560000032187","audio-button-response","13","165532","0.0-11.0-0.2","55761","","stimuli/long/c-mi.mp3","1","","",""
"","11383.180000120774","audio-button-response","14","176916","0.0-11.0-0.3","55761","","stimuli/long/a-me.mp3","3","","",""
"","7670.18000013195","audio-button-response","15","184588","0.0-11.0-0.4","55761","","stimuli/long/e-do8.mp3","12","","",""
"","8408.354999963194","audio-button-response","16","192998","0.0-11.0-0.5","55761","","stimuli/long/c-ti.mp3","11","","",""
"","8583.35500000976","audio-button-response","17","201582","0.0-11.0-0.6","55761","","stimuli/long/e-la.mp3","9","","",""
"","7646.990000037476","audio-button-response","18","209231","0.0-11.0-0.7","55761","","stimuli/long/a-re.mp3","2","","",""
"","7755.015000002459","audio-button-response","19","216987","0.0-11.0-0.8","55761","","stimuli/long/c-do8.mp3","12","","",""
"","10608.495000051335","audio-button-response","20","227597","0.0-11.0-0.9","55761","","stimuli/long/e-fa.mp3","0","","",""
"","10518.605000106618","audio-button-response","21","238117","0.0-11.0-0.10","55761","","stimuli/long/a-mi.mp3","4","","",""
"","7441.3900000508875","audio-button-response","22","245561","0.0-11.0-0.11","55761","","stimuli/long/c-do.mp3","0","","",""
"","7373.455000109971","audio-button-response","23","252938","0.0-11.0-0.12","55761","","stimuli/long/a-do8.mp3","12","","",""
"","7866.720000049099","audio-button-response","24","260806","0.0-11.0-0.13","55761","","stimuli/long/c-fa.mp3","5","","",""
"","7895.289999898523","audio-button-response","25","268704","0.0-11.0-0.14","55761","","stimuli/long/a-la.mp3","9","","",""
"","13980.710000032559","audio-button-response","26","282687","0.0-11.0-0.15","55761","","stimuli/long/a-fi.mp3","1","","",""
"","8441.83999998495","audio-button-response","27","291131","0.0-11.0-0.16","55761","","stimuli/long/a-ti.mp3","11","","",""
"","7653.854999924079","audio-button-response","28","298786","0.0-11.0-0.17","55761","","stimuli/long/c-sol.mp3","7","","",""
"","10880.154999904335","audio-button-response","29","309668","0.0-11.0-0.18","55761","","stimuli/long/c-le.mp3","8","","",""
"","9944.600000046194","audio-button-response","30","319614","0.0-11.0-0.19","55761","","stimuli/long/e-re.mp3","2","","",""
"","8177.38000000827","audio-button-response","31","327792","0.0-11.0-0.20","55761","","stimuli/long/a-sol.mp3","7","","",""
"","16064.63999999687","audio-button-response","32","343858","0.0-11.0-0.21","55761","","stimuli/long/e-le.mp3","5","","",""
"","8380.529999965802","audio-button-response","33","352240","0.0-11.0-0.22","55761","","stimuli/long/c-re.mp3","2","","",""
"","11922.499999869615","audio-button-response","34","364163","0.0-11.0-0.23","55761","","stimuli/long/a-fa.mp3","5","","",""
"","11298.170000081882","audio-button-response","35","375463","0.0-11.0-0.24","55761","","stimuli/long/c-me.mp3","3","","",""
"","18723.375000059605","audio-button-response","36","394187","0.0-11.0-0.25","55761","","stimuli/long/a-te.mp3","8","","",""
"","10133.729999884963","audio-button-response","37","404323","0.0-11.0-0.26","55761","","stimuli/long/c-la.mp3","9","","",""
"","10832.12500018999","audio-button-response","38","415156","0.0-11.0-0.27","55761","","stimuli/long/e-te.mp3","5","","",""
"","8251.149999909103","audio-button-response","39","423408","0.0-11.0-0.28","55761","","stimuli/long/e-ti.mp3","11","","",""
"","15584.83500010334","audio-button-response","40","438994","0.0-11.0-0.29","55761","","stimuli/long/a-ra.mp3","8","","",""
"","14264.604999916628","audio-button-response","41","453260","0.0-11.0-0.30","55761","","stimuli/long/c-ra.mp3","7","","",""
"","13312.304999912158","audio-button-response","42","466574","0.0-11.0-0.31","55761","","stimuli/long/c-fi.mp3","10","","",""
"","15592.645000200719","audio-button-response","43","482168","0.0-11.0-0.32","55761","","stimuli/long/e-fi.mp3","5","","",""
"","7824.140000157058","audio-button-response","44","489993","0.0-11.0-0.33","55761","","stimuli/long/a-do.mp3","0","","",""
"","8101.05499997735","audio-button-response","45","498095","0.0-11.0-0.34","55761","","stimuli/long/e-mi.mp3","11","","",""
"","8093.664999818429","audio-button-response","46","506190","0.0-11.0-0.35","55761","","stimuli/long/a-le.mp3","8","","",""
"","9170.15999997966","audio-button-response","47","515361","0.0-11.0-0.36","55761","","stimuli/long/e-me.mp3","6","","",""
"","10812.589999986812","audio-button-response","48","526175","0.0-11.0-0.37","55761","","stimuli/long/e-ra.mp3","1","","",""
"[{""page_index"":0,""viewing_time"":61359.320000046864},{""page_index"":1,""viewing_time"":1567.5999999511987}]","62927.17500007711","instructions","49","589102","0.0-12.0","55761","","","","","",""
"","null","audio-keyboard-response","50","598228","0.0-13.0-0.0","55761","","new_stimuli/mp3/melody_v2_v1_.mp3","","null","",""
"","3715.739999897778","html-button-response","51","601946","0.0-13.0-1.0","55761","","<p>Which tone was played first after the cadence?</p><p>Please respond as quickly and as accurately as possible!</p>","2","","1","new_stimuli/mp3/melody_v2_v1_.mp3"
"","1943.28000000678","html-button-response","52","603890","0.0-13.0-2.0","55761","","<p>Which tone was played second after the cadence?</p><p>Please respond as quickly and as accurately as possible!</p>","0","","2","new_stimuli/mp3/melody_v2_v1_.mp3"
"","null","audio-keyboard-response","53","613060","0.0-13.0-0.1","55761","","new_stimuli/mp3/melody_^5_^1+_.mp3","","null","",""
"","5797.895000083372","html-button-response","54","618859","0.0-13.0-1.1","55761","","<p>Which tone was played first after the cadence?</p><p>Please respond as quickly and as accurately as possible!</p>","2","","1","new_stimuli/mp3/melody_^5_^1+_.mp3"
"","2798.369999974966","html-button-response","55","621658","0.0-13.0-2.1","55761","","<p>Which tone was played second after the cadence?</p><p>Please respond as quickly and as accurately as possible!</p>","8","","2","new_stimuli/mp3/melody_^5_^1+_.mp3"
"","null","audio-keyboard-response","56","630670","0.0-13.0-0.2","55761","","new_stimuli/mp3/melody_^1_^2+_.mp3","","null","",""
"","2362.5300000421703","html-button-response","57","633033","0.0-13.0-1.2","55761","","<p>Which tone was played first after the cadence?</p><p>Please respond as quickly and as accurately as possible!</p>","0","","1","new_stimuli/mp3/melody_^1_^2+_.mp3"
"","1260.5999999213964","html-button-response","58","634295","0.0-13.0-2.2","55761","","<p>Which tone was played second after the cadence?</p><p>Please respond as quickly and as accurately as possible!</p>","3","","2","new_stimuli/mp3/melody_^1_^2+_.mp3"
"","null","audio-keyboard-response","59","643465","0.0-13.0-0.3","55761","","new_stimuli/mp3/melody_^2_v7-_.mp3","","null","",""
"","4810.014999937266","html-button-response","60","648276","0.0-13.0-1.3","55761","","<p>Which tone was played first after the cadence?</p><p>Please respond as quickly and as accurately as possible!</p>","2","","1","new_stimuli/mp3/melody_^2_v7-_.mp3"
"","5673.860000213608","html-button-response","61","653951","0.0-13.0-2.3","55761","","<p>Which tone was played second after the cadence?</p><p>Please respond as quickly and as accurately as possible!</p>","10","","2","new_stimuli/mp3/melody_^2_v7-_.mp3"
"","null","audio-keyboard-response","62","663123","0.0-13.0-0.4","55761","","new_stimuli/mp3/melody_v5_v1+_.mp3","","null","",""
"","2630.1649999804795","html-button-response","63","665754","0.0-13.0-1.4","55761","","<p>Which tone was played first after the cadence?</p><p>Please respond as quickly and as accurately as possible!</p>","7","","1","new_stimuli/mp3/melody_v5_v1+_.mp3"
"","848.740000044927","html-button-response","64","666604","0.0-13.0-2.4","55761","","<p>Which tone was played second after the cadence?</p><p>Please respond as quickly and as accurately as possible!</p>","1","","2","new_stimuli/mp3/melody_v5_v1+_.mp3"
"","null","audio-keyboard-response","65","676056","0.0-13.0-0.5","55761","","new_stimuli/mp3/melody_v7_v3_buffer.mp3","","null","",""
"","1367.2950000036508","html-button-response","66","677424","0.0-13.0-1.5","55761","","<p>Which tone was played first after the cadence?</p><p>Please respond as quickly and as accurately as possible!</p>","11","","1","new_stimuli/mp3/melody_v7_v3_buffer.mp3"
"","3020.754999946803","html-button-response","67","680446","0.0-13.0-2.5","55761","","<p>Which tone was played second after the cadence?</p><p>Please respond as quickly and as accurately as possible!</p>","4","","2","new_stimuli/mp3/melody_v7_v3_buffer.mp3"
"","null","audio-keyboard-response","68","689741","0.0-13.0-0.6","55761","","new_stimuli/mp3/melody_3_^6_buffer.mp3","","null","",""
"","5552.230000030249","html-button-response","69","695294","0.0-13.0-1.6","55761","","<p>Which tone was played first after the cadence?</p><p>Please respond as quickly and as accurately as possible!</p>","2","","1","new_stimuli/mp3/melody_3_^6_buffer.mp3"
"","1860.724999802187","html-button-response","70","697156","0.0-13.0-2.6","55761","","<p>Which tone was played second after the cadence?</p><p>Please respond as quickly and as accurately as possible!</p>","9","","2","new_stimuli/mp3/melody_3_^6_buffer.mp3"
"","null","audio-keyboard-response","71","706589","0.0-13.0-0.7","55761","","new_stimuli/mp3/melody_v4_v3_buffer.mp3","","null","",""
"","6315.635000122711","html-button-response","72","712907","0.0-13.0-1.7","55761","","<p>Which tone was played first after the cadence?</p><p>Please respond as quickly and as accurately as possible!</p>","5","","1","new_stimuli/mp3/melody_v4_v3_buffer.mp3"
"","597.1349999308586","html-button-response","73","713505","0.0-13.0-2.7","55761","","<p>Which tone was played second after the cadence?</p><p>Please respond as quickly and as accurately as possible!</p>","4","","2","new_stimuli/mp3/melody_v4_v3_buffer.mp3"
"","null","audio-keyboard-response","74","722696","0.0-13.0-0.8","55761","","new_stimuli/mp3/melody_v3_v2_buffer.mp3","","null","",""
"","3743.3400000445545","html-button-response","75","726441","0.0-13.0-1.8","55761","","<p>Which tone was played first after the cadence?</p><p>Please respond as quickly and as accurately as possible!</p>","4","","1","new_stimuli/mp3/melody_v3_v2_buffer.mp3"
"","1062.8800000995398","html-button-response","76","727505","0.0-13.0-2.8","55761","","<p>Which tone was played second after the cadence?</p><p>Please respond as quickly and as accurately as possible!</p>","2","","2","new_stimuli/mp3/melody_v3_v2_buffer.mp3"
"","null","audio-keyboard-response","77","736957","0.0-13.0-0.9","55761","","new_stimuli/mp3/melody_^3_v4+_buffer.mp3","","null","",""
"","1107.1399999782443","html-button-response","78","738065","0.0-13.0-1.9","55761","","<p>Which tone was played first after the cadence?</p><p>Please respond as quickly and as accurately as possible!</p>","4","","1","new_stimuli/mp3/melody_^3_v4+_buffer.mp3"
"","679.4000000227243","html-button-response","79","738747","0.0-13.0-2.9","55761","","<p>Which tone was played second after the cadence?</p><p>Please respond as quickly and as accurately as possible!</p>","6","","2","new_stimuli/mp3/melody_^3_v4+_buffer.mp3"
"[{""page_index"":0,""viewing_time"":38923.17000008188},{""page_index"":1,""viewing_time"":1533.7699998635799},{""page_index"":2,""viewing_time"":1353.8000001572073}]","41810.985000105575","instructions","80","780558","0.0-14.0","55761","","","","","",""
"","null","audio-keyboard-response","81","790597","0.0-15.0-0.0","55761","","new_stimuli/mp3/melody_v2_v5_^3_buffer.mp3","","null","",""
"","2119.334999937564","html-button-response","82","792717","0.0-15.0-1.0","55761","","<p>Which tone was played first after the cadence?</p><p>Please respond as quickly and as accurately as possible!</p>","2","","1","new_stimuli/mp3/melody_v2_v5_^3_buffer.mp3"
"","1709.210000000894","html-button-response","83","794427","0.0-15.0-2.0","55761","","<p>Which tone was played second after the cadence?</p><p>Please respond as quickly and as accurately as possible!</p>","7","","2","new_stimuli/mp3/melody_v2_v5_^3_buffer.mp3"
"","4053.319999948144","html-button-response","84","798481","0.0-15.0-3.0","55761","","<p>Which tone was played third after the cadence?</p><p>Please respond as quickly and as accurately as possible!</p>","4","","3","new_stimuli/mp3/melody_v2_v5_^3_buffer.mp3"
"","null","audio-keyboard-response","85","808042","0.0-15.0-0.1","55761","","new_stimuli/mp3/melody_v3_v2_v1_.mp3","","null","",""
"","1300.319999922067","html-button-response","86","809344","0.0-15.0-1.1","55761","","<p>Which tone was played first after the cadence?</p><p>Please respond as quickly and as accurately as possible!</p>","4","","1","new_stimuli/mp3/melody_v3_v2_v1_.mp3"
"","628.8600000552833","html-button-response","87","809974","0.0-15.0-2.1","55761","","<p>Which tone was played second after the cadence?</p><p>Please respond as quickly and as accurately as possible!</p>","2","","2","new_stimuli/mp3/melody_v3_v2_v1_.mp3"
"","838.6000001337379","html-button-response","88","810813","0.0-15.0-3.1","55761","","<p>Which tone was played third after the cadence?</p><p>Please respond as quickly and as accurately as possible!</p>","0","","3","new_stimuli/mp3/melody_v3_v2_v1_.mp3"
"","null","audio-keyboard-response","89","820399","0.0-15.0-0.2","55761","","new_stimuli/mp3/melody_v1_v7-_7-_buffer.mp3","","null","",""
"","2299.2499999236315","html-button-response","90","822699","0.0-15.0-1.2","55761","","<p>Which tone was played first after the cadence?</p><p>Please respond as quickly and as accurately as possible!</p>","12","","1","new_stimuli/mp3/melody_v1_v7-_7-_buffer.mp3"
"","766.5349999442697","html-button-response","91","823467","0.0-15.0-2.2","55761","","<p>Which tone was played second after the cadence?</p><p>Please respond as quickly and as accurately as possible!</p>","10","","2","new_stimuli/mp3/melody_v1_v7-_7-_buffer.mp3"
"","828.8249999750406","html-button-response","92","824297","0.0-15.0-3.2","55761","","<p>Which tone was played third after the cadence?</p><p>Please respond as quickly and as accurately as possible!</p>","10","","3","new_stimuli/mp3/melody_v1_v7-_7-_buffer.mp3"
"","null","audio-keyboard-response","93","834250","0.0-15.0-0.3","55761","","new_stimuli/mp3/melody_v5_v4_v3_buffer.mp3","","null","",""
"","1284.4599999953061","html-button-response","94","835536","0.0-15.0-1.3","55761","","<p>Which tone was played first after the cadence?</p><p>Please respond as quickly and as accurately as possible!</p>","7","","1","new_stimuli/mp3/melody_v5_v4_v3_buffer.mp3"
"","654.795000096783","html-button-response","95","836192","0.0-15.0-2.3","55761","","<p>Which tone was played second after the cadence?</p><p>Please respond as quickly and as accurately as possible!</p>","5","","2","new_stimuli/mp3/melody_v5_v4_v3_buffer.mp3"
"","882.8150001354516","html-button-response","96","837076","0.0-15.0-3.3","55761","","<p>Which tone was played third after the cadence?</p><p>Please respond as quickly and as accurately as possible!</p>","4","","3","new_stimuli/mp3/melody_v5_v4_v3_buffer.mp3"
"","null","audio-keyboard-response","97","846580","0.0-15.0-0.4","55761","","new_stimuli/mp3/melody_1_v1+_^2_.mp3","","null","",""
"","1521.32000005804","html-button-response","98","848103","0.0-15.0-1.4","55761","","<p>Which tone was played first after the cadence?</p><p>Please respond as quickly and as accurately as possible!</p>","0","","1","new_stimuli/mp3/melody_1_v1+_^2_.mp3"
"","1422.1550000365824","html-button-response","99","849526","0.0-15.0-2.4","55761","","<p>Which tone was played second after the cadence?</p><p>Please respond as quickly and as accurately as possible!</p>","1","","2","new_stimuli/mp3/melody_1_v1+_^2_.mp3"
"","1704.6149999368936","html-button-response","100","851231","0.0-15.0-3.4","55761","","<p>Which tone was played third after the cadence?</p><p>Please respond as quickly and as accurately as possible!</p>","2","","3","new_stimuli/mp3/melody_1_v1+_^2_.mp3"
"","null","audio-keyboard-response","101","860868","0.0-15.0-0.5","55761","","new_stimuli/mp3/melody_6_^1_v5_.mp3","","null","",""
"","1951.3100001495332","html-button-response","102","862821","0.0-15.0-1.5","55761","","<p>Which tone was played first after the cadence?</p><p>Please respond as quickly and as accurately as possible!</p>","9","","1","new_stimuli/mp3/melody_6_^1_v5_.mp3"
"","1384.5899999141693","html-button-response","103","864206","0.0-15.0-2.5","55761","","<p>Which tone was played second after the cadence?</p><p>Please respond as quickly and as accurately as possible!</p>","12","","2","new_stimuli/mp3/melody_6_^1_v5_.mp3"
"","1829.2900000233203","html-button-response","104","866037","0.0-15.0-3.5","55761","","<p>Which tone was played third after the cadence?</p><p>Please respond as quickly and as accurately as possible!</p>","7","","3","new_stimuli/mp3/melody_6_^1_v5_.mp3"
"","null","audio-keyboard-response","105","875940","0.0-15.0-0.6","55761","","new_stimuli/mp3/melody_^1_v6_v5+_.mp3","","null","",""
"","3083.3950000815094","html-button-response","106","879025","0.0-15.0-1.6","55761","","<p>Which tone was played first after the cadence?</p><p>Please respond as quickly and as accurately as possible!</p>","12","","1","new_stimuli/mp3/melody_^1_v6_v5+_.mp3"
"","1822.5500001572073","html-button-response","107","880849","0.0-15.0-2.6","55761","","<p>Which tone was played second after the cadence?</p><p>Please respond as quickly and as accurately as possible!</p>","8","","2","new_stimuli/mp3/melody_^1_v6_v5+_.mp3"
"","1395.5000001005828","html-button-response","108","882246","0.0-15.0-3.6","55761","","<p>Which tone was played third after the cadence?</p><p>Please respond as quickly and as accurately as possible!</p>","7","","3","new_stimuli/mp3/melody_^1_v6_v5+_.mp3"
"","null","audio-keyboard-response","109","891807","0.0-15.0-0.7","55761","","new_stimuli/mp3/melody_v1_v7-_^7_.mp3","","null","",""
"","9439.869999885559","html-button-response","110","901248","0.0-15.0-1.7","55761","","<p>Which tone was played first after the cadence?</p><p>Please respond as quickly and as accurately as possible!</p>","12","","1","new_stimuli/mp3/melody_v1_v7-_^7_.mp3"
"","4701.319999992847","html-button-response","111","905950","0.0-15.0-2.7","55761","","<p>Which tone was played second after the cadence?</p><p>Please respond as quickly and as accurately as possible!</p>","10","","2","new_stimuli/mp3/melody_v1_v7-_^7_.mp3"
"","628.9900001138449","html-button-response","112","906580","0.0-15.0-3.7","55761","","<p>Which tone was played third after the cadence?</p><p>Please respond as quickly and as accurately as possible!</p>","11","","3","new_stimuli/mp3/melody_v1_v7-_^7_.mp3"
"","null","audio-keyboard-response","113","916270","0.0-15.0-0.8","55761","","new_stimuli/mp3/melody_v4_v3_v2_buffer.mp3","","null","",""
"","1848.3850001357496","html-button-response","114","918120","0.0-15.0-1.8","55761","","<p>Which tone was played first after the cadence?</p><p>Please respond as quickly and as accurately as possible!</p>","5","","1","new_stimuli/mp3/melody_v4_v3_v2_buffer.mp3"
"","789.9500001221895","html-button-response","115","918911","0.0-15.0-2.8","55761","","<p>Which tone was played second after the cadence?</p><p>Please respond as quickly and as accurately as possible!</p>","4","","2","new_stimuli/mp3/melody_v4_v3_v2_buffer.mp3"
"","965.8449999988079","html-button-response","116","919878","0.0-15.0-3.8","55761","","<p>Which tone was played third after the cadence?</p><p>Please respond as quickly and as accurately as possible!</p>","2","","3","new_stimuli/mp3/melody_v4_v3_v2_buffer.mp3"
"[{""page_index"":0,""viewing_time"":48884.749999968335},{""page_index"":1,""viewing_time"":1218.4649999253452},{""page_index"":2,""viewing_time"":1422.4800001829863}]","51525.94000007957","instructions","117","971404","0.0-16.0","55761","","","","","",""
"","null","audio-keyboard-response","118","982046","0.0-17.0-0.0","55761","","new_stimuli/mp3/melody_v2_2_^3_^4_v2_.mp3","","null","",""
"","4263.890000060201","html-button-response","119","986312","0.0-17.0-1.0","55761","","<p>Which tone was played first after the cadence?</p><p>Please respond as quickly and as accurately as possible!</p>","2","","1","new_stimuli/mp3/melody_v2_2_^3_^4_v2_.mp3"
"","684.0050001628697","html-button-response","120","986997","0.0-17.0-2.0","55761","","<p>Which tone was played second after the cadence?</p><p>Please respond as quickly and as accurately as possible!</p>","2","","2","new_stimuli/mp3/melody_v2_2_^3_^4_v2_.mp3"
"","874.6899999678135","html-button-response","121","987873","0.0-17.0-3.0","55761","","<p>Which tone was played third after the cadence?</p><p>Please respond as quickly and as accurately as possible!</p>","4","","3","new_stimuli/mp3/melody_v2_2_^3_^4_v2_.mp3"
"","2359.1899999883026","html-button-response","122","990233","0.0-17.0-4.0","55761","","<p>Which tone was played fourth after the cadence?</p><p>Please respond as quickly and as accurately as possible!</p>","5","","4","new_stimuli/mp3/melody_v2_2_^3_^4_v2_.mp3"
"","1305.8150000870228","html-button-response","123","991540","0.0-17.0-5.0","55761","","<p>Which tone was played fifth after the cadence?</p><p>Please respond as quickly and as accurately as possible!</p>","2","","5","new_stimuli/mp3/melody_v2_2_^3_^4_v2_.mp3"
"","null","audio-keyboard-response","124","1002120","0.0-17.0-0.1","55761","","new_stimuli/mp3/melody_v5_v4_v3_v2_v1_.mp3","","null","",""
"","1610.385000007227","html-button-response","125","1003732","0.0-17.0-1.1","55761","","<p>Which tone was played first after the cadence?</p><p>Please respond as quickly and as accurately as possible!</p>","7","","1","new_stimuli/mp3/melody_v5_v4_v3_v2_v1_.mp3"
"","686.7150000762194","html-button-response","126","1004420","0.0-17.0-2.1","55761","","<p>Which tone was played second after the cadence?</p><p>Please respond as quickly and as accurately as possible!</p>","5","","2","new_stimuli/mp3/melody_v5_v4_v3_v2_v1_.mp3"
"","589.915000135079","html-button-response","127","1005010","0.0-17.0-3.1","55761","","<p>Which tone was played third after the cadence?</p><p>Please respond as quickly and as accurately as possible!</p>","4","","3","new_stimuli/mp3/melody_v5_v4_v3_v2_v1_.mp3"
"","869.3650001659989","html-button-response","128","1005881","0.0-17.0-4.1","55761","","<p>Which tone was played fourth after the cadence?</p><p>Please respond as quickly and as accurately as possible!</p>","2","","4","new_stimuli/mp3/melody_v5_v4_v3_v2_v1_.mp3"
"","663.1200001575053","html-button-response","129","1006545","0.0-17.0-5.1","55761","","<p>Which tone was played fifth after the cadence?</p><p>Please respond as quickly and as accurately as possible!</p>","0","","5","new_stimuli/mp3/melody_v5_v4_v3_v2_v1_.mp3"
"","null","audio-keyboard-response","130","1017491","0.0-17.0-0.2","55761","","new_stimuli/mp3/melody_^5_^6_v5_v4_v3_buffer.mp3","","null","",""
"","1554.404999827966","html-button-response","131","1019047","0.0-17.0-1.2","55761","","<p>Which tone was played first after the cadence?</p><p>Please respond as quickly and as accurately as possible!</p>","7","","1","new_stimuli/mp3/melody_^5_^6_v5_v4_v3_buffer.mp3"
"","649.1300000343472","html-button-response","132","1019698","0.0-17.0-2.2","55761","","<p>Which tone was played second after the cadence?</p><p>Please respond as quickly and as accurately as possible!</p>","9","","2","new_stimuli/mp3/melody_^5_^6_v5_v4_v3_buffer.mp3"
"","709.9200000520796","html-button-response","133","1020409","0.0-17.0-3.2","55761","","<p>Which tone was played third after the cadence?</p><p>Please respond as quickly and as accurately as possible!</p>","7","","3","new_stimuli/mp3/melody_^5_^6_v5_v4_v3_buffer.mp3"
"","797.8550000116229","html-button-response","134","1021207","0.0-17.0-4.2","55761","","<p>Which tone was played fourth after the cadence?</p><p>Please respond as quickly and as accurately as possible!</p>","5","","4","new_stimuli/mp3/melody_^5_^6_v5_v4_v3_buffer.mp3"
"","555.3749999962747","html-button-response","135","1021765","0.0-17.0-5.2","55761","","<p>Which tone was played fifth after the cadence?</p><p>Please respond as quickly and as accurately as possible!</p>","4","","5","new_stimuli/mp3/melody_^5_^6_v5_v4_v3_buffer.mp3"
"","null","audio-keyboard-response","136","1032712","0.0-17.0-0.3","55761","","new_stimuli/mp3/melody_v5-_v3_3_^4+_v3_.mp3","","null","",""
"","15417.38500003703","html-button-response","137","1048131","0.0-17.0-1.3","55761","","<p>Which tone was played first after the cadence?</p><p>Please respond as quickly and as accurately as possible!</p>","8","","1","new_stimuli/mp3/melody_v5-_v3_3_^4+_v3_.mp3"
"","662.1700001414865","html-button-response","138","1048795","0.0-17.0-2.3","55761","","<p>Which tone was played second after the cadence?</p><p>Please respond as quickly and as accurately as possible!</p>","6","","2","new_stimuli/mp3/melody_v5-_v3_3_^4+_v3_.mp3"
"","271.92500000819564","html-button-response","139","1049068","0.0-17.0-3.3","55761","","<p>Which tone was played third after the cadence?</p><p>Please respond as quickly and as accurately as possible!</p>","6","","3","new_stimuli/mp3/melody_v5-_v3_3_^4+_v3_.mp3"
"","633.8100000284612","html-button-response","140","1049703","0.0-17.0-4.3","55761","","<p>Which tone was played fourth after the cadence?</p><p>Please respond as quickly and as accurately as possible!</p>","8","","4","new_stimuli/mp3/melody_v5-_v3_3_^4+_v3_.mp3"
"","669.0599999856204","html-button-response","141","1050373","0.0-17.0-5.3","55761","","<p>Which tone was played fifth after the cadence?</p><p>Please respond as quickly and as accurately as possible!</p>","6","","5","new_stimuli/mp3/melody_v5-_v3_3_^4+_v3_.mp3"
"","null","audio-keyboard-response","142","1061005","0.0-17.0-0.4","55761","","new_stimuli/mp3/melody_v5_^6+_^7_^1_5_.mp3","","null","",""
"","2667.4450000282377","html-button-response","143","1063674","0.0-17.0-1.4","55761","","<p>Which tone was played first after the cadence?</p><p>Please respond as quickly and as accurately as possible!</p>","7","","1","new_stimuli/mp3/melody_v5_^6+_^7_^1_5_.mp3"
"","631.0499999672174","html-button-response","144","1064306","0.0-17.0-2.4","55761","","<p>Which tone was played second after the cadence?</p><p>Please respond as quickly and as accurately as possible!</p>","9","","2","new_stimuli/mp3/melody_v5_^6+_^7_^1_5_.mp3"
"","581.7950000055134","html-button-response","145","1064889","0.0-17.0-3.4","55761","","<p>Which tone was played third after the cadence?</p><p>Please respond as quickly and as accurately as possible!</p>","11","","3","new_stimuli/mp3/melody_v5_^6+_^7_^1_5_.mp3"
"","605.5149999447167","html-button-response","146","1065495","0.0-17.0-4.4","55761","","<p>Which tone was played fourth after the cadence?</p><p>Please respond as quickly and as accurately as possible!</p>","12","","4","new_stimuli/mp3/melody_v5_^6+_^7_^1_5_.mp3"
"","746.7600000090897","html-button-response","147","1066243","0.0-17.0-5.4","55761","","<p>Which tone was played fifth after the cadence?</p><p>Please respond as quickly and as accurately as possible!</p>","7","","5","new_stimuli/mp3/melody_v5_^6+_^7_^1_5_.mp3"
"","null","audio-keyboard-response","148","1076878","0.0-17.0-0.5","55761","","new_stimuli/mp3/melody_^6_v4_v3_^4_^5_.mp3","","null","",""
"","2351.354999933392","html-button-response","149","1079231","0.0-17.0-1.5","55761","","<p>Which tone was played first after the cadence?</p><p>Please respond as quickly and as accurately as possible!</p>","9","","1","new_stimuli/mp3/melody_^6_v4_v3_^4_^5_.mp3"
"","1124.7049998492002","html-button-response","150","1080356","0.0-17.0-2.5","55761","","<p>Which tone was played second after the cadence?</p><p>Please respond as quickly and as accurately as possible!</p>","5","","2","new_stimuli/mp3/melody_^6_v4_v3_^4_^5_.mp3"
"","1134.2400000430644","html-button-response","151","1081491","0.0-17.0-3.5","55761","","<p>Which tone was played third after the cadence?</p><p>Please respond as quickly and as accurately as possible!</p>","4","","3","new_stimuli/mp3/melody_^6_v4_v3_^4_^5_.mp3"
"","2000.010000076145","html-button-response","152","1083492","0.0-17.0-4.5","55761","","<p>Which tone was played fourth after the cadence?</p><p>Please respond as quickly and as accurately as possible!</p>","5","","4","new_stimuli/mp3/melody_^6_v4_v3_^4_^5_.mp3"
"","1395.6200000829995","html-button-response","153","1084889","0.0-17.0-5.5","55761","","<p>Which tone was played fifth after the cadence?</p><p>Please respond as quickly and as accurately as possible!</p>","7","","5","new_stimuli/mp3/melody_^6_v4_v3_^4_^5_.mp3"
"","null","audio-keyboard-response","154","1095597","0.0-17.0-0.6","55761","","new_stimuli/mp3/melody_^6_v5_v4_v3_v2_buffer.mp3","","null","",""
"","1317.6000001840293","html-button-response","155","1096916","0.0-17.0-1.6","55761","","<p>Which tone was played first after the cadence?</p><p>Please respond as quickly and as accurately as possible!</p>","9","","1","new_stimuli/mp3/melody_^6_v5_v4_v3_v2_buffer.mp3"
"","774.3949999567121","html-button-response","156","1097692","0.0-17.0-2.6","55761","","<p>Which tone was played second after the cadence?</p><p>Please respond as quickly and as accurately as possible!</p>","7","","2","new_stimuli/mp3/melody_^6_v5_v4_v3_v2_buffer.mp3"
"","664.9200001265854","html-button-response","157","1098357","0.0-17.0-3.6","55761","","<p>Which tone was played third after the cadence?</p><p>Please respond as quickly and as accurately as possible!</p>","5","","3","new_stimuli/mp3/melody_^6_v5_v4_v3_v2_buffer.mp3"
"","662.8799999598414","html-button-response","158","1099021","0.0-17.0-4.6","55761","","<p>Which tone was played fourth after the cadence?</p><p>Please respond as quickly and as accurately as possible!</p>","4","","4","new_stimuli/mp3/melody_^6_v5_v4_v3_v2_buffer.mp3"
"","1006.3000000081956","html-button-response","159","1100028","0.0-17.0-5.6","55761","","<p>Which tone was played fifth after the cadence?</p><p>Please respond as quickly and as accurately as possible!</p>","2","","5","new_stimuli/mp3/melody_^6_v5_v4_v3_v2_buffer.mp3"
"","null","audio-keyboard-response","160","1110616","0.0-17.0-0.7","55761","","new_stimuli/mp3/melody_v5_v4_v3_v2_v1 _buffer.mp3","","null","",""
"","1023.4950000885874","html-button-response","161","1111640","0.0-17.0-1.7","55761","","<p>Which tone was played first after the cadence?</p><p>Please respond as quickly and as accurately as possible!</p>","7","","1","new_stimuli/mp3/melody_v5_v4_v3_v2_v1 _buffer.mp3"
"","660.7399999629706","html-button-response","162","1112302","0.0-17.0-2.7","55761","","<p>Which tone was played second after the cadence?</p><p>Please respond as quickly and as accurately as possible!</p>","5","","2","new_stimuli/mp3/melody_v5_v4_v3_v2_v1 _buffer.mp3"
"","606.4249998889863","html-button-response","163","1112909","0.0-17.0-3.7","55761","","<p>Which tone was played third after the cadence?</p><p>Please respond as quickly and as accurately as possible!</p>","4","","3","new_stimuli/mp3/melody_v5_v4_v3_v2_v1 _buffer.mp3"
"","758.0999999772757","html-button-response","164","1113668","0.0-17.0-4.7","55761","","<p>Which tone was played fourth after the cadence?</p><p>Please respond as quickly and as accurately as possible!</p>","2","","4","new_stimuli/mp3/melody_v5_v4_v3_v2_v1 _buffer.mp3"
"","642.7649999968708","html-button-response","165","1114312","0.0-17.0-5.7","55761","","<p>Which tone was played fifth after the cadence?</p><p>Please respond as quickly and as accurately as possible!</p>","0","","5","new_stimuli/mp3/melody_v5_v4_v3_v2_v1 _buffer.mp3"
"[{""page_index"":0,""viewing_time"":47424.489999888465},{""page_index"":1,""viewing_time"":966.149999992922},{""page_index"":2,""viewing_time"":1062.4949999619275}]","49453.42499995604","instructions","166","1163765","0.0-18.0","55761","","","","","",""
"","null","audio-keyboard-response","167","1175503","0.0-19.0-0.0","55761","","new_stimuli/mp3/melody_^4_v6-_v5-_^6-_^4_v2-_2-_.mp3","","null","",""
"","8392.515000188723","html-button-response","168","1183898","0.0-19.0-1.0","55761","","<p>Which tone was played first after the cadence?</p><p>Please respond as quickly and as accurately as possible!</p>","8","","1","new_stimuli/mp3/melody_^4_v6-_v5-_^6-_^4_v2-_2-_.mp3"
"","2014.8800001479685","html-button-response","169","1185914","0.0-19.0-2.0","55761","","<p>Which tone was played second after the cadence?</p><p>Please respond as quickly and as accurately as possible!</p>","3","","2","new_stimuli/mp3/melody_^4_v6-_v5-_^6-_^4_v2-_2-_.mp3"
"","526.0099999140948","html-button-response","170","1186441","0.0-19.0-3.0","55761","","<p>Which tone was played third after the cadence?</p><p>Please respond as quickly and as accurately as possible!</p>","2","","3","new_stimuli/mp3/melody_^4_v6-_v5-_^6-_^4_v2-_2-_.mp3"
"","503.6750000435859","html-button-response","171","1186945","0.0-19.0-4.0","55761","","<p>Which tone was played fourth after the cadence?</p><p>Please respond as quickly and as accurately as possible!</p>","3","","4","new_stimuli/mp3/melody_^4_v6-_v5-_^6-_^4_v2-_2-_.mp3"
"","820.2100000344217","html-button-response","172","1187767","0.0-19.0-5.0","55761","","<p>Which tone was played fifth after the cadence?</p><p>Please respond as quickly and as accurately as possible!</p>","8","","5","new_stimuli/mp3/melody_^4_v6-_v5-_^6-_^4_v2-_2-_.mp3"
"","716.7849999386817","html-button-response","173","1188484","0.0-19.0-6.0","55761","","<p>Which tone was played sixth after the cadence?</p><p>Please respond as quickly and as accurately as possible!</p>","7","","6","new_stimuli/mp3/melody_^4_v6-_v5-_^6-_^4_v2-_2-_.mp3"
"","331.20999997481704","html-button-response","174","1188817","0.0-19.0-7.0","55761","","<p>Which tone was played seventh after the cadence?</p><p>Please respond as quickly and as accurately as possible!</p>","7","","7","new_stimuli/mp3/melody_^4_v6-_v5-_^6-_^4_v2-_2-_.mp3"
"","null","audio-keyboard-response","175","1200516","0.0-19.0-0.1","55761","","new_stimuli/mp3/melody_^1_v7_v6_v5_v4_v3_v2_buffer.mp3","","null","",""
"","1249.8000001069158","html-button-response","176","1201768","0.0-19.0-1.1","55761","","<p>Which tone was played first after the cadence?</p><p>Please respond as quickly and as accurately as possible!</p>","12","","1","new_stimuli/mp3/melody_^1_v7_v6_v5_v4_v3_v2_buffer.mp3"
"","578.7949999794364","html-button-response","177","1202347","0.0-19.0-2.1","55761","","<p>Which tone was played second after the cadence?</p><p>Please respond as quickly and as accurately as possible!</p>","11","","2","new_stimuli/mp3/melody_^1_v7_v6_v5_v4_v3_v2_buffer.mp3"
"","696.4450001250952","html-button-response","178","1203045","0.0-19.0-3.1","55761","","<p>Which tone was played third after the cadence?</p><p>Please respond as quickly and as accurately as possible!</p>","9","","3","new_stimuli/mp3/melody_^1_v7_v6_v5_v4_v3_v2_buffer.mp3"
"","717.1699998434633","html-button-response","179","1203763","0.0-19.0-4.1","55761","","<p>Which tone was played fourth after the cadence?</p><p>Please respond as quickly and as accurately as possible!</p>","7","","4","new_stimuli/mp3/melody_^1_v7_v6_v5_v4_v3_v2_buffer.mp3"
"","774.4599999859929","html-button-response","180","1204538","0.0-19.0-5.1","55761","","<p>Which tone was played fifth after the cadence?</p><p>Please respond as quickly and as accurately as possible!</p>","5","","5","new_stimuli/mp3/melody_^1_v7_v6_v5_v4_v3_v2_buffer.mp3"
"","569.4999999832362","html-button-response","181","1205109","0.0-19.0-6.1","55761","","<p>Which tone was played sixth after the cadence?</p><p>Please respond as quickly and as accurately as possible!</p>","4","","6","new_stimuli/mp3/melody_^1_v7_v6_v5_v4_v3_v2_buffer.mp3"
"","845.3550001140684","html-button-response","182","1205955","0.0-19.0-7.1","55761","","<p>Which tone was played seventh after the cadence?</p><p>Please respond as quickly and as accurately as possible!</p>","2","","7","new_stimuli/mp3/melody_^1_v7_v6_v5_v4_v3_v2_buffer.mp3"
"","null","audio-keyboard-response","183","1217524","0.0-19.0-0.2","55761","","new_stimuli/mp3/melody_^5_^6_v5_v4_v3_v2_v1_buffer.mp3","","null","",""
"","1174.9400000553578","html-button-response","184","1218701","0.0-19.0-1.2","55761","","<p>Which tone was played first after the cadence?</p><p>Please respond as quickly and as accurately as possible!</p>","7","","1","new_stimuli/mp3/melody_^5_^6_v5_v4_v3_v2_v1_buffer.mp3"
"","650.870000012219","html-button-response","185","1219353","0.0-19.0-2.2","55761","","<p>Which tone was played second after the cadence?</p><p>Please respond as quickly and as accurately as possible!</p>","9","","2","new_stimuli/mp3/melody_^5_^6_v5_v4_v3_v2_v1_buffer.mp3"
"","949.9000001233071","html-button-response","186","1220304","0.0-19.0-3.2","55761","","<p>Which tone was played third after the cadence?</p><p>Please respond as quickly and as accurately as possible!</p>","7","","3","new_stimuli/mp3/melody_^5_^6_v5_v4_v3_v2_v1_buffer.mp3"
"","728.0650001484901","html-button-response","187","1221033","0.0-19.0-4.2","55761","","<p>Which tone was played fourth after the cadence?</p><p>Please respond as quickly and as accurately as possible!</p>","5","","4","new_stimuli/mp3/melody_^5_^6_v5_v4_v3_v2_v1_buffer.mp3"
"","568.9550000242889","html-button-response","188","1221603","0.0-19.0-5.2","55761","","<p>Which tone was played fifth after the cadence?</p><p>Please respond as quickly and as accurately as possible!</p>","4","","5","new_stimuli/mp3/melody_^5_^6_v5_v4_v3_v2_v1_buffer.mp3"
"","728.025000076741","html-button-response","189","1222332","0.0-19.0-6.2","55761","","<p>Which tone was played sixth after the cadence?</p><p>Please respond as quickly and as accurately as possible!</p>","2","","6","new_stimuli/mp3/melody_^5_^6_v5_v4_v3_v2_v1_buffer.mp3"
"","757.0399998221546","html-button-response","190","1223090","0.0-19.0-7.2","55761","","<p>Which tone was played seventh after the cadence?</p><p>Please respond as quickly and as accurately as possible!</p>","0","","7","new_stimuli/mp3/melody_^5_^6_v5_v4_v3_v2_v1_buffer.mp3"
"","null","audio-keyboard-response","191","1235049","0.0-19.0-0.3","55761","","new_stimuli/mp3/melody_1_^3_v1_^5_v3_v2_^3_.mp3","","null","",""
"","2950.3350001759827","html-button-response","192","1238001","0.0-19.0-1.3","55761","","<p>Which tone was played first after the cadence?</p><p>Please respond as quickly and as accurately as possible!</p>","0","","1","new_stimuli/mp3/melody_1_^3_v1_^5_v3_v2_^3_.mp3"
"","3377.335000084713","html-button-response","193","1241379","0.0-19.0-2.3","55761","","<p>Which tone was played second after the cadence?</p><p>Please respond as quickly and as accurately as possible!</p>","4","","2","new_stimuli/mp3/melody_1_^3_v1_^5_v3_v2_^3_.mp3"
"","3285.369999939576","html-button-response","194","1244666","0.0-19.0-3.3","55761","","<p>Which tone was played third after the cadence?</p><p>Please respond as quickly and as accurately as possible!</p>","0","","3","new_stimuli/mp3/melody_1_^3_v1_^5_v3_v2_^3_.mp3"
"","1927.350000012666","html-button-response","195","1246595","0.0-19.0-4.3","55761","","<p>Which tone was played fourth after the cadence?</p><p>Please respond as quickly and as accurately as possible!</p>","7","","4","new_stimuli/mp3/melody_1_^3_v1_^5_v3_v2_^3_.mp3"
"","926.6999999526888","html-button-response","196","1247522","0.0-19.0-5.3","55761","","<p>Which tone was played fifth after the cadence?</p><p>Please respond as quickly and as accurately as possible!</p>","5","","5","new_stimuli/mp3/melody_1_^3_v1_^5_v3_v2_^3_.mp3"
"","980.3899999242276","html-button-response","197","1248504","0.0-19.0-6.3","55761","","<p>Which tone was played sixth after the cadence?</p><p>Please respond as quickly and as accurately as possible!</p>","4","","6","new_stimuli/mp3/melody_1_^3_v1_^5_v3_v2_^3_.mp3"
"","5817.550000036135","html-button-response","198","1254322","0.0-19.0-7.3","55761","","<p>Which tone was played seventh after the cadence?</p><p>Please respond as quickly and as accurately as possible!</p>","4","","7","new_stimuli/mp3/melody_1_^3_v1_^5_v3_v2_^3_.mp3"
"","null","audio-keyboard-response","199","1266019","0.0-19.0-0.4","55761","","new_stimuli/mp3/melody_^4_^5_^6_v5_v4_v3_v2_.mp3","","null","",""
"","903.3399999607354","html-button-response","200","1266923","0.0-19.0-1.4","55761","","<p>Which tone was played first after the cadence?</p><p>Please respond as quickly and as accurately as possible!</p>","5","","1","new_stimuli/mp3/melody_^4_^5_^6_v5_v4_v3_v2_.mp3"
"","744.5450001396239","html-button-response","201","1267669","0.0-19.0-2.4","55761","","<p>Which tone was played second after the cadence?</p><p>Please respond as quickly and as accurately as possible!</p>","7","","2","new_stimuli/mp3/melody_^4_^5_^6_v5_v4_v3_v2_.mp3"
"","702.6750000659376","html-button-response","202","1268372","0.0-19.0-3.4","55761","","<p>Which tone was played third after the cadence?</p><p>Please respond as quickly and as accurately as possible!</p>","9","","3","new_stimuli/mp3/melody_^4_^5_^6_v5_v4_v3_v2_.mp3"
"","668.4250000398606","html-button-response","203","1269042","0.0-19.0-4.4","55761","","<p>Which tone was played fourth after the cadence?</p><p>Please respond as quickly and as accurately as possible!</p>","7","","4","new_stimuli/mp3/melody_^4_^5_^6_v5_v4_v3_v2_.mp3"
"","664.4749999977648","html-button-response","204","1269707","0.0-19.0-5.4","55761","","<p>Which tone was played fifth after the cadence?</p><p>Please respond as quickly and as accurately as possible!</p>","5","","5","new_stimuli/mp3/melody_^4_^5_^6_v5_v4_v3_v2_.mp3"
"","1220.3600001521409","html-button-response","205","1270929","0.0-19.0-6.4","55761","","<p>Which tone was played sixth after the cadence?</p><p>Please respond as quickly and as accurately as possible!</p>","4","","6","new_stimuli/mp3/melody_^4_^5_^6_v5_v4_v3_v2_.mp3"
"","729.0449999272823","html-button-response","206","1271659","0.0-19.0-7.4","55761","","<p>Which tone was played seventh after the cadence?</p><p>Please respond as quickly and as accurately as possible!</p>","2","","7","new_stimuli/mp3/melody_^4_^5_^6_v5_v4_v3_v2_.mp3"
"","null","audio-keyboard-response","207","1283358","0.0-19.0-0.5","55761","","new_stimuli/mp3/melody_v1_^2_v1_v7_^1_^3_v2_.mp3","","null","",""
"","7349.679999984801","html-button-response","208","1290709","0.0-19.0-1.5","55761","","<p>Which tone was played first after the cadence?</p><p>Please respond as quickly and as accurately as possible!</p>","0","","1","new_stimuli/mp3/melody_v1_^2_v1_v7_^1_^3_v2_.mp3"
"","869.6900000795722","html-button-response","209","1291580","0.0-19.0-2.5","55761","","<p>Which tone was played second after the cadence?</p><p>Please respond as quickly and as accurately as possible!</p>","2","","2","new_stimuli/mp3/melody_v1_^2_v1_v7_^1_^3_v2_.mp3"
"","785.6650000903755","html-button-response","210","1292367","0.0-19.0-3.5","55761","","<p>Which tone was played third after the cadence?</p><p>Please respond as quickly and as accurately as possible!</p>","0","","3","new_stimuli/mp3/melody_v1_^2_v1_v7_^1_^3_v2_.mp3"
"","1278.059999924153","html-button-response","211","1293646","0.0-19.0-4.5","55761","","<p>Which tone was played fourth after the cadence?</p><p>Please respond as quickly and as accurately as possible!</p>","11","","4","new_stimuli/mp3/melody_v1_^2_v1_v7_^1_^3_v2_.mp3"
"","1820.0099999085069","html-button-response","212","1295467","0.0-19.0-5.5","55761","","<p>Which tone was played fifth after the cadence?</p><p>Please respond as quickly and as accurately as possible!</p>","0","","5","new_stimuli/mp3/melody_v1_^2_v1_v7_^1_^3_v2_.mp3"
"","1550.9249998722225","html-button-response","213","1297019","0.0-19.0-6.5","55761","","<p>Which tone was played sixth after the cadence?</p><p>Please respond as quickly and as accurately as possible!</p>","4","","6","new_stimuli/mp3/melody_v1_^2_v1_v7_^1_^3_v2_.mp3"
"","1045.274999924004","html-button-response","214","1298065","0.0-19.0-7.5","55761","","<p>Which tone was played seventh after the cadence?</p><p>Please respond as quickly and as accurately as possible!</p>","2","","7","new_stimuli/mp3/melody_v1_^2_v1_v7_^1_^3_v2_.mp3"
"","null","audio-keyboard-response","215","1309710","0.0-19.0-0.6","55761","","new_stimuli/mp3/melody_^6_v5+_v4_^5+_v3_v1_v7-_.mp3","","null","",""
"","1085.7349999714643","html-button-response","216","1310797","0.0-19.0-1.6","55761","","<p>Which tone was played first after the cadence?</p><p>Please respond as quickly and as accurately as possible!</p>","12","","1","new_stimuli/mp3/melody_^6_v5+_v4_^5+_v3_v1_v7-_.mp3"
"","5858.000000007451","html-button-response","217","1316656","0.0-19.0-2.6","55761","","<p>Which tone was played second after the cadence?</p><p>Please respond as quickly and as accurately as possible!</p>","10","","2","new_stimuli/mp3/melody_^6_v5+_v4_^5+_v3_v1_v7-_.mp3"
"","688.205000013113","html-button-response","218","1317346","0.0-19.0-3.6","55761","","<p>Which tone was played third after the cadence?</p><p>Please respond as quickly and as accurately as possible!</p>","8","","3","new_stimuli/mp3/melody_^6_v5+_v4_^5+_v3_v1_v7-_.mp3"
"","604.0650000795722","html-button-response","219","1317951","0.0-19.0-4.6","55761","","<p>Which tone was played fourth after the cadence?</p><p>Please respond as quickly and as accurately as possible!</p>","10","","4","new_stimuli/mp3/melody_^6_v5+_v4_^5+_v3_v1_v7-_.mp3"
"","646.1399998515844","html-button-response","220","1318598","0.0-19.0-5.6","55761","","<p>Which tone was played fifth after the cadence?</p><p>Please respond as quickly and as accurately as possible!</p>","8","","5","new_stimuli/mp3/melody_^6_v5+_v4_^5+_v3_v1_v7-_.mp3"
"","4765.769999939948","html-button-response","221","1323365","0.0-19.0-6.6","55761","","<p>Which tone was played sixth after the cadence?</p><p>Please respond as quickly and as accurately as possible!</p>","6","","6","new_stimuli/mp3/melody_^6_v5+_v4_^5+_v3_v1_v7-_.mp3"
"","818.2100001722574","html-button-response","222","1324184","0.0-19.0-7.6","55761","","<p>Which tone was played seventh after the cadence?</p><p>Please respond as quickly and as accurately as possible!</p>","4","","7","new_stimuli/mp3/melody_^6_v5+_v4_^5+_v3_v1_v7-_.mp3"
"[{""page_index"":0,""viewing_time"":4049.4800000451505},{""page_index"":1,""viewing_time"":1902.5200000032783},{""page_index"":2,""viewing_time"":1000.1300000585616}]","6952.409999910742","instructions","223","1331137","0.0-20.0","55761","","","","","",""
"","null","audio-keyboard-response","224","1343699","0.0-21.0-0.0","55761","","new_stimuli/mp3/melody_^3_^4_^5 _^6_v5_v4_v3_v2_v1_.mp3","","null","",""
"","3675.4199999850243","html-button-response","225","1347375","0.0-21.0-1.0","55761","","<p>Which tone was played first after the cadence?</p><p>Please respond as quickly and as accurately as possible!</p>","4","","1","new_stimuli/mp3/melody_^3_^4_^5 _^6_v5_v4_v3_v2_v1_.mp3"
"","621.9350001774728","html-button-response","226","1347998","0.0-21.0-2.0","55761","","<p>Which tone was played second after the cadence?</p><p>Please respond as quickly and as accurately as possible!</p>","5","","2","new_stimuli/mp3/melody_^3_^4_^5 _^6_v5_v4_v3_v2_v1_.mp3"
"","709.4750001560897","html-button-response","227","1348708","0.0-21.0-3.0","55761","","<p>Which tone was played third after the cadence?</p><p>Please respond as quickly and as accurately as possible!</p>","7","","3","new_stimuli/mp3/melody_^3_^4_^5 _^6_v5_v4_v3_v2_v1_.mp3"
"","666.8550001922995","html-button-response","228","1349376","0.0-21.0-4.0","55761","","<p>Which tone was played fourth after the cadence?</p><p>Please respond as quickly and as accurately as possible!</p>","9","","4","new_stimuli/mp3/melody_^3_^4_^5 _^6_v5_v4_v3_v2_v1_.mp3"
"","646.4200001209974","html-button-response","229","1350024","0.0-21.0-5.0","55761","","<p>Which tone was played fifth after the cadence?</p><p>Please respond as quickly and as accurately as possible!</p>","7","","5","new_stimuli/mp3/melody_^3_^4_^5 _^6_v5_v4_v3_v2_v1_.mp3"
"","1029.6249999664724","html-button-response","230","1351054","0.0-21.0-6.0","55761","","<p>Which tone was played sixth after the cadence?</p><p>Please respond as quickly and as accurately as possible!</p>","5","","6","new_stimuli/mp3/melody_^3_^4_^5 _^6_v5_v4_v3_v2_v1_.mp3"
"","893.6550000216812","html-button-response","231","1351949","0.0-21.0-7.0","55761","","<p>Which tone was played seventh after the cadence?</p><p>Please respond as quickly and as accurately as possible!</p>","4","","7","new_stimuli/mp3/melody_^3_^4_^5 _^6_v5_v4_v3_v2_v1_.mp3"
"","2801.909999921918","html-button-response","232","1354752","0.0-21.0-8.0","55761","","<p>Which tone was played eight after the cadence?</p><p>Please respond as quickly and as accurately as possible!</p>","2","","8","new_stimuli/mp3/melody_^3_^4_^5 _^6_v5_v4_v3_v2_v1_.mp3"
"","849.1949997842312","html-button-response","233","1355602","0.0-21.0-9.0","55761","","<p>Which tone was played nineth after the cadence?</p><p>Please respond as quickly and as accurately as possible!</p>","0","","9","new_stimuli/mp3/melody_^3_^4_^5 _^6_v5_v4_v3_v2_v1_.mp3"
"","null","audio-keyboard-response","234","1368296","0.0-21.0-0.1","55761","","new_stimuli/mp3/melody_^2_^3_^4_^5_^6_v5_v4_v3_v2_buffer.mp3","","null","",""
"","1392.9149999748915","html-button-response","235","1369690","0.0-21.0-1.1","55761","","<p>Which tone was played first after the cadence?</p><p>Please respond as quickly and as accurately as possible!</p>","2","","1","new_stimuli/mp3/melody_^2_^3_^4_^5_^6_v5_v4_v3_v2_buffer.mp3"
"","2587.3000000137836","html-button-response","236","1372278","0.0-21.0-2.1","55761","","<p>Which tone was played second after the cadence?</p><p>Please respond as quickly and as accurately as possible!</p>","5","","2","new_stimuli/mp3/melody_^2_^3_^4_^5_^6_v5_v4_v3_v2_buffer.mp3"
"","800.9699999820441","html-button-response","237","1373080","0.0-21.0-3.1","55761","","<p>Which tone was played third after the cadence?</p><p>Please respond as quickly and as accurately as possible!</p>","7","","3","new_stimuli/mp3/melody_^2_^3_^4_^5_^6_v5_v4_v3_v2_buffer.mp3"
"","751.7849998548627","html-button-response","238","1373833","0.0-21.0-4.1","55761","","<p>Which tone was played fourth after the cadence?</p><p>Please respond as quickly and as accurately as possible!</p>","9","","4","new_stimuli/mp3/melody_^2_^3_^4_^5_^6_v5_v4_v3_v2_buffer.mp3"
"","1123.6900000367314","html-button-response","239","1374957","0.0-21.0-5.1","55761","","<p>Which tone was played fifth after the cadence?</p><p>Please respond as quickly and as accurately as possible!</p>","7","","5","new_stimuli/mp3/melody_^2_^3_^4_^5_^6_v5_v4_v3_v2_buffer.mp3"
"","805.3200000431389","html-button-response","240","1375764","0.0-21.0-6.1","55761","","<p>Which tone was played sixth after the cadence?</p><p>Please respond as quickly and as accurately as possible!</p>","5","","6","new_stimuli/mp3/melody_^2_^3_^4_^5_^6_v5_v4_v3_v2_buffer.mp3"
"","1510.7150000985712","html-button-response","241","1377276","0.0-21.0-7.1","55761","","<p>Which tone was played seventh after the cadence?</p><p>Please respond as quickly and as accurately as possible!</p>","4","","7","new_stimuli/mp3/melody_^2_^3_^4_^5_^6_v5_v4_v3_v2_buffer.mp3"
"","750.0750001054257","html-button-response","242","1378027","0.0-21.0-8.1","55761","","<p>Which tone was played eight after the cadence?</p><p>Please respond as quickly and as accurately as possible!</p>","2","","8","new_stimuli/mp3/melody_^2_^3_^4_^5_^6_v5_v4_v3_v2_buffer.mp3"
"","3202.2550001274794","html-button-response","243","1381230","0.0-21.0-9.1","55761","","<p>Which tone was played nineth after the cadence?</p><p>Please respond as quickly and as accurately as possible!</p>","2","","9","new_stimuli/mp3/melody_^2_^3_^4_^5_^6_v5_v4_v3_v2_buffer.mp3"
"","null","audio-keyboard-response","244","1394183","0.0-21.0-0.2","55761","","new_stimuli/mp3/melody_^5_^6_v5_v4_v3_v2_v1_^2_^3_buffer.mp3","","null","",""
"","2306.224999949336","html-button-response","245","1396491","0.0-21.0-1.2","55761","","<p>Which tone was played first after the cadence?</p><p>Please respond as quickly and as accurately as possible!</p>","7","","1","new_stimuli/mp3/melody_^5_^6_v5_v4_v3_v2_v1_^2_^3_buffer.mp3"
"","1038.9300000388175","html-button-response","246","1397531","0.0-21.0-2.2","55761","","<p>Which tone was played second after the cadence?</p><p>Please respond as quickly and as accurately as possible!</p>","9","","2","new_stimuli/mp3/melody_^5_^6_v5_v4_v3_v2_v1_^2_^3_buffer.mp3"
"","895.2450000215322","html-button-response","247","1398427","0.0-21.0-3.2","55761","","<p>Which tone was played third after the cadence?</p><p>Please respond as quickly and as accurately as possible!</p>","7","","3","new_stimuli/mp3/melody_^5_^6_v5_v4_v3_v2_v1_^2_^3_buffer.mp3"
"","783.1700001843274","html-button-response","248","1399211","0.0-21.0-4.2","55761","","<p>Which tone was played fourth after the cadence?</p><p>Please respond as quickly and as accurately as possible!</p>","5","","4","new_stimuli/mp3/melody_^5_^6_v5_v4_v3_v2_v1_^2_^3_buffer.mp3"
"","606.6449999343604","html-button-response","249","1399818","0.0-21.0-5.2","55761","","<p>Which tone was played fifth after the cadence?</p><p>Please respond as quickly and as accurately as possible!</p>","4","","5","new_stimuli/mp3/melody_^5_^6_v5_v4_v3_v2_v1_^2_^3_buffer.mp3"
"","774.3500000797212","html-button-response","250","1400594","0.0-21.0-6.2","55761","","<p>Which tone was played sixth after the cadence?</p><p>Please respond as quickly and as accurately as possible!</p>","2","","6","new_stimuli/mp3/melody_^5_^6_v5_v4_v3_v2_v1_^2_^3_buffer.mp3"
"","791.3699999917299","html-button-response","251","1401386","0.0-21.0-7.2","55761","","<p>Which tone was played seventh after the cadence?</p><p>Please respond as quickly and as accurately as possible!</p>","0","","7","new_stimuli/mp3/melody_^5_^6_v5_v4_v3_v2_v1_^2_^3_buffer.mp3"
"","759.3900000210851","html-button-response","252","1402147","0.0-21.0-8.2","55761","","<p>Which tone was played eight after the cadence?</p><p>Please respond as quickly and as accurately as possible!</p>","2","","8","new_stimuli/mp3/melody_^5_^6_v5_v4_v3_v2_v1_^2_^3_buffer.mp3"
"","812.8649999853224","html-button-response","253","1402960","0.0-21.0-9.2","55761","","<p>Which tone was played nineth after the cadence?</p><p>Please respond as quickly and as accurately as possible!</p>","4","","9","new_stimuli/mp3/melody_^5_^6_v5_v4_v3_v2_v1_^2_^3_buffer.mp3"
"","null","audio-keyboard-response","254","1415890","0.0-21.0-0.3","55761","","new_stimuli/mp3/melody_^2_^4_v3_v2_v1_v3_v2+_^3_^5+_.mp3","","null","",""
"","1510.3399998042732","html-button-response","255","1417402","0.0-21.0-1.3","55761","","<p>Which tone was played first after the cadence?</p><p>Please respond as quickly and as accurately as possible!</p>","2","","1","new_stimuli/mp3/melody_^2_^4_v3_v2_v1_v3_v2+_^3_^5+_.mp3"
"","2188.564999960363","html-button-response","256","1419592","0.0-21.0-2.3","55761","","<p>Which tone was played second after the cadence?</p><p>Please respond as quickly and as accurately as possible!</p>","5","","2","new_stimuli/mp3/melody_^2_^4_v3_v2_v1_v3_v2+_^3_^5+_.mp3"
"","630.2499999292195","html-button-response","257","1420223","0.0-21.0-3.3","55761","","<p>Which tone was played third after the cadence?</p><p>Please respond as quickly and as accurately as possible!</p>","4","","3","new_stimuli/mp3/melody_^2_^4_v3_v2_v1_v3_v2+_^3_^5+_.mp3"
"","820.3499999362975","html-button-response","258","1421044","0.0-21.0-4.3","55761","","<p>Which tone was played fourth after the cadence?</p><p>Please respond as quickly and as accurately as possible!</p>","2","","4","new_stimuli/mp3/melody_^2_^4_v3_v2_v1_v3_v2+_^3_^5+_.mp3"
"","1536.4850000478327","html-button-response","259","1422582","0.0-21.0-5.3","55761","","<p>Which tone was played fifth after the cadence?</p><p>Please respond as quickly and as accurately as possible!</p>","0","","5","new_stimuli/mp3/melody_^2_^4_v3_v2_v1_v3_v2+_^3_^5+_.mp3"
"","6584.809999912977","html-button-response","260","1429168","0.0-21.0-6.3","55761","","<p>Which tone was played sixth after the cadence?</p><p>Please respond as quickly and as accurately as possible!</p>","6","","6","new_stimuli/mp3/melody_^2_^4_v3_v2_v1_v3_v2+_^3_^5+_.mp3"
"","3251.719999825582","html-button-response","261","1432421","0.0-21.0-7.3","55761","","<p>Which tone was played seventh after the cadence?</p><p>Please respond as quickly and as accurately as possible!</p>","8","","7","new_stimuli/mp3/melody_^2_^4_v3_v2_v1_v3_v2+_^3_^5+_.mp3"
"","1231.8949999753386","html-button-response","262","1433654","0.0-21.0-8.3","55761","","<p>Which tone was played eight after the cadence?</p><p>Please respond as quickly and as accurately as possible!</p>","1","","8","new_stimuli/mp3/melody_^2_^4_v3_v2_v1_v3_v2+_^3_^5+_.mp3"
"","1194.7599998675287","html-button-response","263","1434850","0.0-21.0-9.3","55761","","<p>Which tone was played nineth after the cadence?</p><p>Please respond as quickly and as accurately as possible!</p>","10","","9","new_stimuli/mp3/melody_^2_^4_v3_v2_v1_v3_v2+_^3_^5+_.mp3"
"","null","audio-keyboard-response","264","1447490","0.0-21.0-0.4","55761","","new_stimuli/mp3/melody_v7_v6_v5_^6_v5_v4_^5_^6_v5_.mp3","","null","",""
"","1860.829999903217","html-button-response","265","1449352","0.0-21.0-1.4","55761","","<p>Which tone was played first after the cadence?</p><p>Please respond as quickly and as accurately as possible!</p>","11","","1","new_stimuli/mp3/melody_v7_v6_v5_^6_v5_v4_^5_^6_v5_.mp3"
"","3981.3500000163913","html-button-response","266","1453335","0.0-21.0-2.4","55761","","<p>Which tone was played second after the cadence?</p><p>Please respond as quickly and as accurately as possible!</p>","9","","2","new_stimuli/mp3/melody_v7_v6_v5_^6_v5_v4_^5_^6_v5_.mp3"
"","1012.3199999798089","html-button-response","267","1454348","0.0-21.0-3.4","55761","","<p>Which tone was played third after the cadence?</p><p>Please respond as quickly and as accurately as possible!</p>","7","","3","new_stimuli/mp3/melody_v7_v6_v5_^6_v5_v4_^5_^6_v5_.mp3"
"","829.8199998680502","html-button-response","268","1455179","0.0-21.0-4.4","55761","","<p>Which tone was played fourth after the cadence?</p><p>Please respond as quickly and as accurately as possible!</p>","6","","4","new_stimuli/mp3/melody_v7_v6_v5_^6_v5_v4_^5_^6_v5_.mp3"
"","587.1950001455843","html-button-response","269","1455767","0.0-21.0-5.4","55761","","<p>Which tone was played fifth after the cadence?</p><p>Please respond as quickly and as accurately as possible!</p>","7","","5","new_stimuli/mp3/melody_v7_v6_v5_^6_v5_v4_^5_^6_v5_.mp3"
"","997.5850000046194","html-button-response","270","1456766","0.0-21.0-6.4","55761","","<p>Which tone was played sixth after the cadence?</p><p>Please respond as quickly and as accurately as possible!</p>","9","","6","new_stimuli/mp3/melody_v7_v6_v5_^6_v5_v4_^5_^6_v5_.mp3"
"","884.1550000943244","html-button-response","271","1457652","0.0-21.0-7.4","55761","","<p>Which tone was played seventh after the cadence?</p><p>Please respond as quickly and as accurately as possible!</p>","11","","7","new_stimuli/mp3/melody_v7_v6_v5_^6_v5_v4_^5_^6_v5_.mp3"
"","1921.9100000336766","html-button-response","272","1459574","0.0-21.0-8.4","55761","","<p>Which tone was played eight after the cadence?</p><p>Please respond as quickly and as accurately as possible!</p>","9","","8","new_stimuli/mp3/melody_v7_v6_v5_^6_v5_v4_^5_^6_v5_.mp3"
"","3805.2199999801815","html-button-response","273","1463380","0.0-21.0-9.4","55761","","<p>Which tone was played nineth after the cadence?</p><p>Please respond as quickly and as accurately as possible!</p>","7","","9","new_stimuli/mp3/melody_v7_v6_v5_^6_v5_v4_^5_^6_v5_.mp3"
"","null","audio-keyboard-response","274","1476023","0.0-21.0-0.5","55761","","new_stimuli/mp3/melody_v5_v4_v6+_^7_^3+_v3_v2_v5_^4_.mp3","","null","",""
"","3259.559999918565","html-button-response","275","1479283","0.0-21.0-1.5","55761","","<p>Which tone was played first after the cadence?</p><p>Please respond as quickly and as accurately as possible!</p>","7","","1","new_stimuli/mp3/melody_v5_v4_v6+_^7_^3+_v3_v2_v5_^4_.mp3"
"","965.4449999798089","html-button-response","276","1480250","0.0-21.0-2.5","55761","","<p>Which tone was played second after the cadence?</p><p>Please respond as quickly and as accurately as possible!</p>","5","","2","new_stimuli/mp3/melody_v5_v4_v6+_^7_^3+_v3_v2_v5_^4_.mp3"
"","1664.0149999875575","html-button-response","277","1481914","0.0-21.0-3.5","55761","","<p>Which tone was played third after the cadence?</p><p>Please respond as quickly and as accurately as possible!</p>","9","","3","new_stimuli/mp3/melody_v5_v4_v6+_^7_^3+_v3_v2_v5_^4_.mp3"
"","655.4350000806153","html-button-response","278","1482571","0.0-21.0-4.5","55761","","<p>Which tone was played fourth after the cadence?</p><p>Please respond as quickly and as accurately as possible!</p>","11","","4","new_stimuli/mp3/melody_v5_v4_v6+_^7_^3+_v3_v2_v5_^4_.mp3"
"","3103.710000170395","html-button-response","279","1485676","0.0-21.0-5.5","55761","","<p>Which tone was played fifth after the cadence?</p><p>Please respond as quickly and as accurately as possible!</p>","3","","5","new_stimuli/mp3/melody_v5_v4_v6+_^7_^3+_v3_v2_v5_^4_.mp3"
"","746.0950000677258","html-button-response","280","1486423","0.0-21.0-6.5","55761","","<p>Which tone was played sixth after the cadence?</p><p>Please respond as quickly and as accurately as possible!</p>","2","","6","new_stimuli/mp3/melody_v5_v4_v6+_^7_^3+_v3_v2_v5_^4_.mp3"
"","6347.335000056773","html-button-response","281","1492771","0.0-21.0-7.5","55761","","<p>Which tone was played seventh after the cadence?</p><p>Please respond as quickly and as accurately as possible!</p>","6","","7","new_stimuli/mp3/melody_v5_v4_v6+_^7_^3+_v3_v2_v5_^4_.mp3"
"","506.75000017508864","html-button-response","282","1493279","0.0-21.0-8.5","55761","","<p>Which tone was played eight after the cadence?</p><p>Please respond as quickly and as accurately as possible!</p>","5","","8","new_stimuli/mp3/melody_v5_v4_v6+_^7_^3+_v3_v2_v5_^4_.mp3"
"","549.265000037849","html-button-response","283","1493830","0.0-21.0-9.5","55761","","<p>Which tone was played nineth after the cadence?</p><p>Please respond as quickly and as accurately as possible!</p>","4","","9","new_stimuli/mp3/melody_v5_v4_v6+_^7_^3+_v3_v2_v5_^4_.mp3"
"","null","audio-keyboard-response","284","1506471","0.0-21.0-0.6","55761","","new_stimuli/mp3/melody_^3_^4_v2_v7_^1_^2_^3_3_^4_.mp3","","null","",""
"","5470.5149999354035","html-button-response","285","1511943","0.0-21.0-1.6","55761","","<p>Which tone was played first after the cadence?</p><p>Please respond as quickly and as accurately as possible!</p>","4","","1","new_stimuli/mp3/melody_^3_^4_v2_v7_^1_^2_^3_3_^4_.mp3"
"","606.7599998787045","html-button-response","286","1512551","0.0-21.0-2.6","55761","","<p>Which tone was played second after the cadence?</p><p>Please respond as quickly and as accurately as possible!</p>","5","","2","new_stimuli/mp3/melody_^3_^4_v2_v7_^1_^2_^3_3_^4_.mp3"
"","613.8749998062849","html-button-response","287","1513165","0.0-21.0-3.6","55761","","<p>Which tone was played third after the cadence?</p><p>Please respond as quickly and as accurately as possible!</p>","4","","3","new_stimuli/mp3/melody_^3_^4_v2_v7_^1_^2_^3_3_^4_.mp3"
"","4435.834999894723","html-button-response","288","1517602","0.0-21.0-4.6","55761","","<p>Which tone was played fourth after the cadence?</p><p>Please respond as quickly and as accurately as possible!</p>","0","","4","new_stimuli/mp3/melody_^3_^4_v2_v7_^1_^2_^3_3_^4_.mp3"
"","704.4999999925494","html-button-response","289","1518308","0.0-21.0-5.6","55761","","<p>Which tone was played fifth after the cadence?</p><p>Please respond as quickly and as accurately as possible!</p>","2","","5","new_stimuli/mp3/melody_^3_^4_v2_v7_^1_^2_^3_3_^4_.mp3"
"","756.7300000227988","html-button-response","290","1519066","0.0-21.0-6.6","55761","","<p>Which tone was played sixth after the cadence?</p><p>Please respond as quickly and as accurately as possible!</p>","4","","6","new_stimuli/mp3/melody_^3_^4_v2_v7_^1_^2_^3_3_^4_.mp3"
"","2558.184999972582","html-button-response","291","1521630","0.0-21.0-7.6","55761","","<p>Which tone was played seventh after the cadence?</p><p>Please respond as quickly and as accurately as possible!</p>","0","","7","new_stimuli/mp3/melody_^3_^4_v2_v7_^1_^2_^3_3_^4_.mp3"
"","587.2349999845028","html-button-response","292","1522218","0.0-21.0-8.6","55761","","<p>Which tone was played eight after the cadence?</p><p>Please respond as quickly and as accurately as possible!</p>","2","","8","new_stimuli/mp3/melody_^3_^4_v2_v7_^1_^2_^3_3_^4_.mp3"
"","655.2899999078363","html-button-response","293","1522874","0.0-21.0-9.6","55761","","<p>Which tone was played nineth after the cadence?</p><p>Please respond as quickly and as accurately as possible!</p>","4","","9","new_stimuli/mp3/melody_^3_^4_v2_v7_^1_^2_^3_3_^4_.mp3"
"","83063.25499992818","survey-text","294","1605938","0.0-22.0","55761","{""Q0"":""Sing back the melody as best I could. Find the starting pitch within the scale. If I couldn't figure out all of the pattern using solfege, I'd use intervals to fill in the blanks as bests I could.""}","","","","",""
"","69590.5700000003","survey-text","295","1675529","0.0-23.0","55761","{""Q0"":""The first block was somewhat disorienting due to the constantly changing key. If I wasn't concentrating hard, I would sometimes second-guess myself on whether the tonic I remembered was from the current trial or the one before. ""}","","","","",""
"","5508.290000027046","survey-text","296","1681039","0.0-24.0","55761","{""Q0"":""No.""}","","","","",""
"","4908.080000197515","survey-text","297","1685948","0.0-25.0","55761","{""Q0"":""Headphones. ""}","","","","",""
"","4460.410000057891","survey-text","298","1690410","0.0-26.0","55761","{""Q0"":""Male""}","","","","",""
"","2597.2700000274926","survey-text","299","1693009","0.0-27.0","55761","{""Q0"":""Yes""}","","","","",""
"[{""page_index"":0,""viewing_time"":4323.205000022426}]","4323.464999906719","instructions","300","1697333","0.0-28.0","55761","","","","","",""
