"view_history","rt","trial_type","trial_index","time_elapsed","internal_node_id","subject","responses","stimulus","button_pressed","key_press","response_sequence","melody"
"[{""page_index"":0,""viewing_time"":1919.2199999233708},{""page_index"":1,""viewing_time"":125.6350000621751},{""page_index"":2,""viewing_time"":2579.674999928102}]","4625.189999933355","instructions","0","4649","0.0-0.0","6084","","","","","",""
"","2393.690000055358","survey-text","1","7051","0.0-1.0","6084","{""Q0"":""20""}","","","","",""
"","7751.400000066496","survey-text","2","14804","0.0-2.0","6084","{""Q0"":""Bachelor's in progress""}","","","","",""
"","8204.535000026226","survey-text","3","23009","0.0-3.0","6084","{""Q0"":""moveable-do""}","","","","",""
"","3015.339999925345","survey-text","4","26026","0.0-4.0","6084","{""Q0"":""Yes""}","","","","",""
"","5623.845000052825","survey-text","5","31650","0.0-5.0","6084","{""Q0"":""30 weeks""}","","","","",""
"","7285.430000047199","survey-text","6","38937","0.0-6.0","6084","{""Q0"":""0""}","","","","",""
"[{""page_index"":0,""viewing_time"":2072.3949999082834},{""page_index"":1,""viewing_time"":21272.36000006087},{""page_index"":2,""viewing_time"":1873.3749999664724}]","25218.69499993045","instructions","7","64157","0.0-7.0","6084","","","","","",""
"","11195.869999937713","audio-button-response","8","75360","0.0-8.0","6084","","stimuli/long/c-do.mp3","0","","",""
"","10961.039999965578","audio-button-response","9","86322","0.0-9.0","6084","","stimuli/long/a-le.mp3","8","","",""
"[{""page_index"":0,""viewing_time"":5600.384999997914},{""page_index"":1,""viewing_time"":39869.2850000225}]","45469.969999976456","instructions","10","131793","0.0-10.0","6084","","","","","",""
"","11347.219999996014","audio-button-response","11","143142","0.0-11.0-0.0","6084","","stimuli/long/c-re.mp3","2","","",""
"","8159.285000059754","audio-button-response","12","151304","0.0-11.0-0.1","6084","","stimuli/long/c-fa.mp3","5","","",""
"","8745.789999957196","audio-button-response","13","160051","0.0-11.0-0.2","6084","","stimuli/long/e-le.mp3","8","","",""
"","8393.500000005588","audio-button-response","14","168446","0.0-11.0-0.3","6084","","stimuli/long/a-sol.mp3","7","","",""
"","8839.090000023134","audio-button-response","15","177287","0.0-11.0-0.4","6084","","stimuli/long/a-re.mp3","2","","",""
"","10139.119999948889","audio-button-response","16","187428","0.0-11.0-0.5","6084","","stimuli/long/e-te.mp3","10","","",""
"","9032.239999971353","audio-button-response","17","196462","0.0-11.0-0.6","6084","","stimuli/long/e-ti.mp3","11","","",""
"","10113.604999962263","audio-button-response","18","206577","0.0-11.0-0.7","6084","","stimuli/long/c-le.mp3","8","","",""
"","12911.865000030957","audio-button-response","19","219490","0.0-11.0-0.8","6084","","stimuli/long/a-fi.mp3","6","","",""
"","8254.769999999553","audio-button-response","20","227747","0.0-11.0-0.9","6084","","stimuli/long/a-mi.mp3","4","","",""
"","8471.030000015162","audio-button-response","21","236219","0.0-11.0-0.10","6084","","stimuli/long/e-do8.mp3","0","","",""
"","10148.12999998685","audio-button-response","22","246370","0.0-11.0-0.11","6084","","stimuli/long/e-mi.mp3","4","","",""
"","11815.299999900162","audio-button-response","23","258187","0.0-11.0-0.12","6084","","stimuli/long/a-la.mp3","9","","",""
"","10455.23000007961","audio-button-response","24","268644","0.0-11.0-0.13","6084","","stimuli/long/e-ra.mp3","1","","",""
"","10332.444999949075","audio-button-response","25","278979","0.0-11.0-0.14","6084","","stimuli/long/a-te.mp3","10","","",""
"","9175.93999998644","audio-button-response","26","288157","0.0-11.0-0.15","6084","","stimuli/long/a-me.mp3","3","","",""
"","8458.749999990687","audio-button-response","27","296618","0.0-11.0-0.16","6084","","stimuli/long/c-mi.mp3","3","","",""
"","9540.720000048168","audio-button-response","28","306160","0.0-11.0-0.17","6084","","stimuli/long/c-me.mp3","3","","",""
"","9892.435000045225","audio-button-response","29","316054","0.0-11.0-0.18","6084","","stimuli/long/c-fi.mp3","6","","",""
"","8418.23499999009","audio-button-response","30","324474","0.0-11.0-0.19","6084","","stimuli/long/e-sol.mp3","7","","",""
"","8039.4150000065565","audio-button-response","31","332515","0.0-11.0-0.20","6084","","stimuli/long/c-do.mp3","0","","",""
"","12852.97999996692","audio-button-response","32","345369","0.0-11.0-0.21","6084","","stimuli/long/e-fi.mp3","6","","",""
"","11746.065000072122","audio-button-response","33","357117","0.0-11.0-0.22","6084","","stimuli/long/e-me.mp3","3","","",""
"","8213.205000036396","audio-button-response","34","365332","0.0-11.0-0.23","6084","","stimuli/long/a-do8.mp3","0","","",""
"","11357.409999938682","audio-button-response","35","376691","0.0-11.0-0.24","6084","","stimuli/long/a-fa.mp3","5","","",""
"","9365.329999942333","audio-button-response","36","386058","0.0-11.0-0.25","6084","","stimuli/long/a-ra.mp3","1","","",""
"","8531.115000019781","audio-button-response","37","394591","0.0-11.0-0.26","6084","","stimuli/long/e-do.mp3","0","","",""
"","7608.404999948107","audio-button-response","38","402201","0.0-11.0-0.27","6084","","stimuli/long/c-do8.mp3","12","","",""
"","9196.950000012293","audio-button-response","39","411399","0.0-11.0-0.28","6084","","stimuli/long/c-ra.mp3","1","","",""
"","7762.364999973215","audio-button-response","40","419163","0.0-11.0-0.29","6084","","stimuli/long/a-do.mp3","0","","",""
"","12998.980000033043","audio-button-response","41","432163","0.0-11.0-0.30","6084","","stimuli/long/e-la.mp3","4","","",""
"","8510.46999997925","audio-button-response","42","440676","0.0-11.0-0.31","6084","","stimuli/long/a-ti.mp3","11","","",""
"","11940.659999963827","audio-button-response","43","452617","0.0-11.0-0.32","6084","","stimuli/long/e-re.mp3","2","","",""
"","9523.034999961965","audio-button-response","44","462142","0.0-11.0-0.33","6084","","stimuli/long/c-ti.mp3","11","","",""
"","9744.365000049584","audio-button-response","45","471888","0.0-11.0-0.34","6084","","stimuli/long/e-fa.mp3","5","","",""
"","9324.380000005476","audio-button-response","46","481214","0.0-11.0-0.35","6084","","stimuli/long/a-le.mp3","8","","",""
"","7999.229999957606","audio-button-response","47","489219","0.0-11.0-0.36","6084","","stimuli/long/c-sol.mp3","7","","",""
"","8816.559999948367","audio-button-response","48","498037","0.0-11.0-0.37","6084","","stimuli/long/c-la.mp3","9","","",""
"[{""page_index"":0,""viewing_time"":36030.85999994073},{""page_index"":1,""viewing_time"":1362.6250000670552}]","37393.72499997262","instructions","49","535432","0.0-12.0","6084","","","","","",""
"","null","audio-keyboard-response","50","545149","0.0-13.0-0.0","6084","","new_stimuli/mp3/melody_v7_v3_buffer.mp3","","null","",""
"","1676.2699999380857","html-button-response","51","546826","0.0-13.0-1.0","6084","","<p>Which tone was played first after the cadence?</p><p>Please respond as quickly and as accurately as possible!</p>","11","","1","new_stimuli/mp3/melody_v7_v3_buffer.mp3"
"","1391.4449999574572","html-button-response","52","548219","0.0-13.0-2.0","6084","","<p>Which tone was played second after the cadence?</p><p>Please respond as quickly and as accurately as possible!</p>","4","","2","new_stimuli/mp3/melody_v7_v3_buffer.mp3"
"","null","audio-keyboard-response","53","557290","0.0-13.0-0.1","6084","","new_stimuli/mp3/melody_v2_v1_.mp3","","null","",""
"","1233.0200000433251","html-button-response","54","558525","0.0-13.0-1.1","6084","","<p>Which tone was played first after the cadence?</p><p>Please respond as quickly and as accurately as possible!</p>","2","","1","new_stimuli/mp3/melody_v2_v1_.mp3"
"","734.7999999765307","html-button-response","55","559261","0.0-13.0-2.1","6084","","<p>Which tone was played second after the cadence?</p><p>Please respond as quickly and as accurately as possible!</p>","0","","2","new_stimuli/mp3/melody_v2_v1_.mp3"
"","null","audio-keyboard-response","56","568458","0.0-13.0-0.2","6084","","new_stimuli/mp3/melody_v3_v2_buffer.mp3","","null","",""
"","2561.5050001069903","html-button-response","57","571021","0.0-13.0-1.2","6084","","<p>Which tone was played first after the cadence?</p><p>Please respond as quickly and as accurately as possible!</p>","4","","1","new_stimuli/mp3/melody_v3_v2_buffer.mp3"
"","889.145000022836","html-button-response","58","571912","0.0-13.0-2.2","6084","","<p>Which tone was played second after the cadence?</p><p>Please respond as quickly and as accurately as possible!</p>","2","","2","new_stimuli/mp3/melody_v3_v2_buffer.mp3"
"","null","audio-keyboard-response","59","581078","0.0-13.0-0.3","6084","","new_stimuli/mp3/melody_v5_v1+_.mp3","","null","",""
"","2222.414999967441","html-button-response","60","583301","0.0-13.0-1.3","6084","","<p>Which tone was played first after the cadence?</p><p>Please respond as quickly and as accurately as possible!</p>","7","","1","new_stimuli/mp3/melody_v5_v1+_.mp3"
"","1014.0449999598786","html-button-response","61","584318","0.0-13.0-2.3","6084","","<p>Which tone was played second after the cadence?</p><p>Please respond as quickly and as accurately as possible!</p>","1","","2","new_stimuli/mp3/melody_v5_v1+_.mp3"
"","null","audio-keyboard-response","62","593780","0.0-13.0-0.4","6084","","new_stimuli/mp3/melody_^3_v4+_buffer.mp3","","null","",""
"","2198.394999955781","html-button-response","63","595981","0.0-13.0-1.4","6084","","<p>Which tone was played first after the cadence?</p><p>Please respond as quickly and as accurately as possible!</p>","4","","1","new_stimuli/mp3/melody_^3_v4+_buffer.mp3"
"","981.5200000302866","html-button-response","64","596964","0.0-13.0-2.4","6084","","<p>Which tone was played second after the cadence?</p><p>Please respond as quickly and as accurately as possible!</p>","6","","2","new_stimuli/mp3/melody_^3_v4+_buffer.mp3"
"","null","audio-keyboard-response","65","606268","0.0-13.0-0.5","6084","","new_stimuli/mp3/melody_3_^6_buffer.mp3","","null","",""
"","2560.4199999943376","html-button-response","66","608829","0.0-13.0-1.5","6084","","<p>Which tone was played first after the cadence?</p><p>Please respond as quickly and as accurately as possible!</p>","4","","1","new_stimuli/mp3/melody_3_^6_buffer.mp3"
"","1227.155000087805","html-button-response","67","610058","0.0-13.0-2.5","6084","","<p>Which tone was played second after the cadence?</p><p>Please respond as quickly and as accurately as possible!</p>","9","","2","new_stimuli/mp3/melody_3_^6_buffer.mp3"
"","null","audio-keyboard-response","68","619500","0.0-13.0-0.6","6084","","new_stimuli/mp3/melody_v4_v3_buffer.mp3","","null","",""
"","1186.3950000843033","html-button-response","69","620689","0.0-13.0-1.6","6084","","<p>Which tone was played first after the cadence?</p><p>Please respond as quickly and as accurately as possible!</p>","5","","1","new_stimuli/mp3/melody_v4_v3_buffer.mp3"
"","858.8350000791252","html-button-response","70","621549","0.0-13.0-2.6","6084","","<p>Which tone was played second after the cadence?</p><p>Please respond as quickly and as accurately as possible!</p>","4","","2","new_stimuli/mp3/melody_v4_v3_buffer.mp3"
"","null","audio-keyboard-response","71","630569","0.0-13.0-0.7","6084","","new_stimuli/mp3/melody_^1_^2+_.mp3","","null","",""
"","994.2400000290945","html-button-response","72","631566","0.0-13.0-1.7","6084","","<p>Which tone was played first after the cadence?</p><p>Please respond as quickly and as accurately as possible!</p>","0","","1","new_stimuli/mp3/melody_^1_^2+_.mp3"
"","940.2850000187755","html-button-response","73","632508","0.0-13.0-2.7","6084","","<p>Which tone was played second after the cadence?</p><p>Please respond as quickly and as accurately as possible!</p>","3","","2","new_stimuli/mp3/melody_^1_^2+_.mp3"
"","null","audio-keyboard-response","74","641679","0.0-13.0-0.8","6084","","new_stimuli/mp3/melody_^5_^1+_.mp3","","null","",""
"","2593.0950000183657","html-button-response","75","644275","0.0-13.0-1.8","6084","","<p>Which tone was played first after the cadence?</p><p>Please respond as quickly and as accurately as possible!</p>","7","","1","new_stimuli/mp3/melody_^5_^1+_.mp3"
"","2743.499999982305","html-button-response","76","647020","0.0-13.0-2.8","6084","","<p>Which tone was played second after the cadence?</p><p>Please respond as quickly and as accurately as possible!</p>","1","","2","new_stimuli/mp3/melody_^5_^1+_.mp3"
"","null","audio-keyboard-response","77","656190","0.0-13.0-0.9","6084","","new_stimuli/mp3/melody_^2_v7-_.mp3","","null","",""
"","6894.570000004023","html-button-response","78","663087","0.0-13.0-1.9","6084","","<p>Which tone was played first after the cadence?</p><p>Please respond as quickly and as accurately as possible!</p>","2","","1","new_stimuli/mp3/melody_^2_v7-_.mp3"
"","1523.064999957569","html-button-response","79","664613","0.0-13.0-2.9","6084","","<p>Which tone was played second after the cadence?</p><p>Please respond as quickly and as accurately as possible!</p>","10","","2","new_stimuli/mp3/melody_^2_v7-_.mp3"
"[{""page_index"":0,""viewing_time"":20776.049999985844},{""page_index"":1,""viewing_time"":2725.4099999554455},{""page_index"":2,""viewing_time"":1146.420000004582}]","24648.159999982454","instructions","80","689261","0.0-14.0","6084","","","","","",""
"","null","audio-keyboard-response","81","698879","0.0-15.0-0.0","6084","","new_stimuli/mp3/melody_v3_v2_v1_.mp3","","null","",""
"","1931.4950000261888","html-button-response","82","700813","0.0-15.0-1.0","6084","","<p>Which tone was played first after the cadence?</p><p>Please respond as quickly and as accurately as possible!</p>","4","","1","new_stimuli/mp3/melody_v3_v2_v1_.mp3"
"","757.3299999348819","html-button-response","83","701572","0.0-15.0-2.0","6084","","<p>Which tone was played second after the cadence?</p><p>Please respond as quickly and as accurately as possible!</p>","2","","2","new_stimuli/mp3/melody_v3_v2_v1_.mp3"
"","695.8450000965968","html-button-response","84","702269","0.0-15.0-3.0","6084","","<p>Which tone was played third after the cadence?</p><p>Please respond as quickly and as accurately as possible!</p>","0","","3","new_stimuli/mp3/melody_v3_v2_v1_.mp3"
"","null","audio-keyboard-response","85","711779","0.0-15.0-0.1","6084","","new_stimuli/mp3/melody_1_v1+_^2_.mp3","","null","",""
"","1168.1099999696016","html-button-response","86","712950","0.0-15.0-1.1","6084","","<p>Which tone was played first after the cadence?</p><p>Please respond as quickly and as accurately as possible!</p>","0","","1","new_stimuli/mp3/melody_1_v1+_^2_.mp3"
"","572.2450000466779","html-button-response","87","713524","0.0-15.0-2.1","6084","","<p>Which tone was played second after the cadence?</p><p>Please respond as quickly and as accurately as possible!</p>","1","","2","new_stimuli/mp3/melody_1_v1+_^2_.mp3"
"","572.1849999390543","html-button-response","88","714097","0.0-15.0-3.1","6084","","<p>Which tone was played third after the cadence?</p><p>Please respond as quickly and as accurately as possible!</p>","2","","3","new_stimuli/mp3/melody_1_v1+_^2_.mp3"
"","null","audio-keyboard-response","89","723999","0.0-15.0-0.2","6084","","new_stimuli/mp3/melody_^1_v6_v5+_.mp3","","null","",""
"","1073.7599999411032","html-button-response","90","725075","0.0-15.0-1.2","6084","","<p>Which tone was played first after the cadence?</p><p>Please respond as quickly and as accurately as possible!</p>","12","","1","new_stimuli/mp3/melody_^1_v6_v5+_.mp3"
"","1237.1049999492243","html-button-response","91","726314","0.0-15.0-2.2","6084","","<p>Which tone was played second after the cadence?</p><p>Please respond as quickly and as accurately as possible!</p>","9","","2","new_stimuli/mp3/melody_^1_v6_v5+_.mp3"
"","593.5399999143556","html-button-response","92","726908","0.0-15.0-3.2","6084","","<p>Which tone was played third after the cadence?</p><p>Please respond as quickly and as accurately as possible!</p>","8","","3","new_stimuli/mp3/melody_^1_v6_v5+_.mp3"
"","null","audio-keyboard-response","93","736477","0.0-15.0-0.3","6084","","new_stimuli/mp3/melody_v1_v7-_^7_.mp3","","null","",""
"","1556.7100000334904","html-button-response","94","738035","0.0-15.0-1.3","6084","","<p>Which tone was played first after the cadence?</p><p>Please respond as quickly and as accurately as possible!</p>","12","","1","new_stimuli/mp3/melody_v1_v7-_^7_.mp3"
"","531.1350000556558","html-button-response","95","738567","0.0-15.0-2.3","6084","","<p>Which tone was played second after the cadence?</p><p>Please respond as quickly and as accurately as possible!</p>","10","","2","new_stimuli/mp3/melody_v1_v7-_^7_.mp3"
"","439.3350000027567","html-button-response","96","739008","0.0-15.0-3.3","6084","","<p>Which tone was played third after the cadence?</p><p>Please respond as quickly and as accurately as possible!</p>","11","","3","new_stimuli/mp3/melody_v1_v7-_^7_.mp3"
"","null","audio-keyboard-response","97","748989","0.0-15.0-0.4","6084","","new_stimuli/mp3/melody_v2_v5_^3_buffer.mp3","","null","",""
"","1766.4499999955297","html-button-response","98","750758","0.0-15.0-1.4","6084","","<p>Which tone was played first after the cadence?</p><p>Please respond as quickly and as accurately as possible!</p>","2","","1","new_stimuli/mp3/melody_v2_v5_^3_buffer.mp3"
"","1053.6299999803305","html-button-response","99","751813","0.0-15.0-2.4","6084","","<p>Which tone was played second after the cadence?</p><p>Please respond as quickly and as accurately as possible!</p>","7","","2","new_stimuli/mp3/melody_v2_v5_^3_buffer.mp3"
"","1216.260000015609","html-button-response","100","753031","0.0-15.0-3.4","6084","","<p>Which tone was played third after the cadence?</p><p>Please respond as quickly and as accurately as possible!</p>","3","","3","new_stimuli/mp3/melody_v2_v5_^3_buffer.mp3"
"","null","audio-keyboard-response","101","762987","0.0-15.0-0.5","6084","","new_stimuli/mp3/melody_v5_v4_v3_buffer.mp3","","null","",""
"","1511.3000000128523","html-button-response","102","764500","0.0-15.0-1.5","6084","","<p>Which tone was played first after the cadence?</p><p>Please respond as quickly and as accurately as possible!</p>","7","","1","new_stimuli/mp3/melody_v5_v4_v3_buffer.mp3"
"","889.2500000074506","html-button-response","103","765390","0.0-15.0-2.5","6084","","<p>Which tone was played second after the cadence?</p><p>Please respond as quickly and as accurately as possible!</p>","5","","2","new_stimuli/mp3/melody_v5_v4_v3_buffer.mp3"
"","1973.63000002224","html-button-response","104","767366","0.0-15.0-3.5","6084","","<p>Which tone was played third after the cadence?</p><p>Please respond as quickly and as accurately as possible!</p>","4","","3","new_stimuli/mp3/melody_v5_v4_v3_buffer.mp3"
"","null","audio-keyboard-response","105","777057","0.0-15.0-0.6","6084","","new_stimuli/mp3/melody_v4_v3_v2_buffer.mp3","","null","",""
"","1684.584999922663","html-button-response","106","778743","0.0-15.0-1.6","6084","","<p>Which tone was played first after the cadence?</p><p>Please respond as quickly and as accurately as possible!</p>","5","","1","new_stimuli/mp3/melody_v4_v3_v2_buffer.mp3"
"","784.444999997504","html-button-response","107","779530","0.0-15.0-2.6","6084","","<p>Which tone was played second after the cadence?</p><p>Please respond as quickly and as accurately as possible!</p>","4","","2","new_stimuli/mp3/melody_v4_v3_v2_buffer.mp3"
"","3233.5650000022724","html-button-response","108","782765","0.0-15.0-3.6","6084","","<p>Which tone was played third after the cadence?</p><p>Please respond as quickly and as accurately as possible!</p>","2","","3","new_stimuli/mp3/melody_v4_v3_v2_buffer.mp3"
"","null","audio-keyboard-response","109","792398","0.0-15.0-0.7","6084","","new_stimuli/mp3/melody_6_^1_v5_.mp3","","null","",""
"","1516.594999935478","html-button-response","110","793916","0.0-15.0-1.7","6084","","<p>Which tone was played first after the cadence?</p><p>Please respond as quickly and as accurately as possible!</p>","9","","1","new_stimuli/mp3/melody_6_^1_v5_.mp3"
"","838.2500000298023","html-button-response","111","794755","0.0-15.0-2.7","6084","","<p>Which tone was played second after the cadence?</p><p>Please respond as quickly and as accurately as possible!</p>","12","","2","new_stimuli/mp3/melody_6_^1_v5_.mp3"
"","1063.5049999691546","html-button-response","112","795820","0.0-15.0-3.7","6084","","<p>Which tone was played third after the cadence?</p><p>Please respond as quickly and as accurately as possible!</p>","7","","3","new_stimuli/mp3/melody_6_^1_v5_.mp3"
"","null","audio-keyboard-response","113","805408","0.0-15.0-0.8","6084","","new_stimuli/mp3/melody_v1_v7-_7-_buffer.mp3","","null","",""
"","2829.4750000350177","html-button-response","114","808241","0.0-15.0-1.8","6084","","<p>Which tone was played first after the cadence?</p><p>Please respond as quickly and as accurately as possible!</p>","12","","1","new_stimuli/mp3/melody_v1_v7-_7-_buffer.mp3"
"","939.9599999887869","html-button-response","115","809182","0.0-15.0-2.8","6084","","<p>Which tone was played second after the cadence?</p><p>Please respond as quickly and as accurately as possible!</p>","10","","2","new_stimuli/mp3/melody_v1_v7-_7-_buffer.mp3"
"","368.15499991644174","html-button-response","116","809551","0.0-15.0-3.8","6084","","<p>Which tone was played third after the cadence?</p><p>Please respond as quickly and as accurately as possible!</p>","10","","3","new_stimuli/mp3/melody_v1_v7-_7-_buffer.mp3"
"[{""page_index"":0,""viewing_time"":11394.835000042804},{""page_index"":1,""viewing_time"":4391.354999970645},{""page_index"":2,""viewing_time"":1126.1400000657886}]","16912.600000039674","instructions","117","826464","0.0-16.0","6084","","","","","",""
"","null","audio-keyboard-response","118","837038","0.0-17.0-0.0","6084","","new_stimuli/mp3/melody_v5_v4_v3_v2_v1_.mp3","","null","",""
"","1895.615000044927","html-button-response","119","838935","0.0-17.0-1.0","6084","","<p>Which tone was played first after the cadence?</p><p>Please respond as quickly and as accurately as possible!</p>","7","","1","new_stimuli/mp3/melody_v5_v4_v3_v2_v1_.mp3"
"","766.730000032112","html-button-response","120","839702","0.0-17.0-2.0","6084","","<p>Which tone was played second after the cadence?</p><p>Please respond as quickly and as accurately as possible!</p>","5","","2","new_stimuli/mp3/melody_v5_v4_v3_v2_v1_.mp3"
"","613.2900000084192","html-button-response","121","840317","0.0-17.0-3.0","6084","","<p>Which tone was played third after the cadence?</p><p>Please respond as quickly and as accurately as possible!</p>","4","","3","new_stimuli/mp3/melody_v5_v4_v3_v2_v1_.mp3"
"","837.3600000049919","html-button-response","122","841155","0.0-17.0-4.0","6084","","<p>Which tone was played fourth after the cadence?</p><p>Please respond as quickly and as accurately as possible!</p>","2","","4","new_stimuli/mp3/melody_v5_v4_v3_v2_v1_.mp3"
"","716.9700000667945","html-button-response","123","841873","0.0-17.0-5.0","6084","","<p>Which tone was played fifth after the cadence?</p><p>Please respond as quickly and as accurately as possible!</p>","0","","5","new_stimuli/mp3/melody_v5_v4_v3_v2_v1_.mp3"
"","null","audio-keyboard-response","124","852509","0.0-17.0-0.1","6084","","new_stimuli/mp3/melody_v5_^6+_^7_^1_5_.mp3","","null","",""
"","2165.874999947846","html-button-response","125","854676","0.0-17.0-1.1","6084","","<p>Which tone was played first after the cadence?</p><p>Please respond as quickly and as accurately as possible!</p>","7","","1","new_stimuli/mp3/melody_v5_^6+_^7_^1_5_.mp3"
"","724.6599999489263","html-button-response","126","855402","0.0-17.0-2.1","6084","","<p>Which tone was played second after the cadence?</p><p>Please respond as quickly and as accurately as possible!</p>","9","","2","new_stimuli/mp3/melody_v5_^6+_^7_^1_5_.mp3"
"","715.9550000214949","html-button-response","127","856119","0.0-17.0-3.1","6084","","<p>Which tone was played third after the cadence?</p><p>Please respond as quickly and as accurately as possible!</p>","11","","3","new_stimuli/mp3/melody_v5_^6+_^7_^1_5_.mp3"
"","510.08499995805323","html-button-response","128","856630","0.0-17.0-4.1","6084","","<p>Which tone was played fourth after the cadence?</p><p>Please respond as quickly and as accurately as possible!</p>","12","","4","new_stimuli/mp3/melody_v5_^6+_^7_^1_5_.mp3"
"","828.3550000051036","html-button-response","129","857459","0.0-17.0-5.1","6084","","<p>Which tone was played fifth after the cadence?</p><p>Please respond as quickly and as accurately as possible!</p>","7","","5","new_stimuli/mp3/melody_v5_^6+_^7_^1_5_.mp3"
"","null","audio-keyboard-response","130","868408","0.0-17.0-0.2","6084","","new_stimuli/mp3/melody_^5_^6_v5_v4_v3_buffer.mp3","","null","",""
"","1623.6950000748038","html-button-response","131","870033","0.0-17.0-1.2","6084","","<p>Which tone was played first after the cadence?</p><p>Please respond as quickly and as accurately as possible!</p>","7","","1","new_stimuli/mp3/melody_^5_^6_v5_v4_v3_buffer.mp3"
"","807.8049999894574","html-button-response","132","870842","0.0-17.0-2.2","6084","","<p>Which tone was played second after the cadence?</p><p>Please respond as quickly and as accurately as possible!</p>","9","","2","new_stimuli/mp3/melody_^5_^6_v5_v4_v3_buffer.mp3"
"","1043.004999984987","html-button-response","133","871886","0.0-17.0-3.2","6084","","<p>Which tone was played third after the cadence?</p><p>Please respond as quickly and as accurately as possible!</p>","7","","3","new_stimuli/mp3/melody_^5_^6_v5_v4_v3_buffer.mp3"
"","879.1500000515953","html-button-response","134","872766","0.0-17.0-4.2","6084","","<p>Which tone was played fourth after the cadence?</p><p>Please respond as quickly and as accurately as possible!</p>","5","","4","new_stimuli/mp3/melody_^5_^6_v5_v4_v3_buffer.mp3"
"","3662.7149999840185","html-button-response","135","876430","0.0-17.0-5.2","6084","","<p>Which tone was played fifth after the cadence?</p><p>Please respond as quickly and as accurately as possible!</p>","4","","5","new_stimuli/mp3/melody_^5_^6_v5_v4_v3_buffer.mp3"
"","null","audio-keyboard-response","136","887068","0.0-17.0-0.3","6084","","new_stimuli/mp3/melody_^6_v4_v3_^4_^5_.mp3","","null","",""
"","2494.6449999697506","html-button-response","137","889564","0.0-17.0-1.3","6084","","<p>Which tone was played first after the cadence?</p><p>Please respond as quickly and as accurately as possible!</p>","9","","1","new_stimuli/mp3/melody_^6_v4_v3_^4_^5_.mp3"
"","1042.7400000626221","html-button-response","138","890608","0.0-17.0-2.3","6084","","<p>Which tone was played second after the cadence?</p><p>Please respond as quickly and as accurately as possible!</p>","5","","2","new_stimuli/mp3/melody_^6_v4_v3_^4_^5_.mp3"
"","644.1699999850243","html-button-response","139","891253","0.0-17.0-3.3","6084","","<p>Which tone was played third after the cadence?</p><p>Please respond as quickly and as accurately as possible!</p>","4","","3","new_stimuli/mp3/melody_^6_v4_v3_^4_^5_.mp3"
"","490.08999997749925","html-button-response","140","891744","0.0-17.0-4.3","6084","","<p>Which tone was played fourth after the cadence?</p><p>Please respond as quickly and as accurately as possible!</p>","5","","4","new_stimuli/mp3/melody_^6_v4_v3_^4_^5_.mp3"
"","746.0149999242276","html-button-response","141","892491","0.0-17.0-5.3","6084","","<p>Which tone was played fifth after the cadence?</p><p>Please respond as quickly and as accurately as possible!</p>","7","","5","new_stimuli/mp3/melody_^6_v4_v3_^4_^5_.mp3"
"","null","audio-keyboard-response","142","903068","0.0-17.0-0.4","6084","","new_stimuli/mp3/melody_v2_2_^3_^4_v2_.mp3","","null","",""
"","1105.2099999506027","html-button-response","143","904174","0.0-17.0-1.4","6084","","<p>Which tone was played first after the cadence?</p><p>Please respond as quickly and as accurately as possible!</p>","2","","1","new_stimuli/mp3/melody_v2_2_^3_^4_v2_.mp3"
"","2260.8750000363216","html-button-response","144","906436","0.0-17.0-2.4","6084","","<p>Which tone was played second after the cadence?</p><p>Please respond as quickly and as accurately as possible!</p>","2","","2","new_stimuli/mp3/melody_v2_2_^3_^4_v2_.mp3"
"","766.7350000701845","html-button-response","145","907204","0.0-17.0-3.4","6084","","<p>Which tone was played third after the cadence?</p><p>Please respond as quickly and as accurately as possible!</p>","4","","3","new_stimuli/mp3/melody_v2_2_^3_^4_v2_.mp3"
"","756.0400000074878","html-button-response","146","907961","0.0-17.0-4.4","6084","","<p>Which tone was played fourth after the cadence?</p><p>Please respond as quickly and as accurately as possible!</p>","5","","4","new_stimuli/mp3/melody_v2_2_^3_^4_v2_.mp3"
"","817.9299999028444","html-button-response","147","908780","0.0-17.0-5.4","6084","","<p>Which tone was played fifth after the cadence?</p><p>Please respond as quickly and as accurately as possible!</p>","2","","5","new_stimuli/mp3/melody_v2_2_^3_^4_v2_.mp3"
"","null","audio-keyboard-response","148","919499","0.0-17.0-0.5","6084","","new_stimuli/mp3/melody_^6_v5_v4_v3_v2_buffer.mp3","","null","",""
"","4358.874999918044","html-button-response","149","923861","0.0-17.0-1.5","6084","","<p>Which tone was played first after the cadence?</p><p>Please respond as quickly and as accurately as possible!</p>","9","","1","new_stimuli/mp3/melody_^6_v5_v4_v3_v2_buffer.mp3"
"","796.4249999495223","html-button-response","150","924659","0.0-17.0-2.5","6084","","<p>Which tone was played second after the cadence?</p><p>Please respond as quickly and as accurately as possible!</p>","7","","2","new_stimuli/mp3/melody_^6_v5_v4_v3_v2_buffer.mp3"
"","695.8899999735877","html-button-response","151","925356","0.0-17.0-3.5","6084","","<p>Which tone was played third after the cadence?</p><p>Please respond as quickly and as accurately as possible!</p>","5","","3","new_stimuli/mp3/melody_^6_v5_v4_v3_v2_buffer.mp3"
"","8.38000001385808","html-button-response","152","925366","0.0-17.0-4.5","6084","","<p>Which tone was played fourth after the cadence?</p><p>Please respond as quickly and as accurately as possible!</p>","5","","4","new_stimuli/mp3/melody_^6_v5_v4_v3_v2_buffer.mp3"
"","621.8850000295788","html-button-response","153","925989","0.0-17.0-5.5","6084","","<p>Which tone was played fifth after the cadence?</p><p>Please respond as quickly and as accurately as possible!</p>","4","","5","new_stimuli/mp3/melody_^6_v5_v4_v3_v2_buffer.mp3"
"","null","audio-keyboard-response","154","936938","0.0-17.0-0.6","6084","","new_stimuli/mp3/melody_v5-_v3_3_^4+_v3_.mp3","","null","",""
"","2745.854999986477","html-button-response","155","939685","0.0-17.0-1.6","6084","","<p>Which tone was played first after the cadence?</p><p>Please respond as quickly and as accurately as possible!</p>","6","","1","new_stimuli/mp3/melody_v5-_v3_3_^4+_v3_.mp3"
"","6.770000094547868","html-button-response","156","939693","0.0-17.0-2.6","6084","","<p>Which tone was played second after the cadence?</p><p>Please respond as quickly and as accurately as possible!</p>","6","","2","new_stimuli/mp3/melody_v5-_v3_3_^4+_v3_.mp3"
"","695.7249999977648","html-button-response","157","940389","0.0-17.0-3.6","6084","","<p>Which tone was played third after the cadence?</p><p>Please respond as quickly and as accurately as possible!</p>","4","","3","new_stimuli/mp3/melody_v5-_v3_3_^4+_v3_.mp3"
"","275.9250000817701","html-button-response","158","940666","0.0-17.0-4.6","6084","","<p>Which tone was played fourth after the cadence?</p><p>Please respond as quickly and as accurately as possible!</p>","4","","4","new_stimuli/mp3/melody_v5-_v3_3_^4+_v3_.mp3"
"","725.5550000118092","html-button-response","159","941393","0.0-17.0-5.6","6084","","<p>Which tone was played fifth after the cadence?</p><p>Please respond as quickly and as accurately as possible!</p>","6","","5","new_stimuli/mp3/melody_v5-_v3_3_^4+_v3_.mp3"
"","null","audio-keyboard-response","160","951980","0.0-17.0-0.7","6084","","new_stimuli/mp3/melody_v5_v4_v3_v2_v1 _buffer.mp3","","null","",""
"","1327.835000003688","html-button-response","161","953310","0.0-17.0-1.7","6084","","<p>Which tone was played first after the cadence?</p><p>Please respond as quickly and as accurately as possible!</p>","7","","1","new_stimuli/mp3/melody_v5_v4_v3_v2_v1 _buffer.mp3"
"","439.1099999193102","html-button-response","162","953751","0.0-17.0-2.7","6084","","<p>Which tone was played second after the cadence?</p><p>Please respond as quickly and as accurately as possible!</p>","5","","2","new_stimuli/mp3/melody_v5_v4_v3_v2_v1 _buffer.mp3"
"","381.3150000059977","html-button-response","163","954139","0.0-17.0-3.7","6084","","<p>Which tone was played third after the cadence?</p><p>Please respond as quickly and as accurately as possible!</p>","4","","3","new_stimuli/mp3/melody_v5_v4_v3_v2_v1 _buffer.mp3"
"","756.9349999539554","html-button-response","164","954897","0.0-17.0-4.7","6084","","<p>Which tone was played fourth after the cadence?</p><p>Please respond as quickly and as accurately as possible!</p>","2","","4","new_stimuli/mp3/melody_v5_v4_v3_v2_v1 _buffer.mp3"
"","756.2049999833107","html-button-response","165","955655","0.0-17.0-5.7","6084","","<p>Which tone was played fifth after the cadence?</p><p>Please respond as quickly and as accurately as possible!</p>","0","","5","new_stimuli/mp3/melody_v5_v4_v3_v2_v1 _buffer.mp3"
"[{""page_index"":0,""viewing_time"":12567.500000004657},{""page_index"":1,""viewing_time"":1975.7000000681728},{""page_index"":2,""viewing_time"":1187.0549999875948}]","15730.489999987185","instructions","166","971386","0.0-18.0","6084","","","","","",""
"","null","audio-keyboard-response","167","983099","0.0-19.0-0.0","6084","","new_stimuli/mp3/melody_^1_v7_v6_v5_v4_v3_v2_buffer.mp3","","null","",""
"","845.6849999492988","html-button-response","168","983948","0.0-19.0-1.0","6084","","<p>Which tone was played first after the cadence?</p><p>Please respond as quickly and as accurately as possible!</p>","12","","1","new_stimuli/mp3/melody_^1_v7_v6_v5_v4_v3_v2_buffer.mp3"
"","521.8200000235811","html-button-response","169","984471","0.0-19.0-2.0","6084","","<p>Which tone was played second after the cadence?</p><p>Please respond as quickly and as accurately as possible!</p>","11","","2","new_stimuli/mp3/melody_^1_v7_v6_v5_v4_v3_v2_buffer.mp3"
"","2.684999955818057","html-button-response","170","984475","0.0-19.0-3.0","6084","","<p>Which tone was played third after the cadence?</p><p>Please respond as quickly and as accurately as possible!</p>","11","","3","new_stimuli/mp3/melody_^1_v7_v6_v5_v4_v3_v2_buffer.mp3"
"","2.9949999880045652","html-button-response","171","984480","0.0-19.0-4.0","6084","","<p>Which tone was played fourth after the cadence?</p><p>Please respond as quickly and as accurately as possible!</p>","11","","4","new_stimuli/mp3/melody_^1_v7_v6_v5_v4_v3_v2_buffer.mp3"
"","644.6050000376999","html-button-response","172","985126","0.0-19.0-5.0","6084","","<p>Which tone was played fifth after the cadence?</p><p>Please respond as quickly and as accurately as possible!</p>","9","","5","new_stimuli/mp3/melody_^1_v7_v6_v5_v4_v3_v2_buffer.mp3"
"","704.5100000686944","html-button-response","173","985832","0.0-19.0-6.0","6084","","<p>Which tone was played sixth after the cadence?</p><p>Please respond as quickly and as accurately as possible!</p>","7","","6","new_stimuli/mp3/melody_^1_v7_v6_v5_v4_v3_v2_buffer.mp3"
"","765.4600000241771","html-button-response","174","986598","0.0-19.0-7.0","6084","","<p>Which tone was played seventh after the cadence?</p><p>Please respond as quickly and as accurately as possible!</p>","5","","7","new_stimuli/mp3/melody_^1_v7_v6_v5_v4_v3_v2_buffer.mp3"
"","null","audio-keyboard-response","175","998308","0.0-19.0-0.1","6084","","new_stimuli/mp3/melody_^4_^5_^6_v5_v4_v3_v2_.mp3","","null","",""
"","1407.8649999573827","html-button-response","176","999719","0.0-19.0-1.1","6084","","<p>Which tone was played first after the cadence?</p><p>Please respond as quickly and as accurately as possible!</p>","5","","1","new_stimuli/mp3/melody_^4_^5_^6_v5_v4_v3_v2_.mp3"
"","644.4100000662729","html-button-response","177","1000365","0.0-19.0-2.1","6084","","<p>Which tone was played second after the cadence?</p><p>Please respond as quickly and as accurately as possible!</p>","7","","2","new_stimuli/mp3/melody_^4_^5_^6_v5_v4_v3_v2_.mp3"
"","623.7249999539927","html-button-response","178","1000989","0.0-19.0-3.1","6084","","<p>Which tone was played third after the cadence?</p><p>Please respond as quickly and as accurately as possible!</p>","9","","3","new_stimuli/mp3/melody_^4_^5_^6_v5_v4_v3_v2_.mp3"
"","646.6149999760091","html-button-response","179","1001644","0.0-19.0-4.1","6084","","<p>Which tone was played fourth after the cadence?</p><p>Please respond as quickly and as accurately as possible!</p>","7","","4","new_stimuli/mp3/melody_^4_^5_^6_v5_v4_v3_v2_.mp3"
"","438.50000004749745","html-button-response","180","1002084","0.0-19.0-5.1","6084","","<p>Which tone was played fifth after the cadence?</p><p>Please respond as quickly and as accurately as possible!</p>","5","","5","new_stimuli/mp3/melody_^4_^5_^6_v5_v4_v3_v2_.mp3"
"","1114.9999999906868","html-button-response","181","1003200","0.0-19.0-6.1","6084","","<p>Which tone was played sixth after the cadence?</p><p>Please respond as quickly and as accurately as possible!</p>","4","","6","new_stimuli/mp3/melody_^4_^5_^6_v5_v4_v3_v2_.mp3"
"","551.4299999922514","html-button-response","182","1003752","0.0-19.0-7.1","6084","","<p>Which tone was played seventh after the cadence?</p><p>Please respond as quickly and as accurately as possible!</p>","2","","7","new_stimuli/mp3/melody_^4_^5_^6_v5_v4_v3_v2_.mp3"
"","null","audio-keyboard-response","183","1015427","0.0-19.0-0.2","6084","","new_stimuli/mp3/melody_^4_v6-_v5-_^6-_^4_v2-_2-_.mp3","","null","",""
"","1526.1299998965114","html-button-response","184","1016954","0.0-19.0-1.2","6084","","<p>Which tone was played first after the cadence?</p><p>Please respond as quickly and as accurately as possible!</p>","5","","1","new_stimuli/mp3/melody_^4_v6-_v5-_^6-_^4_v2-_2-_.mp3"
"","858.2049999386072","html-button-response","185","1017815","0.0-19.0-2.2","6084","","<p>Which tone was played second after the cadence?</p><p>Please respond as quickly and as accurately as possible!</p>","8","","2","new_stimuli/mp3/melody_^4_v6-_v5-_^6-_^4_v2-_2-_.mp3"
"","879.3399999849498","html-button-response","186","1018696","0.0-19.0-3.2","6084","","<p>Which tone was played third after the cadence?</p><p>Please respond as quickly and as accurately as possible!</p>","6","","3","new_stimuli/mp3/melody_^4_v6-_v5-_^6-_^4_v2-_2-_.mp3"
"","532.2149998974055","html-button-response","187","1019238","0.0-19.0-4.2","6084","","<p>Which tone was played fourth after the cadence?</p><p>Please respond as quickly and as accurately as possible!</p>","8","","4","new_stimuli/mp3/melody_^4_v6-_v5-_^6-_^4_v2-_2-_.mp3"
"","806.855000089854","html-button-response","188","1020045","0.0-19.0-5.2","6084","","<p>Which tone was played fifth after the cadence?</p><p>Please respond as quickly and as accurately as possible!</p>","5","","5","new_stimuli/mp3/melody_^4_v6-_v5-_^6-_^4_v2-_2-_.mp3"
"","1892.0299999881536","html-button-response","189","1021939","0.0-19.0-6.2","6084","","<p>Which tone was played sixth after the cadence?</p><p>Please respond as quickly and as accurately as possible!</p>","8","","6","new_stimuli/mp3/melody_^4_v6-_v5-_^6-_^4_v2-_2-_.mp3"
"","448.6699999542907","html-button-response","190","1022388","0.0-19.0-7.2","6084","","<p>Which tone was played seventh after the cadence?</p><p>Please respond as quickly and as accurately as possible!</p>","8","","7","new_stimuli/mp3/melody_^4_v6-_v5-_^6-_^4_v2-_2-_.mp3"
"","null","audio-keyboard-response","191","1034038","0.0-19.0-0.3","6084","","new_stimuli/mp3/melody_^6_v5+_v4_^5+_v3_v1_v7-_.mp3","","null","",""
"","1049.3850000202656","html-button-response","192","1035091","0.0-19.0-1.3","6084","","<p>Which tone was played first after the cadence?</p><p>Please respond as quickly and as accurately as possible!</p>","9","","1","new_stimuli/mp3/melody_^6_v5+_v4_^5+_v3_v1_v7-_.mp3"
"","418.17000007722527","html-button-response","193","1035510","0.0-19.0-2.3","6084","","<p>Which tone was played second after the cadence?</p><p>Please respond as quickly and as accurately as possible!</p>","8","","2","new_stimuli/mp3/melody_^6_v5+_v4_^5+_v3_v1_v7-_.mp3"
"","1001.6999999061227","html-button-response","194","1036513","0.0-19.0-3.3","6084","","<p>Which tone was played third after the cadence?</p><p>Please respond as quickly and as accurately as possible!</p>","5","","3","new_stimuli/mp3/melody_^6_v5+_v4_^5+_v3_v1_v7-_.mp3"
"","715.3849999886006","html-button-response","195","1037230","0.0-19.0-4.3","6084","","<p>Which tone was played fourth after the cadence?</p><p>Please respond as quickly and as accurately as possible!</p>","8","","4","new_stimuli/mp3/melody_^6_v5+_v4_^5+_v3_v1_v7-_.mp3"
"","4318.300000042655","html-button-response","196","1041549","0.0-19.0-5.3","6084","","<p>Which tone was played fifth after the cadence?</p><p>Please respond as quickly and as accurately as possible!</p>","3","","5","new_stimuli/mp3/melody_^6_v5+_v4_^5+_v3_v1_v7-_.mp3"
"","7408.055000007153","html-button-response","197","1048959","0.0-19.0-6.3","6084","","<p>Which tone was played sixth after the cadence?</p><p>Please respond as quickly and as accurately as possible!</p>","8","","6","new_stimuli/mp3/melody_^6_v5+_v4_^5+_v3_v1_v7-_.mp3"
"","367.32499999925494","html-button-response","198","1049328","0.0-19.0-7.3","6084","","<p>Which tone was played seventh after the cadence?</p><p>Please respond as quickly and as accurately as possible!</p>","8","","7","new_stimuli/mp3/melody_^6_v5+_v4_^5+_v3_v1_v7-_.mp3"
"","null","audio-keyboard-response","199","1061037","0.0-19.0-0.4","6084","","new_stimuli/mp3/melody_v1_^2_v1_v7_^1_^3_v2_.mp3","","null","",""
"","795.7300000125542","html-button-response","200","1061834","0.0-19.0-1.4","6084","","<p>Which tone was played first after the cadence?</p><p>Please respond as quickly and as accurately as possible!</p>","0","","1","new_stimuli/mp3/melody_v1_^2_v1_v7_^1_^3_v2_.mp3"
"","868.7900000950322","html-button-response","201","1062704","0.0-19.0-2.4","6084","","<p>Which tone was played second after the cadence?</p><p>Please respond as quickly and as accurately as possible!</p>","2","","2","new_stimuli/mp3/melody_v1_^2_v1_v7_^1_^3_v2_.mp3"
"","480.23499990813434","html-button-response","202","1063185","0.0-19.0-3.4","6084","","<p>Which tone was played third after the cadence?</p><p>Please respond as quickly and as accurately as possible!</p>","0","","3","new_stimuli/mp3/melody_v1_^2_v1_v7_^1_^3_v2_.mp3"
"","1032.0449999999255","html-button-response","203","1064219","0.0-19.0-4.4","6084","","<p>Which tone was played fourth after the cadence?</p><p>Please respond as quickly and as accurately as possible!</p>","11","","4","new_stimuli/mp3/melody_v1_^2_v1_v7_^1_^3_v2_.mp3"
"","838.4150000056252","html-button-response","204","1065058","0.0-19.0-5.4","6084","","<p>Which tone was played fifth after the cadence?</p><p>Please respond as quickly and as accurately as possible!</p>","12","","5","new_stimuli/mp3/melody_v1_^2_v1_v7_^1_^3_v2_.mp3"
"","1329.869999899529","html-button-response","205","1066389","0.0-19.0-6.4","6084","","<p>Which tone was played sixth after the cadence?</p><p>Please respond as quickly and as accurately as possible!</p>","3","","6","new_stimuli/mp3/melody_v1_^2_v1_v7_^1_^3_v2_.mp3"
"","1411.4300000946969","html-button-response","206","1067802","0.0-19.0-7.4","6084","","<p>Which tone was played seventh after the cadence?</p><p>Please respond as quickly and as accurately as possible!</p>","2","","7","new_stimuli/mp3/melody_v1_^2_v1_v7_^1_^3_v2_.mp3"
"","null","audio-keyboard-response","207","1079768","0.0-19.0-0.5","6084","","new_stimuli/mp3/melody_1_^3_v1_^5_v3_v2_^3_.mp3","","null","",""
"","815.1399999624118","html-button-response","208","1080584","0.0-19.0-1.5","6084","","<p>Which tone was played first after the cadence?</p><p>Please respond as quickly and as accurately as possible!</p>","0","","1","new_stimuli/mp3/melody_1_^3_v1_^5_v3_v2_^3_.mp3"
"","848.2749999966472","html-button-response","209","1081434","0.0-19.0-2.5","6084","","<p>Which tone was played second after the cadence?</p><p>Please respond as quickly and as accurately as possible!</p>","3","","2","new_stimuli/mp3/melody_1_^3_v1_^5_v3_v2_^3_.mp3"
"","643.1800000136718","html-button-response","210","1082078","0.0-19.0-3.5","6084","","<p>Which tone was played third after the cadence?</p><p>Please respond as quickly and as accurately as possible!</p>","0","","3","new_stimuli/mp3/melody_1_^3_v1_^5_v3_v2_^3_.mp3"
"","922.069999971427","html-button-response","211","1083001","0.0-19.0-4.5","6084","","<p>Which tone was played fourth after the cadence?</p><p>Please respond as quickly and as accurately as possible!</p>","7","","4","new_stimuli/mp3/melody_1_^3_v1_^5_v3_v2_^3_.mp3"
"","2.0299999741837382","html-button-response","212","1083013","0.0-19.0-5.5","6084","","<p>Which tone was played fifth after the cadence?</p><p>Please respond as quickly and as accurately as possible!</p>","7","","5","new_stimuli/mp3/melody_1_^3_v1_^5_v3_v2_^3_.mp3"
"","1111.5699999500066","html-button-response","213","1084125","0.0-19.0-6.5","6084","","<p>Which tone was played sixth after the cadence?</p><p>Please respond as quickly and as accurately as possible!</p>","3","","6","new_stimuli/mp3/melody_1_^3_v1_^5_v3_v2_^3_.mp3"
"","1697.6749999448657","html-button-response","214","1085824","0.0-19.0-7.5","6084","","<p>Which tone was played seventh after the cadence?</p><p>Please respond as quickly and as accurately as possible!</p>","2","","7","new_stimuli/mp3/melody_1_^3_v1_^5_v3_v2_^3_.mp3"
"","null","audio-keyboard-response","215","1097398","0.0-19.0-0.6","6084","","new_stimuli/mp3/melody_^5_^6_v5_v4_v3_v2_v1_buffer.mp3","","null","",""
"","1385.1850000210106","html-button-response","216","1098787","0.0-19.0-1.6","6084","","<p>Which tone was played first after the cadence?</p><p>Please respond as quickly and as accurately as possible!</p>","7","","1","new_stimuli/mp3/melody_^5_^6_v5_v4_v3_v2_v1_buffer.mp3"
"","611.0649999463931","html-button-response","217","1099399","0.0-19.0-2.6","6084","","<p>Which tone was played second after the cadence?</p><p>Please respond as quickly and as accurately as possible!</p>","9","","2","new_stimuli/mp3/melody_^5_^6_v5_v4_v3_v2_v1_buffer.mp3"
"","460.63000010326505","html-button-response","218","1099861","0.0-19.0-3.6","6084","","<p>Which tone was played third after the cadence?</p><p>Please respond as quickly and as accurately as possible!</p>","7","","3","new_stimuli/mp3/melody_^5_^6_v5_v4_v3_v2_v1_buffer.mp3"
"","745.255000074394","html-button-response","219","1100607","0.0-19.0-4.6","6084","","<p>Which tone was played fourth after the cadence?</p><p>Please respond as quickly and as accurately as possible!</p>","5","","4","new_stimuli/mp3/melody_^5_^6_v5_v4_v3_v2_v1_buffer.mp3"
"","469.6350001031533","html-button-response","220","1101078","0.0-19.0-5.6","6084","","<p>Which tone was played fifth after the cadence?</p><p>Please respond as quickly and as accurately as possible!</p>","4","","5","new_stimuli/mp3/melody_^5_^6_v5_v4_v3_v2_v1_buffer.mp3"
"","634.0249999193475","html-button-response","221","1101713","0.0-19.0-6.6","6084","","<p>Which tone was played sixth after the cadence?</p><p>Please respond as quickly and as accurately as possible!</p>","2","","6","new_stimuli/mp3/melody_^5_^6_v5_v4_v3_v2_v1_buffer.mp3"
"","603.1300000613555","html-button-response","222","1102317","0.0-19.0-7.6","6084","","<p>Which tone was played seventh after the cadence?</p><p>Please respond as quickly and as accurately as possible!</p>","0","","7","new_stimuli/mp3/melody_^5_^6_v5_v4_v3_v2_v1_buffer.mp3"
"[{""page_index"":0,""viewing_time"":10954.244999913499},{""page_index"":1,""viewing_time"":1861.544999992475},{""page_index"":2,""viewing_time"":2886.555000091903}]","15702.560000005178","instructions","223","1118019","0.0-20.0","6084","","","","","",""
"","null","audio-keyboard-response","224","1130667","0.0-21.0-0.0","6084","","new_stimuli/mp3/melody_v7_v6_v5_^6_v5_v4_^5_^6_v5_.mp3","","null","",""
"","1096.9500000355765","html-button-response","225","1131765","0.0-21.0-1.0","6084","","<p>Which tone was played first after the cadence?</p><p>Please respond as quickly and as accurately as possible!</p>","11","","1","new_stimuli/mp3/melody_v7_v6_v5_^6_v5_v4_^5_^6_v5_.mp3"
"","583.0549999373034","html-button-response","226","1132350","0.0-21.0-2.0","6084","","<p>Which tone was played second after the cadence?</p><p>Please respond as quickly and as accurately as possible!</p>","9","","2","new_stimuli/mp3/melody_v7_v6_v5_^6_v5_v4_^5_^6_v5_.mp3"
"","939.0650000423193","html-button-response","227","1133290","0.0-21.0-3.0","6084","","<p>Which tone was played third after the cadence?</p><p>Please respond as quickly and as accurately as possible!</p>","7","","3","new_stimuli/mp3/melody_v7_v6_v5_^6_v5_v4_^5_^6_v5_.mp3"
"","655.6899999268353","html-button-response","228","1133947","0.0-21.0-4.0","6084","","<p>Which tone was played fourth after the cadence?</p><p>Please respond as quickly and as accurately as possible!</p>","5","","4","new_stimuli/mp3/melody_v7_v6_v5_^6_v5_v4_^5_^6_v5_.mp3"
"","531.8249999545515","html-button-response","229","1134480","0.0-21.0-5.0","6084","","<p>Which tone was played fifth after the cadence?</p><p>Please respond as quickly and as accurately as possible!</p>","7","","5","new_stimuli/mp3/melody_v7_v6_v5_^6_v5_v4_^5_^6_v5_.mp3"
"","6.4749999437481165","html-button-response","230","1134488","0.0-21.0-6.0","6084","","<p>Which tone was played sixth after the cadence?</p><p>Please respond as quickly and as accurately as possible!</p>","7","","6","new_stimuli/mp3/melody_v7_v6_v5_^6_v5_v4_^5_^6_v5_.mp3"
"","593.1000000564381","html-button-response","231","1135082","0.0-21.0-7.0","6084","","<p>Which tone was played seventh after the cadence?</p><p>Please respond as quickly and as accurately as possible!</p>","9","","7","new_stimuli/mp3/melody_v7_v6_v5_^6_v5_v4_^5_^6_v5_.mp3"
"","828.2950000138953","html-button-response","232","1135911","0.0-21.0-8.0","6084","","<p>Which tone was played eight after the cadence?</p><p>Please respond as quickly and as accurately as possible!</p>","7","","8","new_stimuli/mp3/melody_v7_v6_v5_^6_v5_v4_^5_^6_v5_.mp3"
"","674.3349999887869","html-button-response","233","1136587","0.0-21.0-9.0","6084","","<p>Which tone was played nineth after the cadence?</p><p>Please respond as quickly and as accurately as possible!</p>","5","","9","new_stimuli/mp3/melody_v7_v6_v5_^6_v5_v4_^5_^6_v5_.mp3"
"","null","audio-keyboard-response","234","1149238","0.0-21.0-0.1","6084","","new_stimuli/mp3/melody_^3_^4_v2_v7_^1_^2_^3_3_^4_.mp3","","null","",""
"","3189.7600000957027","html-button-response","235","1152430","0.0-21.0-1.1","6084","","<p>Which tone was played first after the cadence?</p><p>Please respond as quickly and as accurately as possible!</p>","3","","1","new_stimuli/mp3/melody_^3_^4_v2_v7_^1_^2_^3_3_^4_.mp3"
"","581.5400000428781","html-button-response","236","1153013","0.0-21.0-2.1","6084","","<p>Which tone was played second after the cadence?</p><p>Please respond as quickly and as accurately as possible!</p>","5","","2","new_stimuli/mp3/melody_^3_^4_v2_v7_^1_^2_^3_3_^4_.mp3"
"","888.2000000448897","html-button-response","237","1153903","0.0-21.0-3.1","6084","","<p>Which tone was played third after the cadence?</p><p>Please respond as quickly and as accurately as possible!</p>","2","","3","new_stimuli/mp3/melody_^3_^4_v2_v7_^1_^2_^3_3_^4_.mp3"
"","1277.8500000713393","html-button-response","238","1155182","0.0-21.0-4.1","6084","","<p>Which tone was played fourth after the cadence?</p><p>Please respond as quickly and as accurately as possible!</p>","11","","4","new_stimuli/mp3/melody_^3_^4_v2_v7_^1_^2_^3_3_^4_.mp3"
"","757.4749999912456","html-button-response","239","1155941","0.0-21.0-5.1","6084","","<p>Which tone was played fifth after the cadence?</p><p>Please respond as quickly and as accurately as possible!</p>","12","","5","new_stimuli/mp3/melody_^3_^4_v2_v7_^1_^2_^3_3_^4_.mp3"
"","8.254999993368983","html-button-response","240","1155950","0.0-21.0-6.1","6084","","<p>Which tone was played sixth after the cadence?</p><p>Please respond as quickly and as accurately as possible!</p>","12","","6","new_stimuli/mp3/melody_^3_^4_v2_v7_^1_^2_^3_3_^4_.mp3"
"","1156.5450000343844","html-button-response","241","1157108","0.0-21.0-7.1","6084","","<p>Which tone was played seventh after the cadence?</p><p>Please respond as quickly and as accurately as possible!</p>","2","","7","new_stimuli/mp3/melody_^3_^4_v2_v7_^1_^2_^3_3_^4_.mp3"
"","479.1249999543652","html-button-response","242","1157588","0.0-21.0-8.1","6084","","<p>Which tone was played eight after the cadence?</p><p>Please respond as quickly and as accurately as possible!</p>","3","","8","new_stimuli/mp3/melody_^3_^4_v2_v7_^1_^2_^3_3_^4_.mp3"
"","367.61999991722405","html-button-response","243","1157957","0.0-21.0-9.1","6084","","<p>Which tone was played nineth after the cadence?</p><p>Please respond as quickly and as accurately as possible!</p>","3","","9","new_stimuli/mp3/melody_^3_^4_v2_v7_^1_^2_^3_3_^4_.mp3"
"","null","audio-keyboard-response","244","1170917","0.0-21.0-0.2","6084","","new_stimuli/mp3/melody_^5_^6_v5_v4_v3_v2_v1_^2_^3_buffer.mp3","","null","",""
"","863.2849999703467","html-button-response","245","1171783","0.0-21.0-1.2","6084","","<p>Which tone was played first after the cadence?</p><p>Please respond as quickly and as accurately as possible!</p>","7","","1","new_stimuli/mp3/melody_^5_^6_v5_v4_v3_v2_v1_^2_^3_buffer.mp3"
"","704.9150000093505","html-button-response","246","1172489","0.0-21.0-2.2","6084","","<p>Which tone was played second after the cadence?</p><p>Please respond as quickly and as accurately as possible!</p>","9","","2","new_stimuli/mp3/melody_^5_^6_v5_v4_v3_v2_v1_^2_^3_buffer.mp3"
"","582.120000035502","html-button-response","247","1173073","0.0-21.0-3.2","6084","","<p>Which tone was played third after the cadence?</p><p>Please respond as quickly and as accurately as possible!</p>","7","","3","new_stimuli/mp3/melody_^5_^6_v5_v4_v3_v2_v1_^2_^3_buffer.mp3"
"","562.220000079833","html-button-response","248","1173636","0.0-21.0-4.2","6084","","<p>Which tone was played fourth after the cadence?</p><p>Please respond as quickly and as accurately as possible!</p>","5","","4","new_stimuli/mp3/melody_^5_^6_v5_v4_v3_v2_v1_^2_^3_buffer.mp3"
"","765.5950000043958","html-button-response","249","1174403","0.0-21.0-5.2","6084","","<p>Which tone was played fifth after the cadence?</p><p>Please respond as quickly and as accurately as possible!</p>","4","","5","new_stimuli/mp3/melody_^5_^6_v5_v4_v3_v2_v1_^2_^3_buffer.mp3"
"","613.2999999681488","html-button-response","250","1175018","0.0-21.0-6.2","6084","","<p>Which tone was played sixth after the cadence?</p><p>Please respond as quickly and as accurately as possible!</p>","2","","6","new_stimuli/mp3/melody_^5_^6_v5_v4_v3_v2_v1_^2_^3_buffer.mp3"
"","510.14499994926155","html-button-response","251","1175529","0.0-21.0-7.2","6084","","<p>Which tone was played seventh after the cadence?</p><p>Please respond as quickly and as accurately as possible!</p>","0","","7","new_stimuli/mp3/melody_^5_^6_v5_v4_v3_v2_v1_^2_^3_buffer.mp3"
"","562.5","html-button-response","252","1176092","0.0-21.0-8.2","6084","","<p>Which tone was played eight after the cadence?</p><p>Please respond as quickly and as accurately as possible!</p>","2","","8","new_stimuli/mp3/melody_^5_^6_v5_v4_v3_v2_v1_^2_^3_buffer.mp3"
"","684.2849999666214","html-button-response","253","1176778","0.0-21.0-9.2","6084","","<p>Which tone was played nineth after the cadence?</p><p>Please respond as quickly and as accurately as possible!</p>","4","","9","new_stimuli/mp3/melody_^5_^6_v5_v4_v3_v2_v1_^2_^3_buffer.mp3"
"","null","audio-keyboard-response","254","1189709","0.0-21.0-0.3","6084","","new_stimuli/mp3/melody_^2_^4_v3_v2_v1_v3_v2+_^3_^5+_.mp3","","null","",""
"","1169.690000009723","html-button-response","255","1190881","0.0-21.0-1.3","6084","","<p>Which tone was played first after the cadence?</p><p>Please respond as quickly and as accurately as possible!</p>","2","","1","new_stimuli/mp3/melody_^2_^4_v3_v2_v1_v3_v2+_^3_^5+_.mp3"
"","799.4149998994544","html-button-response","256","1191682","0.0-21.0-2.3","6084","","<p>Which tone was played second after the cadence?</p><p>Please respond as quickly and as accurately as possible!</p>","5","","2","new_stimuli/mp3/melody_^2_^4_v3_v2_v1_v3_v2+_^3_^5+_.mp3"
"","469.18999997433275","html-button-response","257","1192152","0.0-21.0-3.3","6084","","<p>Which tone was played third after the cadence?</p><p>Please respond as quickly and as accurately as possible!</p>","4","","3","new_stimuli/mp3/melody_^2_^4_v3_v2_v1_v3_v2+_^3_^5+_.mp3"
"","6.600000080652535","html-button-response","258","1192160","0.0-21.0-4.3","6084","","<p>Which tone was played fourth after the cadence?</p><p>Please respond as quickly and as accurately as possible!</p>","4","","4","new_stimuli/mp3/melody_^2_^4_v3_v2_v1_v3_v2+_^3_^5+_.mp3"
"","644.8749999981374","html-button-response","259","1192806","0.0-21.0-5.3","6084","","<p>Which tone was played fifth after the cadence?</p><p>Please respond as quickly and as accurately as possible!</p>","2","","5","new_stimuli/mp3/melody_^2_^4_v3_v2_v1_v3_v2+_^3_^5+_.mp3"
"","560.8449999708682","html-button-response","260","1193368","0.0-21.0-6.3","6084","","<p>Which tone was played sixth after the cadence?</p><p>Please respond as quickly and as accurately as possible!</p>","0","","6","new_stimuli/mp3/melody_^2_^4_v3_v2_v1_v3_v2+_^3_^5+_.mp3"
"","1022.3799999803305","html-button-response","261","1194392","0.0-21.0-7.3","6084","","<p>Which tone was played seventh after the cadence?</p><p>Please respond as quickly and as accurately as possible!</p>","11","","7","new_stimuli/mp3/melody_^2_^4_v3_v2_v1_v3_v2+_^3_^5+_.mp3"
"","469.9800000526011","html-button-response","262","1194863","0.0-21.0-8.3","6084","","<p>Which tone was played eight after the cadence?</p><p>Please respond as quickly and as accurately as possible!</p>","12","","8","new_stimuli/mp3/melody_^2_^4_v3_v2_v1_v3_v2+_^3_^5+_.mp3"
"","1196.049999911338","html-button-response","263","1196060","0.0-21.0-9.3","6084","","<p>Which tone was played nineth after the cadence?</p><p>Please respond as quickly and as accurately as possible!</p>","2","","9","new_stimuli/mp3/melody_^2_^4_v3_v2_v1_v3_v2+_^3_^5+_.mp3"
"","null","audio-keyboard-response","264","1208758","0.0-21.0-0.4","6084","","new_stimuli/mp3/melody_^2_^3_^4_^5_^6_v5_v4_v3_v2_buffer.mp3","","null","",""
"","1113.0750000011176","html-button-response","265","1209874","0.0-21.0-1.4","6084","","<p>Which tone was played first after the cadence?</p><p>Please respond as quickly and as accurately as possible!</p>","2","","1","new_stimuli/mp3/melody_^2_^3_^4_^5_^6_v5_v4_v3_v2_buffer.mp3"
"","2759.8950000246987","html-button-response","266","1212635","0.0-21.0-2.4","6084","","<p>Which tone was played second after the cadence?</p><p>Please respond as quickly and as accurately as possible!</p>","7","","2","new_stimuli/mp3/melody_^2_^3_^4_^5_^6_v5_v4_v3_v2_buffer.mp3"
"","1902.5499999988824","html-button-response","267","1214539","0.0-21.0-3.4","6084","","<p>Which tone was played third after the cadence?</p><p>Please respond as quickly and as accurately as possible!</p>","9","","3","new_stimuli/mp3/melody_^2_^3_^4_^5_^6_v5_v4_v3_v2_buffer.mp3"
"","1143.5099999653175","html-button-response","268","1215694","0.0-21.0-4.4","6084","","<p>Which tone was played fourth after the cadence?</p><p>Please respond as quickly and as accurately as possible!</p>","7","","4","new_stimuli/mp3/melody_^2_^3_^4_^5_^6_v5_v4_v3_v2_buffer.mp3"
"","899.8950000386685","html-button-response","269","1216595","0.0-21.0-5.4","6084","","<p>Which tone was played fifth after the cadence?</p><p>Please respond as quickly and as accurately as possible!</p>","5","","5","new_stimuli/mp3/melody_^2_^3_^4_^5_^6_v5_v4_v3_v2_buffer.mp3"
"","827.7049999451265","html-button-response","270","1217424","0.0-21.0-6.4","6084","","<p>Which tone was played sixth after the cadence?</p><p>Please respond as quickly and as accurately as possible!</p>","3","","6","new_stimuli/mp3/melody_^2_^3_^4_^5_^6_v5_v4_v3_v2_buffer.mp3"
"","787.7749999752268","html-button-response","271","1218213","0.0-21.0-7.4","6084","","<p>Which tone was played seventh after the cadence?</p><p>Please respond as quickly and as accurately as possible!</p>","2","","7","new_stimuli/mp3/melody_^2_^3_^4_^5_^6_v5_v4_v3_v2_buffer.mp3"
"","4082.2399999015033","html-button-response","272","1222297","0.0-21.0-8.4","6084","","<p>Which tone was played eight after the cadence?</p><p>Please respond as quickly and as accurately as possible!</p>","2","","8","new_stimuli/mp3/melody_^2_^3_^4_^5_^6_v5_v4_v3_v2_buffer.mp3"
"","1267.0800000196323","html-button-response","273","1223565","0.0-21.0-9.4","6084","","<p>Which tone was played nineth after the cadence?</p><p>Please respond as quickly and as accurately as possible!</p>","2","","9","new_stimuli/mp3/melody_^2_^3_^4_^5_^6_v5_v4_v3_v2_buffer.mp3"
"","null","audio-keyboard-response","274","1236219","0.0-21.0-0.5","6084","","new_stimuli/mp3/melody_v5_v4_v6+_^7_^3+_v3_v2_v5_^4_.mp3","","null","",""
"","1167.020000051707","html-button-response","275","1237390","0.0-21.0-1.5","6084","","<p>Which tone was played first after the cadence?</p><p>Please respond as quickly and as accurately as possible!</p>","7","","1","new_stimuli/mp3/melody_v5_v4_v6+_^7_^3+_v3_v2_v5_^4_.mp3"
"","792.9800000274554","html-button-response","276","1238185","0.0-21.0-2.5","6084","","<p>Which tone was played second after the cadence?</p><p>Please respond as quickly and as accurately as possible!</p>","5","","2","new_stimuli/mp3/melody_v5_v4_v6+_^7_^3+_v3_v2_v5_^4_.mp3"
"","684.7599999746308","html-button-response","277","1238871","0.0-21.0-3.5","6084","","<p>Which tone was played third after the cadence?</p><p>Please respond as quickly and as accurately as possible!</p>","4","","3","new_stimuli/mp3/melody_v5_v4_v6+_^7_^3+_v3_v2_v5_^4_.mp3"
"","2771.8299999833107","html-button-response","278","1241644","0.0-21.0-4.5","6084","","<p>Which tone was played fourth after the cadence?</p><p>Please respond as quickly and as accurately as possible!</p>","7","","4","new_stimuli/mp3/melody_v5_v4_v6+_^7_^3+_v3_v2_v5_^4_.mp3"
"","1432.2799999499694","html-button-response","279","1243078","0.0-21.0-5.5","6084","","<p>Which tone was played fifth after the cadence?</p><p>Please respond as quickly and as accurately as possible!</p>","8","","5","new_stimuli/mp3/melody_v5_v4_v6+_^7_^3+_v3_v2_v5_^4_.mp3"
"","407.0200000423938","html-button-response","280","1243486","0.0-21.0-6.5","6084","","<p>Which tone was played sixth after the cadence?</p><p>Please respond as quickly and as accurately as possible!</p>","9","","6","new_stimuli/mp3/melody_v5_v4_v6+_^7_^3+_v3_v2_v5_^4_.mp3"
"","1137.044999981299","html-button-response","281","1244624","0.0-21.0-7.5","6084","","<p>Which tone was played seventh after the cadence?</p><p>Please respond as quickly and as accurately as possible!</p>","4","","7","new_stimuli/mp3/melody_v5_v4_v6+_^7_^3+_v3_v2_v5_^4_.mp3"
"","1.504999934695661","html-button-response","282","1244627","0.0-21.0-8.5","6084","","<p>Which tone was played eight after the cadence?</p><p>Please respond as quickly and as accurately as possible!</p>","4","","8","new_stimuli/mp3/melody_v5_v4_v6+_^7_^3+_v3_v2_v5_^4_.mp3"
"","4.1600000113248825","html-button-response","283","1244632","0.0-21.0-9.5","6084","","<p>Which tone was played nineth after the cadence?</p><p>Please respond as quickly and as accurately as possible!</p>","4","","9","new_stimuli/mp3/melody_v5_v4_v6+_^7_^3+_v3_v2_v5_^4_.mp3"
"","null","audio-keyboard-response","284","1257198","0.0-21.0-0.6","6084","","new_stimuli/mp3/melody_^3_^4_^5 _^6_v5_v4_v3_v2_v1_.mp3","","null","",""
"","829.4349999632686","html-button-response","285","1258030","0.0-21.0-1.6","6084","","<p>Which tone was played first after the cadence?</p><p>Please respond as quickly and as accurately as possible!</p>","3","","1","new_stimuli/mp3/melody_^3_^4_^5 _^6_v5_v4_v3_v2_v1_.mp3"
"","1212.6550000393763","html-button-response","286","1259246","0.0-21.0-2.6","6084","","<p>Which tone was played second after the cadence?</p><p>Please respond as quickly and as accurately as possible!</p>","5","","2","new_stimuli/mp3/melody_^3_^4_^5 _^6_v5_v4_v3_v2_v1_.mp3"
"","766.399999964051","html-button-response","287","1260014","0.0-21.0-3.6","6084","","<p>Which tone was played third after the cadence?</p><p>Please respond as quickly and as accurately as possible!</p>","7","","3","new_stimuli/mp3/melody_^3_^4_^5 _^6_v5_v4_v3_v2_v1_.mp3"
"","1401.2300000758842","html-button-response","288","1261416","0.0-21.0-4.6","6084","","<p>Which tone was played fourth after the cadence?</p><p>Please respond as quickly and as accurately as possible!</p>","9","","4","new_stimuli/mp3/melody_^3_^4_^5 _^6_v5_v4_v3_v2_v1_.mp3"
"","612.2350000077859","html-button-response","289","1262029","0.0-21.0-5.6","6084","","<p>Which tone was played fifth after the cadence?</p><p>Please respond as quickly and as accurately as possible!</p>","7","","5","new_stimuli/mp3/melody_^3_^4_^5 _^6_v5_v4_v3_v2_v1_.mp3"
"","521.004999987781","html-button-response","290","1262552","0.0-21.0-6.6","6084","","<p>Which tone was played sixth after the cadence?</p><p>Please respond as quickly and as accurately as possible!</p>","5","","6","new_stimuli/mp3/melody_^3_^4_^5 _^6_v5_v4_v3_v2_v1_.mp3"
"","664.7499999962747","html-button-response","291","1263217","0.0-21.0-7.6","6084","","<p>Which tone was played seventh after the cadence?</p><p>Please respond as quickly and as accurately as possible!</p>","4","","7","new_stimuli/mp3/melody_^3_^4_^5 _^6_v5_v4_v3_v2_v1_.mp3"
"","878.800000064075","html-button-response","292","1264097","0.0-21.0-8.6","6084","","<p>Which tone was played eight after the cadence?</p><p>Please respond as quickly and as accurately as possible!</p>","2","","8","new_stimuli/mp3/melody_^3_^4_^5 _^6_v5_v4_v3_v2_v1_.mp3"
"","1401.1150000151247","html-button-response","293","1265499","0.0-21.0-9.6","6084","","<p>Which tone was played nineth after the cadence?</p><p>Please respond as quickly and as accurately as possible!</p>","0","","9","new_stimuli/mp3/melody_^3_^4_^5 _^6_v5_v4_v3_v2_v1_.mp3"
"","36292.61000000406","survey-text","294","1301793","0.0-22.0","6084","{""Q0"":""Singing out loud, perfect pitch, solfege naming, absolute pitch recognition, relative pitch, paying attention to melodic contour""}","","","","",""
"","52045.79000000376","survey-text","295","1353839","0.0-23.0","6084","{""Q0"":""I was unclear if there was a time limit on certain trials because I felt I was cut off before I could input notes before completion, while on other trials i had more than enough time. Fun experiment!""}","","","","",""
"","35842.65999996569","survey-text","296","1389683","0.0-24.0","6084","{""Q0"":""No, but I have perfect pitch so I knew the note values of all the melodies in concert C.""}","","","","",""
"","12356.155000044964","survey-text","297","1402041","0.0-25.0","6084","{""Q0"":""Listened from my computer's speakers in a soundproof booth""}","","","","",""
"","8724.959999904968","survey-text","298","1410767","0.0-26.0","6084","{""Q0"":""Male""}","","","","",""
"","3233.75000001397","survey-text","299","1414002","0.0-27.0","6084","{""Q0"":""Yes""}","","","","",""
"[{""page_index"":0,""viewing_time"":6396.085000014864}]","6396.340000093915","instructions","300","1420399","0.0-28.0","6084","","","","","",""
