"view_history","rt","trial_type","trial_index","time_elapsed","internal_node_id","subject","responses","stimulus","button_pressed","key_press","response_sequence","melody"
"[{""page_index"":0,""viewing_time"":1543.2699999983015},{""page_index"":1,""viewing_time"":1975.1200000009703},{""page_index"":2,""viewing_time"":1741.7100000002392}]","5261.074999998527","instructions","0","5282","0.0-0.0","6323","","","","","",""
"","2894.6800000012445","survey-text","1","8180","0.0-1.0","6323","{""Q0"":""19""}","","","","",""
"","23871.289999999135","survey-text","2","32053","0.0-2.0","6323","{""Q0"":""pursuing BM""}","","","","",""
"","16473.700000000463","survey-text","3","48527","0.0-3.0","6323","{""Q0"":""Moveable-Do""}","","","","",""
"","22819.750000000568","survey-text","4","71348","0.0-4.0","6323","{""Q0"":""no""}","","","","",""
"","8184.619999999995","survey-text","5","79534","0.0-5.0","6323","{""Q0"":""2 semesters""}","","","","",""
"","5642.83499999874","survey-text","6","85177","0.0-6.0","6323","{""Q0"":""0""}","","","","",""
"[{""page_index"":0,""viewing_time"":3349.2150000001857},{""page_index"":1,""viewing_time"":19104.004999999233},{""page_index"":0,""viewing_time"":1842.2500000015134},{""page_index"":1,""viewing_time"":4670.82499999924},{""page_index"":2,""viewing_time"":1620.3000000004977}]","30586.890000000494","instructions","7","115765","0.0-7.0","6323","","","","","",""
"","10609.700000000885","audio-button-response","8","126378","0.0-8.0","6323","","stimuli/long/c-do.mp3","0","","",""
"","16801.555000000022","audio-button-response","9","143181","0.0-9.0","6323","","stimuli/long/a-le.mp3","8","","",""
"[{""page_index"":0,""viewing_time"":2218.7750000011874},{""page_index"":1,""viewing_time"":50924.71999999907}]","53143.76500000071","instructions","10","196326","0.0-10.0","6323","","","","","",""
"","14412.814999999653","audio-button-response","11","210741","0.0-11.0-0.0","6323","","stimuli/long/c-fi.mp3","7","","",""
"","14179.18500000087","audio-button-response","12","224923","0.0-11.0-0.1","6323","","stimuli/long/a-la.mp3","9","","",""
"","11584.774999999325","audio-button-response","13","236509","0.0-11.0-0.2","6323","","stimuli/long/e-sol.mp3","7","","",""
"","10993.619999999297","audio-button-response","14","247505","0.0-11.0-0.3","6323","","stimuli/long/a-ti.mp3","11","","",""
"","null","audio-button-response","15","267510","0.0-11.0-0.4","6323","","stimuli/long/a-fa.mp3","null","","",""
"","12026.864999999874","audio-button-response","16","279539","0.0-11.0-0.5","6323","","stimuli/long/c-me.mp3","6","","",""
"","13593.1700000001","audio-button-response","17","293134","0.0-11.0-0.6","6323","","stimuli/long/a-me.mp3","3","","",""
"","9140.51499999914","audio-button-response","18","302276","0.0-11.0-0.7","6323","","stimuli/long/e-do.mp3","0","","",""
"","10149.779999999737","audio-button-response","19","312428","0.0-11.0-0.8","6323","","stimuli/long/c-sol.mp3","7","","",""
"","9807.64499999897","audio-button-response","20","322238","0.0-11.0-0.9","6323","","stimuli/long/a-do8.mp3","12","","",""
"","8923.010000000417","audio-button-response","21","331163","0.0-11.0-0.10","6323","","stimuli/long/e-te.mp3","10","","",""
"","12937.555000000459","audio-button-response","22","344103","0.0-11.0-0.11","6323","","stimuli/long/c-le.mp3","7","","",""
"","13863.424999999523","audio-button-response","23","357968","0.0-11.0-0.12","6323","","stimuli/long/a-le.mp3","3","","",""
"","9277.755000000994","audio-button-response","24","367248","0.0-11.0-0.13","6323","","stimuli/long/e-ti.mp3","11","","",""
"","15532.885000000533","audio-button-response","25","382783","0.0-11.0-0.14","6323","","stimuli/long/a-fi.mp3","5","","",""
"","8963.584999999497","audio-button-response","26","391748","0.0-11.0-0.15","6323","","stimuli/long/c-do8.mp3","12","","",""
"","9917.450000000827","audio-button-response","27","401667","0.0-11.0-0.16","6323","","stimuli/long/a-te.mp3","7","","",""
"","11198.610000001325","audio-button-response","28","412867","0.0-11.0-0.17","6323","","stimuli/long/e-ra.mp3","5","","",""
"","8552.550000000396","audio-button-response","29","421421","0.0-11.0-0.18","6323","","stimuli/long/e-me.mp3","7","","",""
"","13935.344999999856","audio-button-response","30","435359","0.0-11.0-0.19","6323","","stimuli/long/c-ti.mp3","5","","",""
"","9678.58999999956","audio-button-response","31","445039","0.0-11.0-0.20","6323","","stimuli/long/c-fa.mp3","7","","",""
"","11344.440000000759","audio-button-response","32","456385","0.0-11.0-0.21","6323","","stimuli/long/c-re.mp3","2","","",""
"","12821.715000000026","audio-button-response","33","469208","0.0-11.0-0.22","6323","","stimuli/long/a-ra.mp3","1","","",""
"","12402.455000001297","audio-button-response","34","481613","0.0-11.0-0.23","6323","","stimuli/long/e-la.mp3","9","","",""
"","9230.134999999776","audio-button-response","35","490845","0.0-11.0-0.24","6323","","stimuli/long/a-sol.mp3","7","","",""
"","12882.709999999846","audio-button-response","36","503729","0.0-11.0-0.25","6323","","stimuli/long/c-mi.mp3","4","","",""
"","11836.43999999913","audio-button-response","37","515567","0.0-11.0-0.26","6323","","stimuli/long/e-le.mp3","11","","",""
"","9690.234999999986","audio-button-response","38","525259","0.0-11.0-0.27","6323","","stimuli/long/e-re.mp3","2","","",""
"","10086.100000000442","audio-button-response","39","535347","0.0-11.0-0.28","6323","","stimuli/long/c-ra.mp3","2","","",""
"","17988.879999998957","audio-button-response","40","553338","0.0-11.0-0.29","6323","","stimuli/long/e-fi.mp3","6","","",""
"","8884.305000001448","audio-button-response","41","562224","0.0-11.0-0.30","6323","","stimuli/long/e-mi.mp3","2","","",""
"","9128.899999999674","audio-button-response","42","571355","0.0-11.0-0.31","6323","","stimuli/long/a-do.mp3","0","","",""
"","13626.164999999688","audio-button-response","43","584983","0.0-11.0-0.32","6323","","stimuli/long/c-la.mp3","9","","",""
"","15662.765000000945","audio-button-response","44","600648","0.0-11.0-0.33","6323","","stimuli/long/e-fa.mp3","11","","",""
"","9016.214999999618","audio-button-response","45","609667","0.0-11.0-0.34","6323","","stimuli/long/e-do8.mp3","12","","",""
"","8923.75999999966","audio-button-response","46","618592","0.0-11.0-0.35","6323","","stimuli/long/c-do.mp3","0","","",""
"","9258.220000001602","audio-button-response","47","627852","0.0-11.0-0.36","6323","","stimuli/long/a-re.mp3","2","","",""
"","10337.014999999199","audio-button-response","48","638191","0.0-11.0-0.37","6323","","stimuli/long/a-mi.mp3","4","","",""
"[{""page_index"":0,""viewing_time"":27940.274999998976},{""page_index"":1,""viewing_time"":1600.220000000205}]","29540.714999999152","instructions","49","667732","0.0-12.0","6323","","","","","",""
"","null","audio-keyboard-response","50","676732","0.0-13.0-0.0","6323","","new_stimuli/mp3/melody_^1_^2+_.mp3","","null","",""
"","4560.270000000019","html-button-response","51","681295","0.0-13.0-1.0","6323","","<p>Which tone was played first after the cadence?</p><p>Please respond as quickly and as accurately as possible!</p>","0","","1","new_stimuli/mp3/melody_^1_^2+_.mp3"
"","3270.3199999995995","html-button-response","52","684567","0.0-13.0-2.0","6323","","<p>Which tone was played second after the cadence?</p><p>Please respond as quickly and as accurately as possible!</p>","3","","2","new_stimuli/mp3/melody_^1_^2+_.mp3"
"","null","audio-keyboard-response","53","693634","0.0-13.0-0.1","6323","","new_stimuli/mp3/melody_v2_v1_.mp3","","null","",""
"","1287.2050000005402","html-button-response","54","694924","0.0-13.0-1.1","6323","","<p>Which tone was played first after the cadence?</p><p>Please respond as quickly and as accurately as possible!</p>","2","","1","new_stimuli/mp3/melody_v2_v1_.mp3"
"","917.7650000001304","html-button-response","55","695844","0.0-13.0-2.1","6323","","<p>Which tone was played second after the cadence?</p><p>Please respond as quickly and as accurately as possible!</p>","0","","2","new_stimuli/mp3/melody_v2_v1_.mp3"
"","null","audio-keyboard-response","56","705276","0.0-13.0-0.2","6323","","new_stimuli/mp3/melody_v4_v3_buffer.mp3","","null","",""
"","5122.679999998538","html-button-response","57","710402","0.0-13.0-1.2","6323","","<p>Which tone was played first after the cadence?</p><p>Please respond as quickly and as accurately as possible!</p>","2","","1","new_stimuli/mp3/melody_v4_v3_buffer.mp3"
"","2614.4650000005495","html-button-response","58","713018","0.0-13.0-2.2","6323","","<p>Which tone was played second after the cadence?</p><p>Please respond as quickly and as accurately as possible!</p>","2","","2","new_stimuli/mp3/melody_v4_v3_buffer.mp3"
"","null","audio-keyboard-response","59","722191","0.0-13.0-0.3","6323","","new_stimuli/mp3/melody_^2_v7-_.mp3","","null","",""
"","9767.26500000048","html-button-response","60","731961","0.0-13.0-1.3","6323","","<p>Which tone was played first after the cadence?</p><p>Please respond as quickly and as accurately as possible!</p>","4","","1","new_stimuli/mp3/melody_^2_v7-_.mp3"
"","1553.5549999986542","html-button-response","61","733518","0.0-13.0-2.3","6323","","<p>Which tone was played second after the cadence?</p><p>Please respond as quickly and as accurately as possible!</p>","0","","2","new_stimuli/mp3/melody_^2_v7-_.mp3"
"","null","audio-keyboard-response","62","742822","0.0-13.0-0.4","6323","","new_stimuli/mp3/melody_3_^6_buffer.mp3","","null","",""
"","3152.624999998836","html-button-response","63","745978","0.0-13.0-1.4","6323","","<p>Which tone was played first after the cadence?</p><p>Please respond as quickly and as accurately as possible!</p>","7","","1","new_stimuli/mp3/melody_3_^6_buffer.mp3"
"","1771.6600000002654","html-button-response","64","747751","0.0-13.0-2.4","6323","","<p>Which tone was played second after the cadence?</p><p>Please respond as quickly and as accurately as possible!</p>","12","","2","new_stimuli/mp3/melody_3_^6_buffer.mp3"
"","null","audio-keyboard-response","65","757208","0.0-13.0-0.5","6323","","new_stimuli/mp3/melody_^3_v4+_buffer.mp3","","null","",""
"","5838.9900000002235","html-button-response","66","763050","0.0-13.0-1.5","6323","","<p>Which tone was played first after the cadence?</p><p>Please respond as quickly and as accurately as possible!</p>","5","","1","new_stimuli/mp3/melody_^3_v4+_buffer.mp3"
"","919.7250000016065","html-button-response","67","763971","0.0-13.0-2.5","6323","","<p>Which tone was played second after the cadence?</p><p>Please respond as quickly and as accurately as possible!</p>","7","","2","new_stimuli/mp3/melody_^3_v4+_buffer.mp3"
"","null","audio-keyboard-response","68","773136","0.0-13.0-0.6","6323","","new_stimuli/mp3/melody_^5_^1+_.mp3","","null","",""
"","4838.654999999562","html-button-response","69","777978","0.0-13.0-1.6","6323","","<p>Which tone was played first after the cadence?</p><p>Please respond as quickly and as accurately as possible!</p>","11","","1","new_stimuli/mp3/melody_^5_^1+_.mp3"
"","1876.3099999997066","html-button-response","70","779856","0.0-13.0-2.6","6323","","<p>Which tone was played second after the cadence?</p><p>Please respond as quickly and as accurately as possible!</p>","5","","2","new_stimuli/mp3/melody_^5_^1+_.mp3"
"","null","audio-keyboard-response","71","789025","0.0-13.0-0.7","6323","","new_stimuli/mp3/melody_v5_v1+_.mp3","","null","",""
"","4708.829999999492","html-button-response","72","793737","0.0-13.0-1.7","6323","","<p>Which tone was played first after the cadence?</p><p>Please respond as quickly and as accurately as possible!</p>","2","","1","new_stimuli/mp3/melody_v5_v1+_.mp3"
"","2260.444999999949","html-button-response","73","795999","0.0-13.0-2.7","6323","","<p>Which tone was played second after the cadence?</p><p>Please respond as quickly and as accurately as possible!</p>","8","","2","new_stimuli/mp3/melody_v5_v1+_.mp3"
"","null","audio-keyboard-response","74","805452","0.0-13.0-0.8","6323","","new_stimuli/mp3/melody_v7_v3_buffer.mp3","","null","",""
"","2031.3200000000652","html-button-response","75","807487","0.0-13.0-1.8","6323","","<p>Which tone was played first after the cadence?</p><p>Please respond as quickly and as accurately as possible!</p>","7","","1","new_stimuli/mp3/melody_v7_v3_buffer.mp3"
"","1477.289999998873","html-button-response","76","808966","0.0-13.0-2.8","6323","","<p>Which tone was played second after the cadence?</p><p>Please respond as quickly and as accurately as possible!</p>","0","","2","new_stimuli/mp3/melody_v7_v3_buffer.mp3"
"","null","audio-keyboard-response","77","818160","0.0-13.0-0.9","6323","","new_stimuli/mp3/melody_v3_v2_buffer.mp3","","null","",""
"","2758.8900000009453","html-button-response","78","820922","0.0-13.0-1.9","6323","","<p>Which tone was played first after the cadence?</p><p>Please respond as quickly and as accurately as possible!</p>","4","","1","new_stimuli/mp3/melody_v3_v2_buffer.mp3"
"","929.4499999996042","html-button-response","79","821854","0.0-13.0-2.9","6323","","<p>Which tone was played second after the cadence?</p><p>Please respond as quickly and as accurately as possible!</p>","2","","2","new_stimuli/mp3/melody_v3_v2_buffer.mp3"
"[{""page_index"":0,""viewing_time"":9158.620000000228},{""page_index"":1,""viewing_time"":1350.3599999984726},{""page_index"":2,""viewing_time"":1369.3250000015832}]","11878.569999999017","instructions","80","833733","0.0-14.0","6323","","","","","",""
"","null","audio-keyboard-response","81","843291","0.0-15.0-0.0","6323","","new_stimuli/mp3/melody_v3_v2_v1_.mp3","","null","",""
"","1705.4299999999348","html-button-response","82","844999","0.0-15.0-1.0","6323","","<p>Which tone was played first after the cadence?</p><p>Please respond as quickly and as accurately as possible!</p>","4","","1","new_stimuli/mp3/melody_v3_v2_v1_.mp3"
"","876.8749999998836","html-button-response","83","845877","0.0-15.0-2.0","6323","","<p>Which tone was played second after the cadence?</p><p>Please respond as quickly and as accurately as possible!</p>","2","","2","new_stimuli/mp3/melody_v3_v2_v1_.mp3"
"","1036.4050000007264","html-button-response","84","846915","0.0-15.0-3.0","6323","","<p>Which tone was played third after the cadence?</p><p>Please respond as quickly and as accurately as possible!</p>","0","","3","new_stimuli/mp3/melody_v3_v2_v1_.mp3"
"","null","audio-keyboard-response","85","856814","0.0-15.0-0.1","6323","","new_stimuli/mp3/melody_^1_v6_v5+_.mp3","","null","",""
"","6058.500000000931","html-button-response","86","862876","0.0-15.0-1.1","6323","","<p>Which tone was played first after the cadence?</p><p>Please respond as quickly and as accurately as possible!</p>","12","","1","new_stimuli/mp3/melody_^1_v6_v5+_.mp3"
"","878.0599999991246","html-button-response","87","863755","0.0-15.0-2.1","6323","","<p>Which tone was played second after the cadence?</p><p>Please respond as quickly and as accurately as possible!</p>","11","","2","new_stimuli/mp3/melody_^1_v6_v5+_.mp3"
"","4696.90500000061","html-button-response","88","868453","0.0-15.0-3.1","6323","","<p>Which tone was played third after the cadence?</p><p>Please respond as quickly and as accurately as possible!</p>","8","","3","new_stimuli/mp3/melody_^1_v6_v5+_.mp3"
"","null","audio-keyboard-response","89","877954","0.0-15.0-0.2","6323","","new_stimuli/mp3/melody_1_v1+_^2_.mp3","","null","",""
"","3561.3000000012107","html-button-response","90","881518","0.0-15.0-1.2","6323","","<p>Which tone was played first after the cadence?</p><p>Please respond as quickly and as accurately as possible!</p>","0","","1","new_stimuli/mp3/melody_1_v1+_^2_.mp3"
"","846.910000000149","html-button-response","91","882367","0.0-15.0-2.2","6323","","<p>Which tone was played second after the cadence?</p><p>Please respond as quickly and as accurately as possible!</p>","1","","2","new_stimuli/mp3/melody_1_v1+_^2_.mp3"
"","878.2399999999907","html-button-response","92","883247","0.0-15.0-3.2","6323","","<p>Which tone was played third after the cadence?</p><p>Please respond as quickly and as accurately as possible!</p>","2","","3","new_stimuli/mp3/melody_1_v1+_^2_.mp3"
"","null","audio-keyboard-response","93","893202","0.0-15.0-0.3","6323","","new_stimuli/mp3/melody_v5_v4_v3_buffer.mp3","","null","",""
"","1742.0550000005169","html-button-response","94","894948","0.0-15.0-1.3","6323","","<p>Which tone was played first after the cadence?</p><p>Please respond as quickly and as accurately as possible!</p>","7","","1","new_stimuli/mp3/melody_v5_v4_v3_buffer.mp3"
"","1223.4350000016857","html-button-response","95","896173","0.0-15.0-2.3","6323","","<p>Which tone was played second after the cadence?</p><p>Please respond as quickly and as accurately as possible!</p>","5","","2","new_stimuli/mp3/melody_v5_v4_v3_buffer.mp3"
"","1008.4449999994831","html-button-response","96","897183","0.0-15.0-3.3","6323","","<p>Which tone was played third after the cadence?</p><p>Please respond as quickly and as accurately as possible!</p>","4","","3","new_stimuli/mp3/melody_v5_v4_v3_buffer.mp3"
"","null","audio-keyboard-response","97","906825","0.0-15.0-0.4","6323","","new_stimuli/mp3/melody_6_^1_v5_.mp3","","null","",""
"","8885.580000000191","html-button-response","98","915714","0.0-15.0-1.4","6323","","<p>Which tone was played first after the cadence?</p><p>Please respond as quickly and as accurately as possible!</p>","9","","1","new_stimuli/mp3/melody_6_^1_v5_.mp3"
"","1255.0400000000373","html-button-response","99","916970","0.0-15.0-2.4","6323","","<p>Which tone was played second after the cadence?</p><p>Please respond as quickly and as accurately as possible!</p>","12","","2","new_stimuli/mp3/melody_6_^1_v5_.mp3"
"","1279.934999998659","html-button-response","100","918251","0.0-15.0-3.4","6323","","<p>Which tone was played third after the cadence?</p><p>Please respond as quickly and as accurately as possible!</p>","7","","3","new_stimuli/mp3/melody_6_^1_v5_.mp3"
"","null","audio-keyboard-response","101","927832","0.0-15.0-0.5","6323","","new_stimuli/mp3/melody_v1_v7-_7-_buffer.mp3","","null","",""
"","1553.3750000012806","html-button-response","102","929388","0.0-15.0-1.5","6323","","<p>Which tone was played first after the cadence?</p><p>Please respond as quickly and as accurately as possible!</p>","12","","1","new_stimuli/mp3/melody_v1_v7-_7-_buffer.mp3"
"","1079.780000000028","html-button-response","103","930470","0.0-15.0-2.5","6323","","<p>Which tone was played second after the cadence?</p><p>Please respond as quickly and as accurately as possible!</p>","10","","2","new_stimuli/mp3/melody_v1_v7-_7-_buffer.mp3"
"","186.714999999851","html-button-response","104","930658","0.0-15.0-3.5","6323","","<p>Which tone was played third after the cadence?</p><p>Please respond as quickly and as accurately as possible!</p>","10","","3","new_stimuli/mp3/melody_v1_v7-_7-_buffer.mp3"
"","null","audio-keyboard-response","105","940348","0.0-15.0-0.6","6323","","new_stimuli/mp3/melody_v4_v3_v2_buffer.mp3","","null","",""
"","1999.8150000011083","html-button-response","106","942351","0.0-15.0-1.6","6323","","<p>Which tone was played first after the cadence?</p><p>Please respond as quickly and as accurately as possible!</p>","5","","1","new_stimuli/mp3/melody_v4_v3_v2_buffer.mp3"
"","1108.2000000005355","html-button-response","107","943460","0.0-15.0-2.6","6323","","<p>Which tone was played second after the cadence?</p><p>Please respond as quickly and as accurately as possible!</p>","4","","2","new_stimuli/mp3/melody_v4_v3_v2_buffer.mp3"
"","1195.069999999716","html-button-response","108","944656","0.0-15.0-3.6","6323","","<p>Which tone was played third after the cadence?</p><p>Please respond as quickly and as accurately as possible!</p>","2","","3","new_stimuli/mp3/melody_v4_v3_v2_buffer.mp3"
"","null","audio-keyboard-response","109","954225","0.0-15.0-0.7","6323","","new_stimuli/mp3/melody_v1_v7-_^7_.mp3","","null","",""
"","2185.88999999885","html-button-response","110","956415","0.0-15.0-1.7","6323","","<p>Which tone was played first after the cadence?</p><p>Please respond as quickly and as accurately as possible!</p>","12","","1","new_stimuli/mp3/melody_v1_v7-_^7_.mp3"
"","1183.244999998249","html-button-response","111","957600","0.0-15.0-2.7","6323","","<p>Which tone was played second after the cadence?</p><p>Please respond as quickly and as accurately as possible!</p>","10","","2","new_stimuli/mp3/melody_v1_v7-_^7_.mp3"
"","1095.2199999992736","html-button-response","112","958696","0.0-15.0-3.7","6323","","<p>Which tone was played third after the cadence?</p><p>Please respond as quickly and as accurately as possible!</p>","11","","3","new_stimuli/mp3/melody_v1_v7-_^7_.mp3"
"","null","audio-keyboard-response","113","968680","0.0-15.0-0.8","6323","","new_stimuli/mp3/melody_v2_v5_^3_buffer.mp3","","null","",""
"","5220.694999999949","html-button-response","114","973904","0.0-15.0-1.8","6323","","<p>Which tone was played first after the cadence?</p><p>Please respond as quickly and as accurately as possible!</p>","2","","1","new_stimuli/mp3/melody_v2_v5_^3_buffer.mp3"
"","9756.644999999553","html-button-response","115","983662","0.0-15.0-2.8","6323","","<p>Which tone was played second after the cadence?</p><p>Please respond as quickly and as accurately as possible!</p>","9","","2","new_stimuli/mp3/melody_v2_v5_^3_buffer.mp3"
"","1207.355000000447","html-button-response","116","984871","0.0-15.0-3.8","6323","","<p>Which tone was played third after the cadence?</p><p>Please respond as quickly and as accurately as possible!</p>","7","","3","new_stimuli/mp3/melody_v2_v5_^3_buffer.mp3"
"[{""page_index"":0,""viewing_time"":10367.519999999786},{""page_index"":1,""viewing_time"":2215.3800000014016},{""page_index"":2,""viewing_time"":2362.914999999688}]","14946.074999999837","instructions","117","999818","0.0-16.0","6323","","","","","",""
"","null","audio-keyboard-response","118","1010398","0.0-17.0-0.0","6323","","new_stimuli/mp3/melody_v2_2_^3_^4_v2_.mp3","","null","",""
"","6340.135000000359","html-button-response","119","1016742","0.0-17.0-1.0","6323","","<p>Which tone was played first after the cadence?</p><p>Please respond as quickly and as accurately as possible!</p>","2","","1","new_stimuli/mp3/melody_v2_2_^3_^4_v2_.mp3"
"","653.229999999865","html-button-response","120","1017396","0.0-17.0-2.0","6323","","<p>Which tone was played second after the cadence?</p><p>Please respond as quickly and as accurately as possible!</p>","2","","2","new_stimuli/mp3/melody_v2_2_^3_^4_v2_.mp3"
"","2572.4099999988684","html-button-response","121","1019970","0.0-17.0-3.0","6323","","<p>Which tone was played third after the cadence?</p><p>Please respond as quickly and as accurately as possible!</p>","4","","3","new_stimuli/mp3/melody_v2_2_^3_^4_v2_.mp3"
"","1695.675000000745","html-button-response","122","1021667","0.0-17.0-4.0","6323","","<p>Which tone was played fourth after the cadence?</p><p>Please respond as quickly and as accurately as possible!</p>","5","","4","new_stimuli/mp3/melody_v2_2_^3_^4_v2_.mp3"
"","1935.455000000773","html-button-response","123","1023604","0.0-17.0-5.0","6323","","<p>Which tone was played fifth after the cadence?</p><p>Please respond as quickly and as accurately as possible!</p>","2","","5","new_stimuli/mp3/melody_v2_2_^3_^4_v2_.mp3"
"","null","audio-keyboard-response","124","1034321","0.0-17.0-0.1","6323","","new_stimuli/mp3/melody_^6_v5_v4_v3_v2_buffer.mp3","","null","",""
"","1931.9699999996228","html-button-response","125","1036256","0.0-17.0-1.1","6323","","<p>Which tone was played first after the cadence?</p><p>Please respond as quickly and as accurately as possible!</p>","9","","1","new_stimuli/mp3/melody_^6_v5_v4_v3_v2_buffer.mp3"
"","983.9549999997253","html-button-response","126","1037242","0.0-17.0-2.1","6323","","<p>Which tone was played second after the cadence?</p><p>Please respond as quickly and as accurately as possible!</p>","7","","2","new_stimuli/mp3/melody_^6_v5_v4_v3_v2_buffer.mp3"
"","1130.0699999992503","html-button-response","127","1038373","0.0-17.0-3.1","6323","","<p>Which tone was played third after the cadence?</p><p>Please respond as quickly and as accurately as possible!</p>","5","","3","new_stimuli/mp3/melody_^6_v5_v4_v3_v2_buffer.mp3"
"","890.2849999995669","html-button-response","128","1039264","0.0-17.0-4.1","6323","","<p>Which tone was played fourth after the cadence?</p><p>Please respond as quickly and as accurately as possible!</p>","4","","4","new_stimuli/mp3/melody_^6_v5_v4_v3_v2_buffer.mp3"
"","1264.14500000095","html-button-response","129","1040530","0.0-17.0-5.1","6323","","<p>Which tone was played fifth after the cadence?</p><p>Please respond as quickly and as accurately as possible!</p>","2","","5","new_stimuli/mp3/melody_^6_v5_v4_v3_v2_buffer.mp3"
"","null","audio-keyboard-response","130","1051165","0.0-17.0-0.2","6323","","new_stimuli/mp3/melody_v5_^6+_^7_^1_5_.mp3","","null","",""
"","2782.0449999999255","html-button-response","131","1053950","0.0-17.0-1.2","6323","","<p>Which tone was played first after the cadence?</p><p>Please respond as quickly and as accurately as possible!</p>","7","","1","new_stimuli/mp3/melody_v5_^6+_^7_^1_5_.mp3"
"","1411.7749999985099","html-button-response","132","1055363","0.0-17.0-2.2","6323","","<p>Which tone was played second after the cadence?</p><p>Please respond as quickly and as accurately as possible!</p>","9","","2","new_stimuli/mp3/melody_v5_^6+_^7_^1_5_.mp3"
"","1079.7499999990687","html-button-response","133","1056444","0.0-17.0-3.2","6323","","<p>Which tone was played third after the cadence?</p><p>Please respond as quickly and as accurately as possible!</p>","11","","3","new_stimuli/mp3/melody_v5_^6+_^7_^1_5_.mp3"
"","920.9649999993853","html-button-response","134","1057366","0.0-17.0-4.2","6323","","<p>Which tone was played fourth after the cadence?</p><p>Please respond as quickly and as accurately as possible!</p>","12","","4","new_stimuli/mp3/melody_v5_^6+_^7_^1_5_.mp3"
"","1353.280000001192","html-button-response","135","1058722","0.0-17.0-5.2","6323","","<p>Which tone was played fifth after the cadence?</p><p>Please respond as quickly and as accurately as possible!</p>","7","","5","new_stimuli/mp3/melody_v5_^6+_^7_^1_5_.mp3"
"","null","audio-keyboard-response","136","1069674","0.0-17.0-0.3","6323","","new_stimuli/mp3/melody_v5-_v3_3_^4+_v3_.mp3","","null","",""
"","3181.9699999997392","html-button-response","137","1072859","0.0-17.0-1.3","6323","","<p>Which tone was played first after the cadence?</p><p>Please respond as quickly and as accurately as possible!</p>","6","","1","new_stimuli/mp3/melody_v5-_v3_3_^4+_v3_.mp3"
"","950.3649999988265","html-button-response","138","1073810","0.0-17.0-2.3","6323","","<p>Which tone was played second after the cadence?</p><p>Please respond as quickly and as accurately as possible!</p>","4","","2","new_stimuli/mp3/melody_v5-_v3_3_^4+_v3_.mp3"
"","474.5250000015367","html-button-response","139","1074286","0.0-17.0-3.3","6323","","<p>Which tone was played third after the cadence?</p><p>Please respond as quickly and as accurately as possible!</p>","4","","3","new_stimuli/mp3/melody_v5-_v3_3_^4+_v3_.mp3"
"","951.2300000006799","html-button-response","140","1075239","0.0-17.0-4.3","6323","","<p>Which tone was played fourth after the cadence?</p><p>Please respond as quickly and as accurately as possible!</p>","6","","4","new_stimuli/mp3/melody_v5-_v3_3_^4+_v3_.mp3"
"","1007.1050000006799","html-button-response","141","1076247","0.0-17.0-5.3","6323","","<p>Which tone was played fifth after the cadence?</p><p>Please respond as quickly and as accurately as possible!</p>","4","","5","new_stimuli/mp3/melody_v5-_v3_3_^4+_v3_.mp3"
"","null","audio-keyboard-response","142","1086832","0.0-17.0-0.4","6323","","new_stimuli/mp3/melody_v5_v4_v3_v2_v1_.mp3","","null","",""
"","1393.5799999998417","html-button-response","143","1088229","0.0-17.0-1.4","6323","","<p>Which tone was played first after the cadence?</p><p>Please respond as quickly and as accurately as possible!</p>","7","","1","new_stimuli/mp3/melody_v5_v4_v3_v2_v1_.mp3"
"","992.1550000000279","html-button-response","144","1089223","0.0-17.0-2.4","6323","","<p>Which tone was played second after the cadence?</p><p>Please respond as quickly and as accurately as possible!</p>","5","","2","new_stimuli/mp3/melody_v5_v4_v3_v2_v1_.mp3"
"","1123.8099999991246","html-button-response","145","1090348","0.0-17.0-3.4","6323","","<p>Which tone was played third after the cadence?</p><p>Please respond as quickly and as accurately as possible!</p>","4","","3","new_stimuli/mp3/melody_v5_v4_v3_v2_v1_.mp3"
"","1137.6550000004936","html-button-response","146","1091486","0.0-17.0-4.4","6323","","<p>Which tone was played fourth after the cadence?</p><p>Please respond as quickly and as accurately as possible!</p>","2","","4","new_stimuli/mp3/melody_v5_v4_v3_v2_v1_.mp3"
"","935.7700000000186","html-button-response","147","1092423","0.0-17.0-5.4","6323","","<p>Which tone was played fifth after the cadence?</p><p>Please respond as quickly and as accurately as possible!</p>","0","","5","new_stimuli/mp3/melody_v5_v4_v3_v2_v1_.mp3"
"","null","audio-keyboard-response","148","1103370","0.0-17.0-0.5","6323","","new_stimuli/mp3/melody_^5_^6_v5_v4_v3_buffer.mp3","","null","",""
"","1174.9600000001956","html-button-response","149","1104548","0.0-17.0-1.5","6323","","<p>Which tone was played first after the cadence?</p><p>Please respond as quickly and as accurately as possible!</p>","7","","1","new_stimuli/mp3/melody_^5_^6_v5_v4_v3_buffer.mp3"
"","964.5650000004098","html-button-response","150","1105514","0.0-17.0-2.5","6323","","<p>Which tone was played second after the cadence?</p><p>Please respond as quickly and as accurately as possible!</p>","9","","2","new_stimuli/mp3/melody_^5_^6_v5_v4_v3_buffer.mp3"
"","978.9050000000279","html-button-response","151","1106494","0.0-17.0-3.5","6323","","<p>Which tone was played third after the cadence?</p><p>Please respond as quickly and as accurately as possible!</p>","7","","3","new_stimuli/mp3/melody_^5_^6_v5_v4_v3_buffer.mp3"
"","1181.1250000009313","html-button-response","152","1107676","0.0-17.0-4.5","6323","","<p>Which tone was played fourth after the cadence?</p><p>Please respond as quickly and as accurately as possible!</p>","5","","4","new_stimuli/mp3/melody_^5_^6_v5_v4_v3_buffer.mp3"
"","863.6450000011828","html-button-response","153","1108541","0.0-17.0-5.5","6323","","<p>Which tone was played fifth after the cadence?</p><p>Please respond as quickly and as accurately as possible!</p>","4","","5","new_stimuli/mp3/melody_^5_^6_v5_v4_v3_buffer.mp3"
"","null","audio-keyboard-response","154","1119178","0.0-17.0-0.6","6323","","new_stimuli/mp3/melody_^6_v4_v3_^4_^5_.mp3","","null","",""
"","6320.08500000136","html-button-response","155","1125501","0.0-17.0-1.6","6323","","<p>Which tone was played first after the cadence?</p><p>Please respond as quickly and as accurately as possible!</p>","7","","1","new_stimuli/mp3/melody_^6_v4_v3_^4_^5_.mp3"
"","3241.8850000014063","html-button-response","156","1128744","0.0-17.0-2.6","6323","","<p>Which tone was played second after the cadence?</p><p>Please respond as quickly and as accurately as possible!</p>","2","","2","new_stimuli/mp3/melody_^6_v4_v3_^4_^5_.mp3"
"","2160.9499999994878","html-button-response","157","1130907","0.0-17.0-3.6","6323","","<p>Which tone was played third after the cadence?</p><p>Please respond as quickly and as accurately as possible!</p>","4","","3","new_stimuli/mp3/melody_^6_v4_v3_^4_^5_.mp3"
"","878.7949999987613","html-button-response","158","1131787","0.0-17.0-4.6","6323","","<p>Which tone was played fourth after the cadence?</p><p>Please respond as quickly and as accurately as possible!</p>","5","","4","new_stimuli/mp3/melody_^6_v4_v3_^4_^5_.mp3"
"","1324.5599999991246","html-button-response","159","1133112","0.0-17.0-5.6","6323","","<p>Which tone was played fifth after the cadence?</p><p>Please respond as quickly and as accurately as possible!</p>","5","","5","new_stimuli/mp3/melody_^6_v4_v3_^4_^5_.mp3"
"","null","audio-keyboard-response","160","1143690","0.0-17.0-0.7","6323","","new_stimuli/mp3/melody_v5_v4_v3_v2_v1 _buffer.mp3","","null","",""
"","1694.655000001192","html-button-response","161","1145387","0.0-17.0-1.7","6323","","<p>Which tone was played first after the cadence?</p><p>Please respond as quickly and as accurately as possible!</p>","7","","1","new_stimuli/mp3/melody_v5_v4_v3_v2_v1 _buffer.mp3"
"","1051.2049999998417","html-button-response","162","1146440","0.0-17.0-2.7","6323","","<p>Which tone was played second after the cadence?</p><p>Please respond as quickly and as accurately as possible!</p>","5","","2","new_stimuli/mp3/melody_v5_v4_v3_v2_v1 _buffer.mp3"
"","1109.1949999991339","html-button-response","163","1147550","0.0-17.0-3.7","6323","","<p>Which tone was played third after the cadence?</p><p>Please respond as quickly and as accurately as possible!</p>","4","","3","new_stimuli/mp3/melody_v5_v4_v3_v2_v1 _buffer.mp3"
"","921.4050000009593","html-button-response","164","1148473","0.0-17.0-4.7","6323","","<p>Which tone was played fourth after the cadence?</p><p>Please respond as quickly and as accurately as possible!</p>","2","","4","new_stimuli/mp3/melody_v5_v4_v3_v2_v1 _buffer.mp3"
"","906.7999999986496","html-button-response","165","1149381","0.0-17.0-5.7","6323","","<p>Which tone was played fifth after the cadence?</p><p>Please respond as quickly and as accurately as possible!</p>","0","","5","new_stimuli/mp3/melody_v5_v4_v3_v2_v1 _buffer.mp3"
"[{""page_index"":0,""viewing_time"":4213.079999999376},{""page_index"":1,""viewing_time"":1181.9350000005215},{""page_index"":2,""viewing_time"":1138.4299999992363}]","6533.704999999842","instructions","166","1155915","0.0-18.0","6323","","","","","",""
"","null","audio-keyboard-response","167","1167593","0.0-19.0-0.0","6323","","new_stimuli/mp3/melody_^4_v6-_v5-_^6-_^4_v2-_2-_.mp3","","null","",""
"","6103.3750000006985","html-button-response","168","1173700","0.0-19.0-1.0","6323","","<p>Which tone was played first after the cadence?</p><p>Please respond as quickly and as accurately as possible!</p>","6","","1","new_stimuli/mp3/melody_^4_v6-_v5-_^6-_^4_v2-_2-_.mp3"
"","1986.4149999993388","html-button-response","169","1175688","0.0-19.0-2.0","6323","","<p>Which tone was played second after the cadence?</p><p>Please respond as quickly and as accurately as possible!</p>","9","","2","new_stimuli/mp3/melody_^4_v6-_v5-_^6-_^4_v2-_2-_.mp3"
"","1166.2649999996647","html-button-response","170","1176855","0.0-19.0-3.0","6323","","<p>Which tone was played third after the cadence?</p><p>Please respond as quickly and as accurately as possible!</p>","7","","3","new_stimuli/mp3/melody_^4_v6-_v5-_^6-_^4_v2-_2-_.mp3"
"","1527.0049999998882","html-button-response","171","1178384","0.0-19.0-4.0","6323","","<p>Which tone was played fourth after the cadence?</p><p>Please respond as quickly and as accurately as possible!</p>","9","","4","new_stimuli/mp3/melody_^4_v6-_v5-_^6-_^4_v2-_2-_.mp3"
"","6226.220000000438","html-button-response","172","1184611","0.0-19.0-5.0","6323","","<p>Which tone was played fifth after the cadence?</p><p>Please respond as quickly and as accurately as possible!</p>","6","","5","new_stimuli/mp3/melody_^4_v6-_v5-_^6-_^4_v2-_2-_.mp3"
"","1236.3449999992736","html-button-response","173","1185849","0.0-19.0-6.0","6323","","<p>Which tone was played sixth after the cadence?</p><p>Please respond as quickly and as accurately as possible!</p>","4","","6","new_stimuli/mp3/melody_^4_v6-_v5-_^6-_^4_v2-_2-_.mp3"
"","529.8199999998324","html-button-response","174","1186382","0.0-19.0-7.0","6323","","<p>Which tone was played seventh after the cadence?</p><p>Please respond as quickly and as accurately as possible!</p>","4","","7","new_stimuli/mp3/melody_^4_v6-_v5-_^6-_^4_v2-_2-_.mp3"
"","null","audio-keyboard-response","175","1198080","0.0-19.0-0.1","6323","","new_stimuli/mp3/melody_^4_^5_^6_v5_v4_v3_v2_.mp3","","null","",""
"","1824.9799999995157","html-button-response","176","1199908","0.0-19.0-1.1","6323","","<p>Which tone was played first after the cadence?</p><p>Please respond as quickly and as accurately as possible!</p>","7","","1","new_stimuli/mp3/melody_^4_^5_^6_v5_v4_v3_v2_.mp3"
"","1209.6099999998696","html-button-response","177","1201119","0.0-19.0-2.1","6323","","<p>Which tone was played second after the cadence?</p><p>Please respond as quickly and as accurately as possible!</p>","9","","2","new_stimuli/mp3/melody_^4_^5_^6_v5_v4_v3_v2_.mp3"
"","1223.1900000006426","html-button-response","178","1202344","0.0-19.0-3.1","6323","","<p>Which tone was played third after the cadence?</p><p>Please respond as quickly and as accurately as possible!</p>","11","","3","new_stimuli/mp3/melody_^4_^5_^6_v5_v4_v3_v2_.mp3"
"","1167.1699999987613","html-button-response","179","1203512","0.0-19.0-4.1","6323","","<p>Which tone was played fourth after the cadence?</p><p>Please respond as quickly and as accurately as possible!</p>","9","","4","new_stimuli/mp3/melody_^4_^5_^6_v5_v4_v3_v2_.mp3"
"","1033.9050000002608","html-button-response","180","1204547","0.0-19.0-5.1","6323","","<p>Which tone was played fifth after the cadence?</p><p>Please respond as quickly and as accurately as possible!</p>","7","","5","new_stimuli/mp3/melody_^4_^5_^6_v5_v4_v3_v2_.mp3"
"","1185.630000000121","html-button-response","181","1205734","0.0-19.0-6.1","6323","","<p>Which tone was played sixth after the cadence?</p><p>Please respond as quickly and as accurately as possible!</p>","5","","6","new_stimuli/mp3/melody_^4_^5_^6_v5_v4_v3_v2_.mp3"
"","5647.054999999469","html-button-response","182","1211382","0.0-19.0-7.1","6323","","<p>Which tone was played seventh after the cadence?</p><p>Please respond as quickly and as accurately as possible!</p>","2","","7","new_stimuli/mp3/melody_^4_^5_^6_v5_v4_v3_v2_.mp3"
"","null","audio-keyboard-response","183","1222948","0.0-19.0-0.2","6323","","new_stimuli/mp3/melody_^5_^6_v5_v4_v3_v2_v1_buffer.mp3","","null","",""
"","2540.5850000006612","html-button-response","184","1225492","0.0-19.0-1.2","6323","","<p>Which tone was played first after the cadence?</p><p>Please respond as quickly and as accurately as possible!</p>","7","","1","new_stimuli/mp3/melody_^5_^6_v5_v4_v3_v2_v1_buffer.mp3"
"","1120.5649999992456","html-button-response","185","1226614","0.0-19.0-2.2","6323","","<p>Which tone was played second after the cadence?</p><p>Please respond as quickly and as accurately as possible!</p>","9","","2","new_stimuli/mp3/melody_^5_^6_v5_v4_v3_v2_v1_buffer.mp3"
"","917.9899999999907","html-button-response","186","1227533","0.0-19.0-3.2","6323","","<p>Which tone was played third after the cadence?</p><p>Please respond as quickly and as accurately as possible!</p>","7","","3","new_stimuli/mp3/melody_^5_^6_v5_v4_v3_v2_v1_buffer.mp3"
"","1917.799999999348","html-button-response","187","1229452","0.0-19.0-4.2","6323","","<p>Which tone was played fourth after the cadence?</p><p>Please respond as quickly and as accurately as possible!</p>","5","","4","new_stimuli/mp3/melody_^5_^6_v5_v4_v3_v2_v1_buffer.mp3"
"","939.7900000005029","html-button-response","188","1230393","0.0-19.0-5.2","6323","","<p>Which tone was played fifth after the cadence?</p><p>Please respond as quickly and as accurately as possible!</p>","4","","5","new_stimuli/mp3/melody_^5_^6_v5_v4_v3_v2_v1_buffer.mp3"
"","944.390000000596","html-button-response","189","1231339","0.0-19.0-6.2","6323","","<p>Which tone was played sixth after the cadence?</p><p>Please respond as quickly and as accurately as possible!</p>","2","","6","new_stimuli/mp3/melody_^5_^6_v5_v4_v3_v2_v1_buffer.mp3"
"","1117.2799999983981","html-button-response","190","1232457","0.0-19.0-7.2","6323","","<p>Which tone was played seventh after the cadence?</p><p>Please respond as quickly and as accurately as possible!</p>","0","","7","new_stimuli/mp3/melody_^5_^6_v5_v4_v3_v2_v1_buffer.mp3"
"","null","audio-keyboard-response","191","1244423","0.0-19.0-0.3","6323","","new_stimuli/mp3/melody_1_^3_v1_^5_v3_v2_^3_.mp3","","null","",""
"","7077.885000000708","html-button-response","192","1251504","0.0-19.0-1.3","6323","","<p>Which tone was played first after the cadence?</p><p>Please respond as quickly and as accurately as possible!</p>","0","","1","new_stimuli/mp3/melody_1_^3_v1_^5_v3_v2_^3_.mp3"
"","184.90999999991618","html-button-response","193","1251691","0.0-19.0-2.3","6323","","<p>Which tone was played second after the cadence?</p><p>Please respond as quickly and as accurately as possible!</p>","0","","2","new_stimuli/mp3/melody_1_^3_v1_^5_v3_v2_^3_.mp3"
"","3648.690000000177","html-button-response","194","1255342","0.0-19.0-3.3","6323","","<p>Which tone was played third after the cadence?</p><p>Please respond as quickly and as accurately as possible!</p>","0","","3","new_stimuli/mp3/melody_1_^3_v1_^5_v3_v2_^3_.mp3"
"","1555.815000001574","html-button-response","195","1256899","0.0-19.0-4.3","6323","","<p>Which tone was played fourth after the cadence?</p><p>Please respond as quickly and as accurately as possible!</p>","5","","4","new_stimuli/mp3/melody_1_^3_v1_^5_v3_v2_^3_.mp3"
"","1238.4299999994691","html-button-response","196","1258139","0.0-19.0-5.3","6323","","<p>Which tone was played fifth after the cadence?</p><p>Please respond as quickly and as accurately as possible!</p>","4","","5","new_stimuli/mp3/melody_1_^3_v1_^5_v3_v2_^3_.mp3"
"","892.8150000008754","html-button-response","197","1259033","0.0-19.0-6.3","6323","","<p>Which tone was played sixth after the cadence?</p><p>Please respond as quickly and as accurately as possible!</p>","2","","6","new_stimuli/mp3/melody_1_^3_v1_^5_v3_v2_^3_.mp3"
"","1181.0699999986682","html-button-response","198","1260215","0.0-19.0-7.3","6323","","<p>Which tone was played seventh after the cadence?</p><p>Please respond as quickly and as accurately as possible!</p>","4","","7","new_stimuli/mp3/melody_1_^3_v1_^5_v3_v2_^3_.mp3"
"","null","audio-keyboard-response","199","1271913","0.0-19.0-0.4","6323","","new_stimuli/mp3/melody_v1_^2_v1_v7_^1_^3_v2_.mp3","","null","",""
"","990.9200000003912","html-button-response","200","1272907","0.0-19.0-1.4","6323","","<p>Which tone was played first after the cadence?</p><p>Please respond as quickly and as accurately as possible!</p>","0","","1","new_stimuli/mp3/melody_v1_^2_v1_v7_^1_^3_v2_.mp3"
"","1080.3349999985658","html-button-response","201","1273989","0.0-19.0-2.4","6323","","<p>Which tone was played second after the cadence?</p><p>Please respond as quickly and as accurately as possible!</p>","2","","2","new_stimuli/mp3/melody_v1_^2_v1_v7_^1_^3_v2_.mp3"
"","848.7750000003725","html-button-response","202","1274839","0.0-19.0-3.4","6323","","<p>Which tone was played third after the cadence?</p><p>Please respond as quickly and as accurately as possible!</p>","0","","3","new_stimuli/mp3/melody_v1_^2_v1_v7_^1_^3_v2_.mp3"
"","2017.5350000008475","html-button-response","203","1276858","0.0-19.0-4.4","6323","","<p>Which tone was played fourth after the cadence?</p><p>Please respond as quickly and as accurately as possible!</p>","11","","4","new_stimuli/mp3/melody_v1_^2_v1_v7_^1_^3_v2_.mp3"
"","1829.6050000009127","html-button-response","204","1278689","0.0-19.0-5.4","6323","","<p>Which tone was played fifth after the cadence?</p><p>Please respond as quickly and as accurately as possible!</p>","0","","5","new_stimuli/mp3/melody_v1_^2_v1_v7_^1_^3_v2_.mp3"
"","4886.389999999665","html-button-response","205","1283576","0.0-19.0-6.4","6323","","<p>Which tone was played sixth after the cadence?</p><p>Please respond as quickly and as accurately as possible!</p>","4","","6","new_stimuli/mp3/melody_v1_^2_v1_v7_^1_^3_v2_.mp3"
"","1195.0100000014063","html-button-response","206","1284773","0.0-19.0-7.4","6323","","<p>Which tone was played seventh after the cadence?</p><p>Please respond as quickly and as accurately as possible!</p>","2","","7","new_stimuli/mp3/melody_v1_^2_v1_v7_^1_^3_v2_.mp3"
"","null","audio-keyboard-response","207","1296426","0.0-19.0-0.5","6323","","new_stimuli/mp3/melody_^6_v5+_v4_^5+_v3_v1_v7-_.mp3","","null","",""
"","5008.730000001378","html-button-response","208","1301440","0.0-19.0-1.5","6323","","<p>Which tone was played first after the cadence?</p><p>Please respond as quickly and as accurately as possible!</p>","12","","1","new_stimuli/mp3/melody_^6_v5+_v4_^5+_v3_v1_v7-_.mp3"
"","834.340000001248","html-button-response","209","1302276","0.0-19.0-2.5","6323","","<p>Which tone was played second after the cadence?</p><p>Please respond as quickly and as accurately as possible!</p>","11","","2","new_stimuli/mp3/melody_^6_v5+_v4_^5+_v3_v1_v7-_.mp3"
"","1311.2899999998044","html-button-response","210","1303589","0.0-19.0-3.5","6323","","<p>Which tone was played third after the cadence?</p><p>Please respond as quickly and as accurately as possible!</p>","8","","3","new_stimuli/mp3/melody_^6_v5+_v4_^5+_v3_v1_v7-_.mp3"
"","1209.625000001397","html-button-response","211","1304800","0.0-19.0-4.5","6323","","<p>Which tone was played fourth after the cadence?</p><p>Please respond as quickly and as accurately as possible!</p>","11","","4","new_stimuli/mp3/melody_^6_v5+_v4_^5+_v3_v1_v7-_.mp3"
"","2406.950000000652","html-button-response","212","1307208","0.0-19.0-5.5","6323","","<p>Which tone was played fifth after the cadence?</p><p>Please respond as quickly and as accurately as possible!</p>","5","","5","new_stimuli/mp3/melody_^6_v5+_v4_^5+_v3_v1_v7-_.mp3"
"","560.0450000001583","html-button-response","213","1307769","0.0-19.0-6.5","6323","","<p>Which tone was played sixth after the cadence?</p><p>Please respond as quickly and as accurately as possible!</p>","3","","6","new_stimuli/mp3/melody_^6_v5+_v4_^5+_v3_v1_v7-_.mp3"
"","705.350000000326","html-button-response","214","1308476","0.0-19.0-7.5","6323","","<p>Which tone was played seventh after the cadence?</p><p>Please respond as quickly and as accurately as possible!</p>","2","","7","new_stimuli/mp3/melody_^6_v5+_v4_^5+_v3_v1_v7-_.mp3"
"","null","audio-keyboard-response","215","1320176","0.0-19.0-0.6","6323","","new_stimuli/mp3/melody_^1_v7_v6_v5_v4_v3_v2_buffer.mp3","","null","",""
"","1438.0600000002887","html-button-response","216","1321618","0.0-19.0-1.6","6323","","<p>Which tone was played first after the cadence?</p><p>Please respond as quickly and as accurately as possible!</p>","12","","1","new_stimuli/mp3/melody_^1_v7_v6_v5_v4_v3_v2_buffer.mp3"
"","861.8600000008009","html-button-response","217","1322482","0.0-19.0-2.6","6323","","<p>Which tone was played second after the cadence?</p><p>Please respond as quickly and as accurately as possible!</p>","11","","2","new_stimuli/mp3/melody_^1_v7_v6_v5_v4_v3_v2_buffer.mp3"
"","1425.9600000004284","html-button-response","218","1323909","0.0-19.0-3.6","6323","","<p>Which tone was played third after the cadence?</p><p>Please respond as quickly and as accurately as possible!</p>","9","","3","new_stimuli/mp3/melody_^1_v7_v6_v5_v4_v3_v2_buffer.mp3"
"","1671.2700000007171","html-button-response","219","1325582","0.0-19.0-4.6","6323","","<p>Which tone was played fourth after the cadence?</p><p>Please respond as quickly and as accurately as possible!</p>","7","","4","new_stimuli/mp3/melody_^1_v7_v6_v5_v4_v3_v2_buffer.mp3"
"","1180.8700000001118","html-button-response","220","1326764","0.0-19.0-5.6","6323","","<p>Which tone was played fifth after the cadence?</p><p>Please respond as quickly and as accurately as possible!</p>","5","","5","new_stimuli/mp3/melody_^1_v7_v6_v5_v4_v3_v2_buffer.mp3"
"","950.4749999996275","html-button-response","221","1327715","0.0-19.0-6.6","6323","","<p>Which tone was played sixth after the cadence?</p><p>Please respond as quickly and as accurately as possible!</p>","4","","6","new_stimuli/mp3/melody_^1_v7_v6_v5_v4_v3_v2_buffer.mp3"
"","1353.9600000001956","html-button-response","222","1329070","0.0-19.0-7.6","6323","","<p>Which tone was played seventh after the cadence?</p><p>Please respond as quickly and as accurately as possible!</p>","2","","7","new_stimuli/mp3/melody_^1_v7_v6_v5_v4_v3_v2_buffer.mp3"
"[{""page_index"":0,""viewing_time"":4179.959999999497},{""page_index"":1,""viewing_time"":1672.1450000004843},{""page_index"":2,""viewing_time"":922.7399999999907}]","6775.115000000456","instructions","223","1335846","0.0-20.0","6323","","","","","",""
"","null","audio-keyboard-response","224","1348489","0.0-21.0-0.0","6323","","new_stimuli/mp3/melody_v5_v4_v6+_^7_^3+_v3_v2_v5_^4_.mp3","","null","",""
"","2810.975000000326","html-button-response","225","1351303","0.0-21.0-1.0","6323","","<p>Which tone was played first after the cadence?</p><p>Please respond as quickly and as accurately as possible!</p>","7","","1","new_stimuli/mp3/melody_v5_v4_v6+_^7_^3+_v3_v2_v5_^4_.mp3"
"","1137.5749999987893","html-button-response","226","1352442","0.0-21.0-2.0","6323","","<p>Which tone was played second after the cadence?</p><p>Please respond as quickly and as accurately as possible!</p>","5","","2","new_stimuli/mp3/melody_v5_v4_v6+_^7_^3+_v3_v2_v5_^4_.mp3"
"","1281.950000000419","html-button-response","227","1353725","0.0-21.0-3.0","6323","","<p>Which tone was played third after the cadence?</p><p>Please respond as quickly and as accurately as possible!</p>","4","","3","new_stimuli/mp3/melody_v5_v4_v6+_^7_^3+_v3_v2_v5_^4_.mp3"
"","2752.264999999199","html-button-response","228","1356478","0.0-21.0-4.0","6323","","<p>Which tone was played fourth after the cadence?</p><p>Please respond as quickly and as accurately as possible!</p>","7","","4","new_stimuli/mp3/melody_v5_v4_v6+_^7_^3+_v3_v2_v5_^4_.mp3"
"","7870.290000000969","html-button-response","229","1364350","0.0-21.0-5.0","6323","","<p>Which tone was played fifth after the cadence?</p><p>Please respond as quickly and as accurately as possible!</p>","4","","5","new_stimuli/mp3/melody_v5_v4_v6+_^7_^3+_v3_v2_v5_^4_.mp3"
"","1181.1899999992456","html-button-response","230","1365532","0.0-21.0-6.0","6323","","<p>Which tone was played sixth after the cadence?</p><p>Please respond as quickly and as accurately as possible!</p>","3","","6","new_stimuli/mp3/melody_v5_v4_v6+_^7_^3+_v3_v2_v5_^4_.mp3"
"","4165.054999999469","html-button-response","231","1369699","0.0-21.0-7.0","6323","","<p>Which tone was played seventh after the cadence?</p><p>Please respond as quickly and as accurately as possible!</p>","0","","7","new_stimuli/mp3/melody_v5_v4_v6+_^7_^3+_v3_v2_v5_^4_.mp3"
"","2045.369999999879","html-button-response","232","1371746","0.0-21.0-8.0","6323","","<p>Which tone was played eight after the cadence?</p><p>Please respond as quickly and as accurately as possible!</p>","7","","8","new_stimuli/mp3/melody_v5_v4_v6+_^7_^3+_v3_v2_v5_^4_.mp3"
"","2305.490000000689","html-button-response","233","1374052","0.0-21.0-9.0","6323","","<p>Which tone was played nineth after the cadence?</p><p>Please respond as quickly and as accurately as possible!</p>","8","","9","new_stimuli/mp3/melody_v5_v4_v6+_^7_^3+_v3_v2_v5_^4_.mp3"
"","null","audio-keyboard-response","234","1386696","0.0-21.0-0.1","6323","","new_stimuli/mp3/melody_^3_^4_v2_v7_^1_^2_^3_3_^4_.mp3","","null","",""
"","2053.939999999944","html-button-response","235","1388754","0.0-21.0-1.1","6323","","<p>Which tone was played first after the cadence?</p><p>Please respond as quickly and as accurately as possible!</p>","2","","1","new_stimuli/mp3/melody_^3_^4_v2_v7_^1_^2_^3_3_^4_.mp3"
"","847.4000000006054","html-button-response","236","1389603","0.0-21.0-2.1","6323","","<p>Which tone was played second after the cadence?</p><p>Please respond as quickly and as accurately as possible!</p>","4","","2","new_stimuli/mp3/melody_^3_^4_v2_v7_^1_^2_^3_3_^4_.mp3"
"","905.8800000003539","html-button-response","237","1390511","0.0-21.0-3.1","6323","","<p>Which tone was played third after the cadence?</p><p>Please respond as quickly and as accurately as possible!</p>","2","","3","new_stimuli/mp3/melody_^3_^4_v2_v7_^1_^2_^3_3_^4_.mp3"
"","1253.1199999994133","html-button-response","238","1391765","0.0-21.0-4.1","6323","","<p>Which tone was played fourth after the cadence?</p><p>Please respond as quickly and as accurately as possible!</p>","11","","4","new_stimuli/mp3/melody_^3_^4_v2_v7_^1_^2_^3_3_^4_.mp3"
"","1555.7349999998696","html-button-response","239","1393322","0.0-21.0-5.1","6323","","<p>Which tone was played fifth after the cadence?</p><p>Please respond as quickly and as accurately as possible!</p>","0","","5","new_stimuli/mp3/melody_^3_^4_v2_v7_^1_^2_^3_3_^4_.mp3"
"","1354.3499999996275","html-button-response","240","1394677","0.0-21.0-6.1","6323","","<p>Which tone was played sixth after the cadence?</p><p>Please respond as quickly and as accurately as possible!</p>","2","","6","new_stimuli/mp3/melody_^3_^4_v2_v7_^1_^2_^3_3_^4_.mp3"
"","1021.1249999993015","html-button-response","241","1395701","0.0-21.0-7.1","6323","","<p>Which tone was played seventh after the cadence?</p><p>Please respond as quickly and as accurately as possible!</p>","4","","7","new_stimuli/mp3/melody_^3_^4_v2_v7_^1_^2_^3_3_^4_.mp3"
"","719.7500000002328","html-button-response","242","1396422","0.0-21.0-8.1","6323","","<p>Which tone was played eight after the cadence?</p><p>Please respond as quickly and as accurately as possible!</p>","4","","8","new_stimuli/mp3/melody_^3_^4_v2_v7_^1_^2_^3_3_^4_.mp3"
"","878.2399999999907","html-button-response","243","1397301","0.0-21.0-9.1","6323","","<p>Which tone was played nineth after the cadence?</p><p>Please respond as quickly and as accurately as possible!</p>","5","","9","new_stimuli/mp3/melody_^3_^4_v2_v7_^1_^2_^3_3_^4_.mp3"
"","null","audio-keyboard-response","244","1410264","0.0-21.0-0.2","6323","","new_stimuli/mp3/melody_^5_^6_v5_v4_v3_v2_v1_^2_^3_buffer.mp3","","null","",""
"","1594.300000000745","html-button-response","245","1411861","0.0-21.0-1.2","6323","","<p>Which tone was played first after the cadence?</p><p>Please respond as quickly and as accurately as possible!</p>","7","","1","new_stimuli/mp3/melody_^5_^6_v5_v4_v3_v2_v1_^2_^3_buffer.mp3"
"","1310.7700000000186","html-button-response","246","1413173","0.0-21.0-2.2","6323","","<p>Which tone was played second after the cadence?</p><p>Please respond as quickly and as accurately as possible!</p>","9","","2","new_stimuli/mp3/melody_^5_^6_v5_v4_v3_v2_v1_^2_^3_buffer.mp3"
"","921.350000000326","html-button-response","247","1414096","0.0-21.0-3.2","6323","","<p>Which tone was played third after the cadence?</p><p>Please respond as quickly and as accurately as possible!</p>","7","","3","new_stimuli/mp3/melody_^5_^6_v5_v4_v3_v2_v1_^2_^3_buffer.mp3"
"","935.8899999989662","html-button-response","248","1415033","0.0-21.0-4.2","6323","","<p>Which tone was played fourth after the cadence?</p><p>Please respond as quickly and as accurately as possible!</p>","5","","4","new_stimuli/mp3/melody_^5_^6_v5_v4_v3_v2_v1_^2_^3_buffer.mp3"
"","1008.2550000005867","html-button-response","249","1416042","0.0-21.0-5.2","6323","","<p>Which tone was played fifth after the cadence?</p><p>Please respond as quickly and as accurately as possible!</p>","4","","5","new_stimuli/mp3/melody_^5_^6_v5_v4_v3_v2_v1_^2_^3_buffer.mp3"
"","1238.265000001993","html-button-response","250","1417282","0.0-21.0-6.2","6323","","<p>Which tone was played sixth after the cadence?</p><p>Please respond as quickly and as accurately as possible!</p>","2","","6","new_stimuli/mp3/melody_^5_^6_v5_v4_v3_v2_v1_^2_^3_buffer.mp3"
"","1181.290000000503","html-button-response","251","1418464","0.0-21.0-7.2","6323","","<p>Which tone was played seventh after the cadence?</p><p>Please respond as quickly and as accurately as possible!</p>","0","","7","new_stimuli/mp3/melody_^5_^6_v5_v4_v3_v2_v1_^2_^3_buffer.mp3"
"","1051.410000000149","html-button-response","252","1419517","0.0-21.0-8.2","6323","","<p>Which tone was played eight after the cadence?</p><p>Please respond as quickly and as accurately as possible!</p>","2","","8","new_stimuli/mp3/melody_^5_^6_v5_v4_v3_v2_v1_^2_^3_buffer.mp3"
"","1396.6350000009406","html-button-response","253","1420915","0.0-21.0-9.2","6323","","<p>Which tone was played nineth after the cadence?</p><p>Please respond as quickly and as accurately as possible!</p>","4","","9","new_stimuli/mp3/melody_^5_^6_v5_v4_v3_v2_v1_^2_^3_buffer.mp3"
"","null","audio-keyboard-response","254","1433842","0.0-21.0-0.3","6323","","new_stimuli/mp3/melody_^2_^4_v3_v2_v1_v3_v2+_^3_^5+_.mp3","","null","",""
"","1709.6149999997579","html-button-response","255","1435555","0.0-21.0-1.3","6323","","<p>Which tone was played first after the cadence?</p><p>Please respond as quickly and as accurately as possible!</p>","2","","1","new_stimuli/mp3/melody_^2_^4_v3_v2_v1_v3_v2+_^3_^5+_.mp3"
"","1283.1450000014156","html-button-response","256","1436840","0.0-21.0-2.3","6323","","<p>Which tone was played second after the cadence?</p><p>Please respond as quickly and as accurately as possible!</p>","7","","2","new_stimuli/mp3/melody_^2_^4_v3_v2_v1_v3_v2+_^3_^5+_.mp3"
"","1698.6050000013784","html-button-response","257","1438540","0.0-21.0-3.3","6323","","<p>Which tone was played third after the cadence?</p><p>Please respond as quickly and as accurately as possible!</p>","5","","3","new_stimuli/mp3/melody_^2_^4_v3_v2_v1_v3_v2+_^3_^5+_.mp3"
"","936.0100000014063","html-button-response","258","1439477","0.0-21.0-4.3","6323","","<p>Which tone was played fourth after the cadence?</p><p>Please respond as quickly and as accurately as possible!</p>","4","","4","new_stimuli/mp3/melody_^2_^4_v3_v2_v1_v3_v2+_^3_^5+_.mp3"
"","1239.8350000001956","html-button-response","259","1440718","0.0-21.0-5.3","6323","","<p>Which tone was played fifth after the cadence?</p><p>Please respond as quickly and as accurately as possible!</p>","5","","5","new_stimuli/mp3/melody_^2_^4_v3_v2_v1_v3_v2+_^3_^5+_.mp3"
"","2260.8650000002235","html-button-response","260","1442981","0.0-21.0-6.3","6323","","<p>Which tone was played sixth after the cadence?</p><p>Please respond as quickly and as accurately as possible!</p>","9","","6","new_stimuli/mp3/melody_^2_^4_v3_v2_v1_v3_v2+_^3_^5+_.mp3"
"","964.3250000008848","html-button-response","261","1443946","0.0-21.0-7.3","6323","","<p>Which tone was played seventh after the cadence?</p><p>Please respond as quickly and as accurately as possible!</p>","8","","7","new_stimuli/mp3/melody_^2_^4_v3_v2_v1_v3_v2+_^3_^5+_.mp3"
"","1916.1550000007264","html-button-response","262","1445864","0.0-21.0-8.3","6323","","<p>Which tone was played eight after the cadence?</p><p>Please respond as quickly and as accurately as possible!</p>","9","","8","new_stimuli/mp3/melody_^2_^4_v3_v2_v1_v3_v2+_^3_^5+_.mp3"
"","1555.7950000001583","html-button-response","263","1447421","0.0-21.0-9.3","6323","","<p>Which tone was played nineth after the cadence?</p><p>Please respond as quickly and as accurately as possible!</p>","11","","9","new_stimuli/mp3/melody_^2_^4_v3_v2_v1_v3_v2+_^3_^5+_.mp3"
"","null","audio-keyboard-response","264","1460112","0.0-21.0-0.4","6323","","new_stimuli/mp3/melody_^2_^3_^4_^5_^6_v5_v4_v3_v2_buffer.mp3","","null","",""
"","3417.1200000001118","html-button-response","265","1463532","0.0-21.0-1.4","6323","","<p>Which tone was played first after the cadence?</p><p>Please respond as quickly and as accurately as possible!</p>","2","","1","new_stimuli/mp3/melody_^2_^3_^4_^5_^6_v5_v4_v3_v2_buffer.mp3"
"","979.0750000011176","html-button-response","266","1464512","0.0-21.0-2.4","6323","","<p>Which tone was played second after the cadence?</p><p>Please respond as quickly and as accurately as possible!</p>","4","","2","new_stimuli/mp3/melody_^2_^3_^4_^5_^6_v5_v4_v3_v2_buffer.mp3"
"","1397.4899999992922","html-button-response","267","1465911","0.0-21.0-3.4","6323","","<p>Which tone was played third after the cadence?</p><p>Please respond as quickly and as accurately as possible!</p>","5","","3","new_stimuli/mp3/melody_^2_^3_^4_^5_^6_v5_v4_v3_v2_buffer.mp3"
"","949.6900000011083","html-button-response","268","1466862","0.0-21.0-4.4","6323","","<p>Which tone was played fourth after the cadence?</p><p>Please respond as quickly and as accurately as possible!</p>","7","","4","new_stimuli/mp3/melody_^2_^3_^4_^5_^6_v5_v4_v3_v2_buffer.mp3"
"","1685.9299999994691","html-button-response","269","1468549","0.0-21.0-5.4","6323","","<p>Which tone was played fifth after the cadence?</p><p>Please respond as quickly and as accurately as possible!</p>","9","","5","new_stimuli/mp3/melody_^2_^3_^4_^5_^6_v5_v4_v3_v2_buffer.mp3"
"","965.8250000011176","html-button-response","270","1469516","0.0-21.0-6.4","6323","","<p>Which tone was played sixth after the cadence?</p><p>Please respond as quickly and as accurately as possible!</p>","7","","6","new_stimuli/mp3/melody_^2_^3_^4_^5_^6_v5_v4_v3_v2_buffer.mp3"
"","905.8000000002794","html-button-response","271","1470424","0.0-21.0-7.4","6323","","<p>Which tone was played seventh after the cadence?</p><p>Please respond as quickly and as accurately as possible!</p>","5","","7","new_stimuli/mp3/melody_^2_^3_^4_^5_^6_v5_v4_v3_v2_buffer.mp3"
"","905.9599999999627","html-button-response","272","1471332","0.0-21.0-8.4","6323","","<p>Which tone was played eight after the cadence?</p><p>Please respond as quickly and as accurately as possible!</p>","4","","8","new_stimuli/mp3/melody_^2_^3_^4_^5_^6_v5_v4_v3_v2_buffer.mp3"
"","1224.1450000000186","html-button-response","273","1472557","0.0-21.0-9.4","6323","","<p>Which tone was played nineth after the cadence?</p><p>Please respond as quickly and as accurately as possible!</p>","2","","9","new_stimuli/mp3/melody_^2_^3_^4_^5_^6_v5_v4_v3_v2_buffer.mp3"
"","null","audio-keyboard-response","274","1485204","0.0-21.0-0.5","6323","","new_stimuli/mp3/melody_v7_v6_v5_^6_v5_v4_^5_^6_v5_.mp3","","null","",""
"","2861.360000000801","html-button-response","275","1488069","0.0-21.0-1.5","6323","","<p>Which tone was played first after the cadence?</p><p>Please respond as quickly and as accurately as possible!</p>","11","","1","new_stimuli/mp3/melody_v7_v6_v5_^6_v5_v4_^5_^6_v5_.mp3"
"","2321.090000001248","html-button-response","276","1490391","0.0-21.0-2.5","6323","","<p>Which tone was played second after the cadence?</p><p>Please respond as quickly and as accurately as possible!</p>","9","","2","new_stimuli/mp3/melody_v7_v6_v5_^6_v5_v4_^5_^6_v5_.mp3"
"","949.3149999999441","html-button-response","277","1491342","0.0-21.0-3.5","6323","","<p>Which tone was played third after the cadence?</p><p>Please respond as quickly and as accurately as possible!</p>","7","","3","new_stimuli/mp3/melody_v7_v6_v5_^6_v5_v4_^5_^6_v5_.mp3"
"","1988.370000001043","html-button-response","278","1493331","0.0-21.0-4.5","6323","","<p>Which tone was played fourth after the cadence?</p><p>Please respond as quickly and as accurately as possible!</p>","5","","4","new_stimuli/mp3/melody_v7_v6_v5_^6_v5_v4_^5_^6_v5_.mp3"
"","1526.9800000006799","html-button-response","279","1494860","0.0-21.0-5.5","6323","","<p>Which tone was played fifth after the cadence?</p><p>Please respond as quickly and as accurately as possible!</p>","7","","5","new_stimuli/mp3/melody_v7_v6_v5_^6_v5_v4_^5_^6_v5_.mp3"
"","1844.5249999987427","html-button-response","280","1496706","0.0-21.0-6.5","6323","","<p>Which tone was played sixth after the cadence?</p><p>Please respond as quickly and as accurately as possible!</p>","9","","6","new_stimuli/mp3/melody_v7_v6_v5_^6_v5_v4_^5_^6_v5_.mp3"
"","1137.2749999992084","html-button-response","281","1497844","0.0-21.0-7.5","6323","","<p>Which tone was played seventh after the cadence?</p><p>Please respond as quickly and as accurately as possible!</p>","7","","7","new_stimuli/mp3/melody_v7_v6_v5_^6_v5_v4_^5_^6_v5_.mp3"
"","3242.5499999988824","html-button-response","282","1501088","0.0-21.0-8.5","6323","","<p>Which tone was played eight after the cadence?</p><p>Please respond as quickly and as accurately as possible!</p>","7","","8","new_stimuli/mp3/melody_v7_v6_v5_^6_v5_v4_^5_^6_v5_.mp3"
"","185.9199999999255","html-button-response","283","1501275","0.0-21.0-9.5","6323","","<p>Which tone was played nineth after the cadence?</p><p>Please respond as quickly and as accurately as possible!</p>","7","","9","new_stimuli/mp3/melody_v7_v6_v5_^6_v5_v4_^5_^6_v5_.mp3"
"","null","audio-keyboard-response","284","1513841","0.0-21.0-0.6","6323","","new_stimuli/mp3/melody_^3_^4_^5 _^6_v5_v4_v3_v2_v1_.mp3","","null","",""
"","4148.484999999637","html-button-response","285","1517991","0.0-21.0-1.6","6323","","<p>Which tone was played first after the cadence?</p><p>Please respond as quickly and as accurately as possible!</p>","4","","1","new_stimuli/mp3/melody_^3_^4_^5 _^6_v5_v4_v3_v2_v1_.mp3"
"","1267.3700000015087","html-button-response","286","1519260","0.0-21.0-2.6","6323","","<p>Which tone was played second after the cadence?</p><p>Please respond as quickly and as accurately as possible!</p>","5","","2","new_stimuli/mp3/melody_^3_^4_^5 _^6_v5_v4_v3_v2_v1_.mp3"
"","1454.8850000009406","html-button-response","287","1520716","0.0-21.0-3.6","6323","","<p>Which tone was played third after the cadence?</p><p>Please respond as quickly and as accurately as possible!</p>","7","","3","new_stimuli/mp3/melody_^3_^4_^5 _^6_v5_v4_v3_v2_v1_.mp3"
"","1065.094999999972","html-button-response","288","1521782","0.0-21.0-4.6","6323","","<p>Which tone was played fourth after the cadence?</p><p>Please respond as quickly and as accurately as possible!</p>","9","","4","new_stimuli/mp3/melody_^3_^4_^5 _^6_v5_v4_v3_v2_v1_.mp3"
"","852.984999999404","html-button-response","289","1522637","0.0-21.0-5.6","6323","","<p>Which tone was played fifth after the cadence?</p><p>Please respond as quickly and as accurately as possible!</p>","7","","5","new_stimuli/mp3/melody_^3_^4_^5 _^6_v5_v4_v3_v2_v1_.mp3"
"","943.644999999553","html-button-response","290","1523582","0.0-21.0-6.6","6323","","<p>Which tone was played sixth after the cadence?</p><p>Please respond as quickly and as accurately as possible!</p>","5","","6","new_stimuli/mp3/melody_^3_^4_^5 _^6_v5_v4_v3_v2_v1_.mp3"
"","2061.8650000013877","html-button-response","291","1525645","0.0-21.0-7.6","6323","","<p>Which tone was played seventh after the cadence?</p><p>Please respond as quickly and as accurately as possible!</p>","4","","7","new_stimuli/mp3/melody_^3_^4_^5 _^6_v5_v4_v3_v2_v1_.mp3"
"","1190.9350000005215","html-button-response","292","1526838","0.0-21.0-8.6","6323","","<p>Which tone was played eight after the cadence?</p><p>Please respond as quickly and as accurately as possible!</p>","2","","8","new_stimuli/mp3/melody_^3_^4_^5 _^6_v5_v4_v3_v2_v1_.mp3"
"","1222.2000000001863","html-button-response","293","1528061","0.0-21.0-9.6","6323","","<p>Which tone was played nineth after the cadence?</p><p>Please respond as quickly and as accurately as possible!</p>","0","","9","new_stimuli/mp3/melody_^3_^4_^5 _^6_v5_v4_v3_v2_v1_.mp3"
"","22755.805000000633","survey-text","294","1550818","0.0-22.0","6323","{""Q0"":""Humming along with the cadence, and humming Do throughout the melody""}","","","","",""
"","4968.215000000782","survey-text","295","1555787","0.0-23.0","6323","{""Q0"":""n/a""}","","","","",""
"","4675.360000001034","survey-text","296","1560463","0.0-24.0","6323","{""Q0"":""nope""}","","","","",""
"","7612.140000001062","survey-text","297","1568077","0.0-25.0","6323","{""Q0"":""computer speakers""}","","","","",""
"","2969.814999998547","survey-text","298","1571047","0.0-26.0","6323","{""Q0"":""male""}","","","","",""
"","3020.420000000624","survey-text","299","1574069","0.0-27.0","6323","{""Q0"":""yes""}","","","","",""
"[{""page_index"":0,""viewing_time"":6552.240000000922}]","6552.504999999655","instructions","300","1580622","0.0-28.0","6323","","","","","",""
