"view_history","rt","trial_type","trial_index","time_elapsed","internal_node_id","subject","responses","stimulus","button_pressed","key_press","response_sequence","melody"
"[{""page_index"":0,""viewing_time"":3773},{""page_index"":1,""viewing_time"":6319},{""page_index"":2,""viewing_time"":2126}]","12219","instructions","0","12236","0.0-0.0","66961","","","","","",""
"","2813","survey-text","1","15051","0.0-1.0","66961","{""Q0"":""26""}","","","","",""
"","18481","survey-text","2","33535","0.0-2.0","66961","{""Q0"":""Associates""}","","","","",""
"","11193","survey-text","3","44729","0.0-3.0","66961","{""Q0"":""Moveable Do""}","","","","",""
"","4899","survey-text","4","49630","0.0-4.0","66961","{""Q0"":""no""}","","","","",""
"","9619","survey-text","5","59249","0.0-5.0","66961","{""Q0"":""90 weeks""}","","","","",""
"","7745","survey-text","6","66996","0.0-6.0","66961","{""Q0"":""0""}","","","","",""
"[{""page_index"":0,""viewing_time"":3354},{""page_index"":1,""viewing_time"":13019},{""page_index"":2,""viewing_time"":2814}]","19187","instructions","7","86183","0.0-7.0","66961","","","","","",""
"","9651","audio-button-response","8","95838","0.0-8.0","66961","","stimuli/long/c-do.mp3","0","","",""
"","10635","audio-button-response","9","106476","0.0-9.0","66961","","stimuli/long/a-le.mp3","8","","",""
"[{""page_index"":0,""viewing_time"":20529},{""page_index"":1,""viewing_time"":358284}]","378813","instructions","10","485290","0.0-10.0","66961","","","","","",""
"","8159","audio-button-response","11","493451","0.0-11.0-0.0","66961","","stimuli/long/e-do.mp3","0","","",""
"","9413","audio-button-response","12","502866","0.0-11.0-0.1","66961","","stimuli/long/a-sol.mp3","7","","",""
"","null","audio-button-response","13","522867","0.0-11.0-0.2","66961","","stimuli/long/c-ra.mp3","null","","",""
"","15332","audio-button-response","14","538200","0.0-11.0-0.3","66961","","stimuli/long/c-fa.mp3","3","","",""
"","19904","audio-button-response","15","558104","0.0-11.0-0.4","66961","","stimuli/long/c-le.mp3","5","","",""
"","15520","audio-button-response","16","573626","0.0-11.0-0.5","66961","","stimuli/long/e-fa.mp3","5","","",""
"","null","audio-button-response","17","593628","0.0-11.0-0.6","66961","","stimuli/long/c-ti.mp3","null","","",""
"","10334","audio-button-response","18","603963","0.0-11.0-0.7","66961","","stimuli/long/e-te.mp3","10","","",""
"","16491","audio-button-response","19","620455","0.0-11.0-0.8","66961","","stimuli/long/c-la.mp3","9","","",""
"","11627","audio-button-response","20","632084","0.0-11.0-0.9","66961","","stimuli/long/a-ti.mp3","6","","",""
"","11087","audio-button-response","21","643172","0.0-11.0-0.10","66961","","stimuli/long/e-ra.mp3","1","","",""
"","14551","audio-button-response","22","657726","0.0-11.0-0.11","66961","","stimuli/long/e-me.mp3","5","","",""
"","7790","audio-button-response","23","665518","0.0-11.0-0.12","66961","","stimuli/long/a-do.mp3","0","","",""
"","15685","audio-button-response","24","681204","0.0-11.0-0.13","66961","","stimuli/long/a-me.mp3","10","","",""
"","11070","audio-button-response","25","692274","0.0-11.0-0.14","66961","","stimuli/long/c-mi.mp3","7","","",""
"","9316","audio-button-response","26","701592","0.0-11.0-0.15","66961","","stimuli/long/a-re.mp3","2","","",""
"","13985","audio-button-response","27","715577","0.0-11.0-0.16","66961","","stimuli/long/e-fi.mp3","6","","",""
"","11801","audio-button-response","28","727380","0.0-11.0-0.17","66961","","stimuli/long/e-la.mp3","5","","",""
"","7473","audio-button-response","29","734855","0.0-11.0-0.18","66961","","stimuli/long/c-do.mp3","0","","",""
"","8018","audio-button-response","30","742873","0.0-11.0-0.19","66961","","stimuli/long/a-do8.mp3","12","","",""
"","15005","audio-button-response","31","757879","0.0-11.0-0.20","66961","","stimuli/long/c-me.mp3","2","","",""
"","null","audio-button-response","32","777880","0.0-11.0-0.21","66961","","stimuli/long/e-ti.mp3","null","","",""
"","8559","audio-button-response","33","786438","0.0-11.0-0.22","66961","","stimuli/long/a-ra.mp3","1","","",""
"","12627","audio-button-response","34","799066","0.0-11.0-0.23","66961","","stimuli/long/a-le.mp3","2","","",""
"","9337","audio-button-response","35","808405","0.0-11.0-0.24","66961","","stimuli/long/c-sol.mp3","7","","",""
"","12278","audio-button-response","36","820684","0.0-11.0-0.25","66961","","stimuli/long/e-re.mp3","5","","",""
"","11186","audio-button-response","37","831870","0.0-11.0-0.26","66961","","stimuli/long/a-te.mp3","8","","",""
"","15935","audio-button-response","38","847807","0.0-11.0-0.27","66961","","stimuli/long/a-fi.mp3","10","","",""
"","9211","audio-button-response","39","857020","0.0-11.0-0.28","66961","","stimuli/long/e-sol.mp3","7","","",""
"","11317","audio-button-response","40","868338","0.0-11.0-0.29","66961","","stimuli/long/a-mi.mp3","4","","",""
"","16943","audio-button-response","41","885283","0.0-11.0-0.30","66961","","stimuli/long/e-le.mp3","9","","",""
"","7273","audio-button-response","42","892557","0.0-11.0-0.31","66961","","stimuli/long/e-do8.mp3","12","","",""
"","10891","audio-button-response","43","903449","0.0-11.0-0.32","66961","","stimuli/long/e-mi.mp3","4","","",""
"","12656","audio-button-response","44","916106","0.0-11.0-0.33","66961","","stimuli/long/a-la.mp3","5","","",""
"","7244","audio-button-response","45","923351","0.0-11.0-0.34","66961","","stimuli/long/c-do8.mp3","12","","",""
"","8431","audio-button-response","46","931784","0.0-11.0-0.35","66961","","stimuli/long/c-re.mp3","2","","",""
"","8858","audio-button-response","47","940643","0.0-11.0-0.36","66961","","stimuli/long/a-fa.mp3","5","","",""
"","9679","audio-button-response","48","950322","0.0-11.0-0.37","66961","","stimuli/long/c-fi.mp3","6","","",""
"[{""page_index"":0,""viewing_time"":12512},{""page_index"":1,""viewing_time"":1265}]","13778","instructions","49","964102","0.0-12.0","66961","","","","","",""
"","null","audio-keyboard-response","50","973169","0.0-13.0-0.0","66961","","new_stimuli/mp3/melody_v2_v1_.mp3","","null","",""
"","3100","html-button-response","51","976270","0.0-13.0-1.0","66961","","<p>Which tone was played first after the cadence?</p><p>Please respond as quickly and as accurately as possible!</p>","2","","1","new_stimuli/mp3/melody_v2_v1_.mp3"
"","1167","html-button-response","52","977437","0.0-13.0-2.0","66961","","<p>Which tone was played second after the cadence?</p><p>Please respond as quickly and as accurately as possible!</p>","0","","2","new_stimuli/mp3/melody_v2_v1_.mp3"
"","null","audio-keyboard-response","53","986598","0.0-13.0-0.1","66961","","new_stimuli/mp3/melody_v5_v1+_.mp3","","null","",""
"","2450","html-button-response","54","989051","0.0-13.0-1.1","66961","","<p>Which tone was played first after the cadence?</p><p>Please respond as quickly and as accurately as possible!</p>","5","","1","new_stimuli/mp3/melody_v5_v1+_.mp3"
"","791","html-button-response","55","989844","0.0-13.0-2.1","66961","","<p>Which tone was played second after the cadence?</p><p>Please respond as quickly and as accurately as possible!</p>","1","","2","new_stimuli/mp3/melody_v5_v1+_.mp3"
"","null","audio-keyboard-response","56","999009","0.0-13.0-0.2","66961","","new_stimuli/mp3/melody_^5_^1+_.mp3","","null","",""
"","2172","html-button-response","57","1001183","0.0-13.0-1.2","66961","","<p>Which tone was played first after the cadence?</p><p>Please respond as quickly and as accurately as possible!</p>","7","","1","new_stimuli/mp3/melody_^5_^1+_.mp3"
"","1633","html-button-response","58","1002818","0.0-13.0-2.2","66961","","<p>Which tone was played second after the cadence?</p><p>Please respond as quickly and as accurately as possible!</p>","1","","2","new_stimuli/mp3/melody_^5_^1+_.mp3"
"","null","audio-keyboard-response","59","1012278","0.0-13.0-0.3","66961","","new_stimuli/mp3/melody_^3_v4+_buffer.mp3","","null","",""
"","9481","html-button-response","60","1021761","0.0-13.0-1.3","66961","","<p>Which tone was played first after the cadence?</p><p>Please respond as quickly and as accurately as possible!</p>","11","","1","new_stimuli/mp3/melody_^3_v4+_buffer.mp3"
"","7137","html-button-response","61","1028897","0.0-13.0-2.3","66961","","<p>Which tone was played second after the cadence?</p><p>Please respond as quickly and as accurately as possible!</p>","3","","2","new_stimuli/mp3/melody_^3_v4+_buffer.mp3"
"","null","audio-keyboard-response","62","1037919","0.0-13.0-0.4","66961","","new_stimuli/mp3/melody_^1_^2+_.mp3","","null","",""
"","5744","html-button-response","63","1043665","0.0-13.0-1.4","66961","","<p>Which tone was played first after the cadence?</p><p>Please respond as quickly and as accurately as possible!</p>","0","","1","new_stimuli/mp3/melody_^1_^2+_.mp3"
"","2765","html-button-response","64","1046432","0.0-13.0-2.4","66961","","<p>Which tone was played second after the cadence?</p><p>Please respond as quickly and as accurately as possible!</p>","3","","2","new_stimuli/mp3/melody_^1_^2+_.mp3"
"","null","audio-keyboard-response","65","1055629","0.0-13.0-0.5","66961","","new_stimuli/mp3/melody_v3_v2_buffer.mp3","","null","",""
"","1096","html-button-response","66","1056725","0.0-13.0-1.5","66961","","<p>Which tone was played first after the cadence?</p><p>Please respond as quickly and as accurately as possible!</p>","4","","1","new_stimuli/mp3/melody_v3_v2_buffer.mp3"
"","895","html-button-response","67","1057622","0.0-13.0-2.5","66961","","<p>Which tone was played second after the cadence?</p><p>Please respond as quickly and as accurately as possible!</p>","2","","2","new_stimuli/mp3/melody_v3_v2_buffer.mp3"
"","null","audio-keyboard-response","68","1066788","0.0-13.0-0.6","66961","","new_stimuli/mp3/melody_^2_v7-_.mp3","","null","",""
"","1843","html-button-response","69","1068632","0.0-13.0-1.6","66961","","<p>Which tone was played first after the cadence?</p><p>Please respond as quickly and as accurately as possible!</p>","2","","1","new_stimuli/mp3/melody_^2_v7-_.mp3"
"","967","html-button-response","70","1069600","0.0-13.0-2.6","66961","","<p>Which tone was played second after the cadence?</p><p>Please respond as quickly and as accurately as possible!</p>","10","","2","new_stimuli/mp3/melody_^2_v7-_.mp3"
"","null","audio-keyboard-response","71","1079058","0.0-13.0-0.7","66961","","new_stimuli/mp3/melody_v7_v3_buffer.mp3","","null","",""
"","3852","html-button-response","72","1082910","0.0-13.0-1.7","66961","","<p>Which tone was played first after the cadence?</p><p>Please respond as quickly and as accurately as possible!</p>","11","","1","new_stimuli/mp3/melody_v7_v3_buffer.mp3"
"","1029","html-button-response","73","1083941","0.0-13.0-2.7","66961","","<p>Which tone was played second after the cadence?</p><p>Please respond as quickly and as accurately as possible!</p>","7","","2","new_stimuli/mp3/melody_v7_v3_buffer.mp3"
"","null","audio-keyboard-response","74","1093367","0.0-13.0-0.8","66961","","new_stimuli/mp3/melody_v4_v3_buffer.mp3","","null","",""
"","1275","html-button-response","75","1094643","0.0-13.0-1.8","66961","","<p>Which tone was played first after the cadence?</p><p>Please respond as quickly and as accurately as possible!</p>","5","","1","new_stimuli/mp3/melody_v4_v3_buffer.mp3"
"","745","html-button-response","76","1095390","0.0-13.0-2.8","66961","","<p>Which tone was played second after the cadence?</p><p>Please respond as quickly and as accurately as possible!</p>","4","","2","new_stimuli/mp3/melody_v4_v3_buffer.mp3"
"","null","audio-keyboard-response","77","1104688","0.0-13.0-0.9","66961","","new_stimuli/mp3/melody_3_^6_buffer.mp3","","null","",""
"","5667","html-button-response","78","1110355","0.0-13.0-1.9","66961","","<p>Which tone was played first after the cadence?</p><p>Please respond as quickly and as accurately as possible!</p>","5","","1","new_stimuli/mp3/melody_3_^6_buffer.mp3"
"","860","html-button-response","79","1111218","0.0-13.0-2.9","66961","","<p>Which tone was played second after the cadence?</p><p>Please respond as quickly and as accurately as possible!</p>","10","","2","new_stimuli/mp3/melody_3_^6_buffer.mp3"
"[{""page_index"":0,""viewing_time"":8190},{""page_index"":1,""viewing_time"":2903},{""page_index"":2,""viewing_time"":1288}]","12381","instructions","80","1123599","0.0-14.0","66961","","","","","",""
"","null","audio-keyboard-response","81","1133238","0.0-15.0-0.0","66961","","new_stimuli/mp3/melody_6_^1_v5_.mp3","","null","",""
"","3196","html-button-response","82","1136435","0.0-15.0-1.0","66961","","<p>Which tone was played first after the cadence?</p><p>Please respond as quickly and as accurately as possible!</p>","9","","1","new_stimuli/mp3/melody_6_^1_v5_.mp3"
"","2079","html-button-response","83","1138515","0.0-15.0-2.0","66961","","<p>Which tone was played second after the cadence?</p><p>Please respond as quickly and as accurately as possible!</p>","12","","2","new_stimuli/mp3/melody_6_^1_v5_.mp3"
"","2295","html-button-response","84","1140811","0.0-15.0-3.0","66961","","<p>Which tone was played third after the cadence?</p><p>Please respond as quickly and as accurately as possible!</p>","7","","3","new_stimuli/mp3/melody_6_^1_v5_.mp3"
"","null","audio-keyboard-response","85","1150488","0.0-15.0-0.1","66961","","new_stimuli/mp3/melody_v4_v3_v2_buffer.mp3","","null","",""
"","1291","html-button-response","86","1151779","0.0-15.0-1.1","66961","","<p>Which tone was played first after the cadence?</p><p>Please respond as quickly and as accurately as possible!</p>","5","","1","new_stimuli/mp3/melody_v4_v3_v2_buffer.mp3"
"","672","html-button-response","87","1152453","0.0-15.0-2.1","66961","","<p>Which tone was played second after the cadence?</p><p>Please respond as quickly and as accurately as possible!</p>","4","","2","new_stimuli/mp3/melody_v4_v3_v2_buffer.mp3"
"","830","html-button-response","88","1153285","0.0-15.0-3.1","66961","","<p>Which tone was played third after the cadence?</p><p>Please respond as quickly and as accurately as possible!</p>","2","","3","new_stimuli/mp3/melody_v4_v3_v2_buffer.mp3"
"","null","audio-keyboard-response","89","1162838","0.0-15.0-0.2","66961","","new_stimuli/mp3/melody_v1_v7-_^7_.mp3","","null","",""
"","2990","html-button-response","90","1165829","0.0-15.0-1.2","66961","","<p>Which tone was played first after the cadence?</p><p>Please respond as quickly and as accurately as possible!</p>","12","","1","new_stimuli/mp3/melody_v1_v7-_^7_.mp3"
"","609","html-button-response","91","1166439","0.0-15.0-2.2","66961","","<p>Which tone was played second after the cadence?</p><p>Please respond as quickly and as accurately as possible!</p>","10","","2","new_stimuli/mp3/melody_v1_v7-_^7_.mp3"
"","606","html-button-response","92","1167047","0.0-15.0-3.2","66961","","<p>Which tone was played third after the cadence?</p><p>Please respond as quickly and as accurately as possible!</p>","11","","3","new_stimuli/mp3/melody_v1_v7-_^7_.mp3"
"","null","audio-keyboard-response","93","1176548","0.0-15.0-0.3","66961","","new_stimuli/mp3/melody_1_v1+_^2_.mp3","","null","",""
"","931","html-button-response","94","1177478","0.0-15.0-1.3","66961","","<p>Which tone was played first after the cadence?</p><p>Please respond as quickly and as accurately as possible!</p>","0","","1","new_stimuli/mp3/melody_1_v1+_^2_.mp3"
"","562","html-button-response","95","1178042","0.0-15.0-2.3","66961","","<p>Which tone was played second after the cadence?</p><p>Please respond as quickly and as accurately as possible!</p>","1","","2","new_stimuli/mp3/melody_1_v1+_^2_.mp3"
"","559","html-button-response","96","1178601","0.0-15.0-3.3","66961","","<p>Which tone was played third after the cadence?</p><p>Please respond as quickly and as accurately as possible!</p>","2","","3","new_stimuli/mp3/melody_1_v1+_^2_.mp3"
"","null","audio-keyboard-response","97","1188188","0.0-15.0-0.4","66961","","new_stimuli/mp3/melody_v1_v7-_7-_buffer.mp3","","null","",""
"","1148","html-button-response","98","1189336","0.0-15.0-1.4","66961","","<p>Which tone was played first after the cadence?</p><p>Please respond as quickly and as accurately as possible!</p>","12","","1","new_stimuli/mp3/melody_v1_v7-_7-_buffer.mp3"
"","668","html-button-response","99","1190006","0.0-15.0-2.4","66961","","<p>Which tone was played second after the cadence?</p><p>Please respond as quickly and as accurately as possible!</p>","10","","2","new_stimuli/mp3/melody_v1_v7-_7-_buffer.mp3"
"","509","html-button-response","100","1190517","0.0-15.0-3.4","66961","","<p>Which tone was played third after the cadence?</p><p>Please respond as quickly and as accurately as possible!</p>","10","","3","new_stimuli/mp3/melody_v1_v7-_7-_buffer.mp3"
"","null","audio-keyboard-response","101","1200068","0.0-15.0-0.5","66961","","new_stimuli/mp3/melody_v3_v2_v1_.mp3","","null","",""
"","1394","html-button-response","102","1201462","0.0-15.0-1.5","66961","","<p>Which tone was played first after the cadence?</p><p>Please respond as quickly and as accurately as possible!</p>","4","","1","new_stimuli/mp3/melody_v3_v2_v1_.mp3"
"","827","html-button-response","103","1202291","0.0-15.0-2.5","66961","","<p>Which tone was played second after the cadence?</p><p>Please respond as quickly and as accurately as possible!</p>","2","","2","new_stimuli/mp3/melody_v3_v2_v1_.mp3"
"","751","html-button-response","104","1203041","0.0-15.0-3.5","66961","","<p>Which tone was played third after the cadence?</p><p>Please respond as quickly and as accurately as possible!</p>","0","","3","new_stimuli/mp3/melody_v3_v2_v1_.mp3"
"","null","audio-keyboard-response","105","1212938","0.0-15.0-0.6","66961","","new_stimuli/mp3/melody_^1_v6_v5+_.mp3","","null","",""
"","9048","html-button-response","106","1221988","0.0-15.0-1.6","66961","","<p>Which tone was played first after the cadence?</p><p>Please respond as quickly and as accurately as possible!</p>","12","","1","new_stimuli/mp3/melody_^1_v6_v5+_.mp3"
"","3646","html-button-response","107","1225635","0.0-15.0-2.6","66961","","<p>Which tone was played second after the cadence?</p><p>Please respond as quickly and as accurately as possible!</p>","9","","2","new_stimuli/mp3/melody_^1_v6_v5+_.mp3"
"","444","html-button-response","108","1226080","0.0-15.0-3.6","66961","","<p>Which tone was played third after the cadence?</p><p>Please respond as quickly and as accurately as possible!</p>","8","","3","new_stimuli/mp3/melody_^1_v6_v5+_.mp3"
"","null","audio-keyboard-response","109","1236048","0.0-15.0-0.7","66961","","new_stimuli/mp3/melody_v2_v5_^3_buffer.mp3","","null","",""
"","3231","html-button-response","110","1239281","0.0-15.0-1.7","66961","","<p>Which tone was played first after the cadence?</p><p>Please respond as quickly and as accurately as possible!</p>","2","","1","new_stimuli/mp3/melody_v2_v5_^3_buffer.mp3"
"","7301","html-button-response","111","1246581","0.0-15.0-2.7","66961","","<p>Which tone was played second after the cadence?</p><p>Please respond as quickly and as accurately as possible!</p>","9","","2","new_stimuli/mp3/melody_v2_v5_^3_buffer.mp3"
"","1704","html-button-response","112","1248287","0.0-15.0-3.7","66961","","<p>Which tone was played third after the cadence?</p><p>Please respond as quickly and as accurately as possible!</p>","5","","3","new_stimuli/mp3/melody_v2_v5_^3_buffer.mp3"
"","null","audio-keyboard-response","113","1258239","0.0-15.0-0.8","66961","","new_stimuli/mp3/melody_v5_v4_v3_buffer.mp3","","null","",""
"","1102","html-button-response","114","1259341","0.0-15.0-1.8","66961","","<p>Which tone was played first after the cadence?</p><p>Please respond as quickly and as accurately as possible!</p>","5","","1","new_stimuli/mp3/melody_v5_v4_v3_buffer.mp3"
"","671","html-button-response","115","1260013","0.0-15.0-2.8","66961","","<p>Which tone was played second after the cadence?</p><p>Please respond as quickly and as accurately as possible!</p>","4","","2","new_stimuli/mp3/melody_v5_v4_v3_buffer.mp3"
"","650","html-button-response","116","1260665","0.0-15.0-3.8","66961","","<p>Which tone was played third after the cadence?</p><p>Please respond as quickly and as accurately as possible!</p>","2","","3","new_stimuli/mp3/melody_v5_v4_v3_buffer.mp3"
"[{""page_index"":0,""viewing_time"":2150},{""page_index"":1,""viewing_time"":2254},{""page_index"":2,""viewing_time"":940}]","5344","instructions","117","1266009","0.0-16.0","66961","","","","","",""
"","null","audio-keyboard-response","118","1276638","0.0-17.0-0.0","66961","","new_stimuli/mp3/melody_v5_^6+_^7_^1_5_.mp3","","null","",""
"","2565","html-button-response","119","1279202","0.0-17.0-1.0","66961","","<p>Which tone was played first after the cadence?</p><p>Please respond as quickly and as accurately as possible!</p>","7","","1","new_stimuli/mp3/melody_v5_^6+_^7_^1_5_.mp3"
"","684","html-button-response","120","1279887","0.0-17.0-2.0","66961","","<p>Which tone was played second after the cadence?</p><p>Please respond as quickly and as accurately as possible!</p>","9","","2","new_stimuli/mp3/melody_v5_^6+_^7_^1_5_.mp3"
"","1058","html-button-response","121","1280946","0.0-17.0-3.0","66961","","<p>Which tone was played third after the cadence?</p><p>Please respond as quickly and as accurately as possible!</p>","11","","3","new_stimuli/mp3/melody_v5_^6+_^7_^1_5_.mp3"
"","511","html-button-response","122","1281458","0.0-17.0-4.0","66961","","<p>Which tone was played fourth after the cadence?</p><p>Please respond as quickly and as accurately as possible!</p>","12","","4","new_stimuli/mp3/melody_v5_^6+_^7_^1_5_.mp3"
"","768","html-button-response","123","1282227","0.0-17.0-5.0","66961","","<p>Which tone was played fifth after the cadence?</p><p>Please respond as quickly and as accurately as possible!</p>","7","","5","new_stimuli/mp3/melody_v5_^6+_^7_^1_5_.mp3"
"","null","audio-keyboard-response","124","1292797","0.0-17.0-0.1","66961","","new_stimuli/mp3/melody_v5_v4_v3_v2_v1_.mp3","","null","",""
"","1257","html-button-response","125","1294055","0.0-17.0-1.1","66961","","<p>Which tone was played first after the cadence?</p><p>Please respond as quickly and as accurately as possible!</p>","7","","1","new_stimuli/mp3/melody_v5_v4_v3_v2_v1_.mp3"
"","817","html-button-response","126","1294873","0.0-17.0-2.1","66961","","<p>Which tone was played second after the cadence?</p><p>Please respond as quickly and as accurately as possible!</p>","5","","2","new_stimuli/mp3/melody_v5_v4_v3_v2_v1_.mp3"
"","623","html-button-response","127","1295497","0.0-17.0-3.1","66961","","<p>Which tone was played third after the cadence?</p><p>Please respond as quickly and as accurately as possible!</p>","4","","3","new_stimuli/mp3/melody_v5_v4_v3_v2_v1_.mp3"
"","669","html-button-response","128","1296167","0.0-17.0-4.1","66961","","<p>Which tone was played fourth after the cadence?</p><p>Please respond as quickly and as accurately as possible!</p>","2","","4","new_stimuli/mp3/melody_v5_v4_v3_v2_v1_.mp3"
"","662","html-button-response","129","1296830","0.0-17.0-5.1","66961","","<p>Which tone was played fifth after the cadence?</p><p>Please respond as quickly and as accurately as possible!</p>","0","","5","new_stimuli/mp3/melody_v5_v4_v3_v2_v1_.mp3"
"","null","audio-keyboard-response","130","1307778","0.0-17.0-0.2","66961","","new_stimuli/mp3/melody_^5_^6_v5_v4_v3_buffer.mp3","","null","",""
"","826","html-button-response","131","1308605","0.0-17.0-1.2","66961","","<p>Which tone was played first after the cadence?</p><p>Please respond as quickly and as accurately as possible!</p>","7","","1","new_stimuli/mp3/melody_^5_^6_v5_v4_v3_buffer.mp3"
"","564","html-button-response","132","1309170","0.0-17.0-2.2","66961","","<p>Which tone was played second after the cadence?</p><p>Please respond as quickly and as accurately as possible!</p>","9","","2","new_stimuli/mp3/melody_^5_^6_v5_v4_v3_buffer.mp3"
"","621","html-button-response","133","1309792","0.0-17.0-3.2","66961","","<p>Which tone was played third after the cadence?</p><p>Please respond as quickly and as accurately as possible!</p>","7","","3","new_stimuli/mp3/melody_^5_^6_v5_v4_v3_buffer.mp3"
"","741","html-button-response","134","1310534","0.0-17.0-4.2","66961","","<p>Which tone was played fourth after the cadence?</p><p>Please respond as quickly and as accurately as possible!</p>","5","","4","new_stimuli/mp3/melody_^5_^6_v5_v4_v3_buffer.mp3"
"","496","html-button-response","135","1311032","0.0-17.0-5.2","66961","","<p>Which tone was played fifth after the cadence?</p><p>Please respond as quickly and as accurately as possible!</p>","4","","5","new_stimuli/mp3/melody_^5_^6_v5_v4_v3_buffer.mp3"
"","null","audio-keyboard-response","136","1321598","0.0-17.0-0.3","66961","","new_stimuli/mp3/melody_v2_2_^3_^4_v2_.mp3","","null","",""
"","1786","html-button-response","137","1323384","0.0-17.0-1.3","66961","","<p>Which tone was played first after the cadence?</p><p>Please respond as quickly and as accurately as possible!</p>","2","","1","new_stimuli/mp3/melody_v2_2_^3_^4_v2_.mp3"
"","797","html-button-response","138","1324182","0.0-17.0-2.3","66961","","<p>Which tone was played second after the cadence?</p><p>Please respond as quickly and as accurately as possible!</p>","2","","2","new_stimuli/mp3/melody_v2_2_^3_^4_v2_.mp3"
"","736","html-button-response","139","1324919","0.0-17.0-3.3","66961","","<p>Which tone was played third after the cadence?</p><p>Please respond as quickly and as accurately as possible!</p>","4","","3","new_stimuli/mp3/melody_v2_2_^3_^4_v2_.mp3"
"","506","html-button-response","140","1325426","0.0-17.0-4.3","66961","","<p>Which tone was played fourth after the cadence?</p><p>Please respond as quickly and as accurately as possible!</p>","5","","4","new_stimuli/mp3/melody_v2_2_^3_^4_v2_.mp3"
"","705","html-button-response","141","1326133","0.0-17.0-5.3","66961","","<p>Which tone was played fifth after the cadence?</p><p>Please respond as quickly and as accurately as possible!</p>","2","","5","new_stimuli/mp3/melody_v2_2_^3_^4_v2_.mp3"
"","null","audio-keyboard-response","142","1336708","0.0-17.0-0.4","66961","","new_stimuli/mp3/melody_v5_v4_v3_v2_v1 _buffer.mp3","","null","",""
"","738","html-button-response","143","1337448","0.0-17.0-1.4","66961","","<p>Which tone was played first after the cadence?</p><p>Please respond as quickly and as accurately as possible!</p>","7","","1","new_stimuli/mp3/melody_v5_v4_v3_v2_v1 _buffer.mp3"
"","713","html-button-response","144","1338162","0.0-17.0-2.4","66961","","<p>Which tone was played second after the cadence?</p><p>Please respond as quickly and as accurately as possible!</p>","5","","2","new_stimuli/mp3/melody_v5_v4_v3_v2_v1 _buffer.mp3"
"","613","html-button-response","145","1338776","0.0-17.0-3.4","66961","","<p>Which tone was played third after the cadence?</p><p>Please respond as quickly and as accurately as possible!</p>","4","","3","new_stimuli/mp3/melody_v5_v4_v3_v2_v1 _buffer.mp3"
"","577","html-button-response","146","1339355","0.0-17.0-4.4","66961","","<p>Which tone was played fourth after the cadence?</p><p>Please respond as quickly and as accurately as possible!</p>","2","","4","new_stimuli/mp3/melody_v5_v4_v3_v2_v1 _buffer.mp3"
"","664","html-button-response","147","1340021","0.0-17.0-5.4","66961","","<p>Which tone was played fifth after the cadence?</p><p>Please respond as quickly and as accurately as possible!</p>","0","","5","new_stimuli/mp3/melody_v5_v4_v3_v2_v1 _buffer.mp3"
"","null","audio-keyboard-response","148","1350658","0.0-17.0-0.5","66961","","new_stimuli/mp3/melody_^6_v4_v3_^4_^5_.mp3","","null","",""
"","3736","html-button-response","149","1354394","0.0-17.0-1.5","66961","","<p>Which tone was played first after the cadence?</p><p>Please respond as quickly and as accurately as possible!</p>","9","","1","new_stimuli/mp3/melody_^6_v4_v3_^4_^5_.mp3"
"","2160","html-button-response","150","1356556","0.0-17.0-2.5","66961","","<p>Which tone was played second after the cadence?</p><p>Please respond as quickly and as accurately as possible!</p>","5","","2","new_stimuli/mp3/melody_^6_v4_v3_^4_^5_.mp3"
"","873","html-button-response","151","1357431","0.0-17.0-3.5","66961","","<p>Which tone was played third after the cadence?</p><p>Please respond as quickly and as accurately as possible!</p>","4","","3","new_stimuli/mp3/melody_^6_v4_v3_^4_^5_.mp3"
"","1105","html-button-response","152","1358536","0.0-17.0-4.5","66961","","<p>Which tone was played fourth after the cadence?</p><p>Please respond as quickly and as accurately as possible!</p>","5","","4","new_stimuli/mp3/melody_^6_v4_v3_^4_^5_.mp3"
"","583","html-button-response","153","1359121","0.0-17.0-5.5","66961","","<p>Which tone was played fifth after the cadence?</p><p>Please respond as quickly and as accurately as possible!</p>","7","","5","new_stimuli/mp3/melody_^6_v4_v3_^4_^5_.mp3"
"","null","audio-keyboard-response","154","1369818","0.0-17.0-0.6","66961","","new_stimuli/mp3/melody_^6_v5_v4_v3_v2_buffer.mp3","","null","",""
"","1419","html-button-response","155","1371239","0.0-17.0-1.6","66961","","<p>Which tone was played first after the cadence?</p><p>Please respond as quickly and as accurately as possible!</p>","9","","1","new_stimuli/mp3/melody_^6_v5_v4_v3_v2_buffer.mp3"
"","652","html-button-response","156","1371891","0.0-17.0-2.6","66961","","<p>Which tone was played second after the cadence?</p><p>Please respond as quickly and as accurately as possible!</p>","7","","2","new_stimuli/mp3/melody_^6_v5_v4_v3_v2_buffer.mp3"
"","567","html-button-response","157","1372460","0.0-17.0-3.6","66961","","<p>Which tone was played third after the cadence?</p><p>Please respond as quickly and as accurately as possible!</p>","5","","3","new_stimuli/mp3/melody_^6_v5_v4_v3_v2_buffer.mp3"
"","545","html-button-response","158","1373006","0.0-17.0-4.6","66961","","<p>Which tone was played fourth after the cadence?</p><p>Please respond as quickly and as accurately as possible!</p>","4","","4","new_stimuli/mp3/melody_^6_v5_v4_v3_v2_buffer.mp3"
"","623","html-button-response","159","1373631","0.0-17.0-5.6","66961","","<p>Which tone was played fifth after the cadence?</p><p>Please respond as quickly and as accurately as possible!</p>","2","","5","new_stimuli/mp3/melody_^6_v5_v4_v3_v2_buffer.mp3"
"","null","audio-keyboard-response","160","1384579","0.0-17.0-0.7","66961","","new_stimuli/mp3/melody_v5-_v3_3_^4+_v3_.mp3","","null","",""
"","3702","html-button-response","161","1388282","0.0-17.0-1.7","66961","","<p>Which tone was played first after the cadence?</p><p>Please respond as quickly and as accurately as possible!</p>","8","","1","new_stimuli/mp3/melody_v5-_v3_3_^4+_v3_.mp3"
"","517","html-button-response","162","1388799","0.0-17.0-2.7","66961","","<p>Which tone was played second after the cadence?</p><p>Please respond as quickly and as accurately as possible!</p>","6","","2","new_stimuli/mp3/melody_v5-_v3_3_^4+_v3_.mp3"
"","948","html-button-response","163","1389748","0.0-17.0-3.7","66961","","<p>Which tone was played third after the cadence?</p><p>Please respond as quickly and as accurately as possible!</p>","6","","3","new_stimuli/mp3/melody_v5-_v3_3_^4+_v3_.mp3"
"","526","html-button-response","164","1390275","0.0-17.0-4.7","66961","","<p>Which tone was played fourth after the cadence?</p><p>Please respond as quickly and as accurately as possible!</p>","8","","4","new_stimuli/mp3/melody_v5-_v3_3_^4+_v3_.mp3"
"","521","html-button-response","165","1390797","0.0-17.0-5.7","66961","","<p>Which tone was played fifth after the cadence?</p><p>Please respond as quickly and as accurately as possible!</p>","6","","5","new_stimuli/mp3/melody_v5-_v3_3_^4+_v3_.mp3"
"[{""page_index"":0,""viewing_time"":1370},{""page_index"":1,""viewing_time"":1047},{""page_index"":2,""viewing_time"":899}]","3316","instructions","166","1394114","0.0-18.0","66961","","","","","",""
"","null","audio-keyboard-response","167","1405818","0.0-19.0-0.0","66961","","new_stimuli/mp3/melody_v1_^2_v1_v7_^1_^3_v2_.mp3","","null","",""
"","1165","html-button-response","168","1406984","0.0-19.0-1.0","66961","","<p>Which tone was played first after the cadence?</p><p>Please respond as quickly and as accurately as possible!</p>","0","","1","new_stimuli/mp3/melody_v1_^2_v1_v7_^1_^3_v2_.mp3"
"","579","html-button-response","169","1407564","0.0-19.0-2.0","66961","","<p>Which tone was played second after the cadence?</p><p>Please respond as quickly and as accurately as possible!</p>","2","","2","new_stimuli/mp3/melody_v1_^2_v1_v7_^1_^3_v2_.mp3"
"","677","html-button-response","170","1408241","0.0-19.0-3.0","66961","","<p>Which tone was played third after the cadence?</p><p>Please respond as quickly and as accurately as possible!</p>","0","","3","new_stimuli/mp3/melody_v1_^2_v1_v7_^1_^3_v2_.mp3"
"","1099","html-button-response","171","1409342","0.0-19.0-4.0","66961","","<p>Which tone was played fourth after the cadence?</p><p>Please respond as quickly and as accurately as possible!</p>","11","","4","new_stimuli/mp3/melody_v1_^2_v1_v7_^1_^3_v2_.mp3"
"","1113","html-button-response","172","1410456","0.0-19.0-5.0","66961","","<p>Which tone was played fifth after the cadence?</p><p>Please respond as quickly and as accurately as possible!</p>","0","","5","new_stimuli/mp3/melody_v1_^2_v1_v7_^1_^3_v2_.mp3"
"","3829","html-button-response","173","1414287","0.0-19.0-6.0","66961","","<p>Which tone was played sixth after the cadence?</p><p>Please respond as quickly and as accurately as possible!</p>","4","","6","new_stimuli/mp3/melody_v1_^2_v1_v7_^1_^3_v2_.mp3"
"","645","html-button-response","174","1414933","0.0-19.0-7.0","66961","","<p>Which tone was played seventh after the cadence?</p><p>Please respond as quickly and as accurately as possible!</p>","2","","7","new_stimuli/mp3/melody_v1_^2_v1_v7_^1_^3_v2_.mp3"
"","null","audio-keyboard-response","175","1426509","0.0-19.0-0.1","66961","","new_stimuli/mp3/melody_^5_^6_v5_v4_v3_v2_v1_buffer.mp3","","null","",""
"","853","html-button-response","176","1427363","0.0-19.0-1.1","66961","","<p>Which tone was played first after the cadence?</p><p>Please respond as quickly and as accurately as possible!</p>","7","","1","new_stimuli/mp3/melody_^5_^6_v5_v4_v3_v2_v1_buffer.mp3"
"","530","html-button-response","177","1427894","0.0-19.0-2.1","66961","","<p>Which tone was played second after the cadence?</p><p>Please respond as quickly and as accurately as possible!</p>","9","","2","new_stimuli/mp3/melody_^5_^6_v5_v4_v3_v2_v1_buffer.mp3"
"","555","html-button-response","178","1428450","0.0-19.0-3.1","66961","","<p>Which tone was played third after the cadence?</p><p>Please respond as quickly and as accurately as possible!</p>","7","","3","new_stimuli/mp3/melody_^5_^6_v5_v4_v3_v2_v1_buffer.mp3"
"","622","html-button-response","179","1429074","0.0-19.0-4.1","66961","","<p>Which tone was played fourth after the cadence?</p><p>Please respond as quickly and as accurately as possible!</p>","5","","4","new_stimuli/mp3/melody_^5_^6_v5_v4_v3_v2_v1_buffer.mp3"
"","566","html-button-response","180","1429640","0.0-19.0-5.1","66961","","<p>Which tone was played fifth after the cadence?</p><p>Please respond as quickly and as accurately as possible!</p>","4","","5","new_stimuli/mp3/melody_^5_^6_v5_v4_v3_v2_v1_buffer.mp3"
"","674","html-button-response","181","1430317","0.0-19.0-6.1","66961","","<p>Which tone was played sixth after the cadence?</p><p>Please respond as quickly and as accurately as possible!</p>","2","","6","new_stimuli/mp3/melody_^5_^6_v5_v4_v3_v2_v1_buffer.mp3"
"","640","html-button-response","182","1430957","0.0-19.0-7.1","66961","","<p>Which tone was played seventh after the cadence?</p><p>Please respond as quickly and as accurately as possible!</p>","0","","7","new_stimuli/mp3/melody_^5_^6_v5_v4_v3_v2_v1_buffer.mp3"
"","null","audio-keyboard-response","183","1442607","0.0-19.0-0.2","66961","","new_stimuli/mp3/melody_^6_v5+_v4_^5+_v3_v1_v7-_.mp3","","null","",""
"","2448","html-button-response","184","1445056","0.0-19.0-1.2","66961","","<p>Which tone was played first after the cadence?</p><p>Please respond as quickly and as accurately as possible!</p>","9","","1","new_stimuli/mp3/melody_^6_v5+_v4_^5+_v3_v1_v7-_.mp3"
"","634","html-button-response","185","1445691","0.0-19.0-2.2","66961","","<p>Which tone was played second after the cadence?</p><p>Please respond as quickly and as accurately as possible!</p>","8","","2","new_stimuli/mp3/melody_^6_v5+_v4_^5+_v3_v1_v7-_.mp3"
"","1678","html-button-response","186","1447370","0.0-19.0-3.2","66961","","<p>Which tone was played third after the cadence?</p><p>Please respond as quickly and as accurately as possible!</p>","8","","3","new_stimuli/mp3/melody_^6_v5+_v4_^5+_v3_v1_v7-_.mp3"
"","724","html-button-response","187","1448096","0.0-19.0-4.2","66961","","<p>Which tone was played fourth after the cadence?</p><p>Please respond as quickly and as accurately as possible!</p>","9","","4","new_stimuli/mp3/melody_^6_v5+_v4_^5+_v3_v1_v7-_.mp3"
"","1055","html-button-response","188","1449152","0.0-19.0-5.2","66961","","<p>Which tone was played fifth after the cadence?</p><p>Please respond as quickly and as accurately as possible!</p>","6","","5","new_stimuli/mp3/melody_^6_v5+_v4_^5+_v3_v1_v7-_.mp3"
"","4867","html-button-response","189","1454021","0.0-19.0-6.2","66961","","<p>Which tone was played sixth after the cadence?</p><p>Please respond as quickly and as accurately as possible!</p>","2","","6","new_stimuli/mp3/melody_^6_v5+_v4_^5+_v3_v1_v7-_.mp3"
"","3060","html-button-response","190","1457082","0.0-19.0-7.2","66961","","<p>Which tone was played seventh after the cadence?</p><p>Please respond as quickly and as accurately as possible!</p>","1","","7","new_stimuli/mp3/melody_^6_v5+_v4_^5+_v3_v1_v7-_.mp3"
"","null","audio-keyboard-response","191","1468788","0.0-19.0-0.3","66961","","new_stimuli/mp3/melody_^4_^5_^6_v5_v4_v3_v2_.mp3","","null","",""
"","1312","html-button-response","192","1470102","0.0-19.0-1.3","66961","","<p>Which tone was played first after the cadence?</p><p>Please respond as quickly and as accurately as possible!</p>","4","","1","new_stimuli/mp3/melody_^4_^5_^6_v5_v4_v3_v2_.mp3"
"","525","html-button-response","193","1470627","0.0-19.0-2.3","66961","","<p>Which tone was played second after the cadence?</p><p>Please respond as quickly and as accurately as possible!</p>","5","","2","new_stimuli/mp3/melody_^4_^5_^6_v5_v4_v3_v2_.mp3"
"","557","html-button-response","194","1471184","0.0-19.0-3.3","66961","","<p>Which tone was played third after the cadence?</p><p>Please respond as quickly and as accurately as possible!</p>","7","","3","new_stimuli/mp3/melody_^4_^5_^6_v5_v4_v3_v2_.mp3"
"","626","html-button-response","195","1471812","0.0-19.0-4.3","66961","","<p>Which tone was played fourth after the cadence?</p><p>Please respond as quickly and as accurately as possible!</p>","5","","4","new_stimuli/mp3/melody_^4_^5_^6_v5_v4_v3_v2_.mp3"
"","1277","html-button-response","196","1473091","0.0-19.0-5.3","66961","","<p>Which tone was played fifth after the cadence?</p><p>Please respond as quickly and as accurately as possible!</p>","4","","5","new_stimuli/mp3/melody_^4_^5_^6_v5_v4_v3_v2_.mp3"
"","5480","html-button-response","197","1478572","0.0-19.0-6.3","66961","","<p>Which tone was played sixth after the cadence?</p><p>Please respond as quickly and as accurately as possible!</p>","4","","6","new_stimuli/mp3/melody_^4_^5_^6_v5_v4_v3_v2_.mp3"
"","639","html-button-response","198","1479212","0.0-19.0-7.3","66961","","<p>Which tone was played seventh after the cadence?</p><p>Please respond as quickly and as accurately as possible!</p>","2","","7","new_stimuli/mp3/melody_^4_^5_^6_v5_v4_v3_v2_.mp3"
"","null","audio-keyboard-response","199","1490908","0.0-19.0-0.4","66961","","new_stimuli/mp3/melody_^1_v7_v6_v5_v4_v3_v2_buffer.mp3","","null","",""
"","799","html-button-response","200","1491707","0.0-19.0-1.4","66961","","<p>Which tone was played first after the cadence?</p><p>Please respond as quickly and as accurately as possible!</p>","12","","1","new_stimuli/mp3/melody_^1_v7_v6_v5_v4_v3_v2_buffer.mp3"
"","609","html-button-response","201","1492318","0.0-19.0-2.4","66961","","<p>Which tone was played second after the cadence?</p><p>Please respond as quickly and as accurately as possible!</p>","11","","2","new_stimuli/mp3/melody_^1_v7_v6_v5_v4_v3_v2_buffer.mp3"
"","702","html-button-response","202","1493021","0.0-19.0-3.4","66961","","<p>Which tone was played third after the cadence?</p><p>Please respond as quickly and as accurately as possible!</p>","9","","3","new_stimuli/mp3/melody_^1_v7_v6_v5_v4_v3_v2_buffer.mp3"
"","662","html-button-response","203","1493683","0.0-19.0-4.4","66961","","<p>Which tone was played fourth after the cadence?</p><p>Please respond as quickly and as accurately as possible!</p>","7","","4","new_stimuli/mp3/melody_^1_v7_v6_v5_v4_v3_v2_buffer.mp3"
"","605","html-button-response","204","1494290","0.0-19.0-5.4","66961","","<p>Which tone was played fifth after the cadence?</p><p>Please respond as quickly and as accurately as possible!</p>","5","","5","new_stimuli/mp3/melody_^1_v7_v6_v5_v4_v3_v2_buffer.mp3"
"","577","html-button-response","205","1494867","0.0-19.0-6.4","66961","","<p>Which tone was played sixth after the cadence?</p><p>Please respond as quickly and as accurately as possible!</p>","4","","6","new_stimuli/mp3/melody_^1_v7_v6_v5_v4_v3_v2_buffer.mp3"
"","630","html-button-response","206","1495498","0.0-19.0-7.4","66961","","<p>Which tone was played seventh after the cadence?</p><p>Please respond as quickly and as accurately as possible!</p>","2","","7","new_stimuli/mp3/melody_^1_v7_v6_v5_v4_v3_v2_buffer.mp3"
"","null","audio-keyboard-response","207","1507178","0.0-19.0-0.5","66961","","new_stimuli/mp3/melody_^4_v6-_v5-_^6-_^4_v2-_2-_.mp3","","null","",""
"","10042","html-button-response","208","1517220","0.0-19.0-1.5","66961","","<p>Which tone was played first after the cadence?</p><p>Please respond as quickly and as accurately as possible!</p>","6","","1","new_stimuli/mp3/melody_^4_v6-_v5-_^6-_^4_v2-_2-_.mp3"
"","1427","html-button-response","209","1518649","0.0-19.0-2.5","66961","","<p>Which tone was played second after the cadence?</p><p>Please respond as quickly and as accurately as possible!</p>","1","","2","new_stimuli/mp3/melody_^4_v6-_v5-_^6-_^4_v2-_2-_.mp3"
"","3173","html-button-response","210","1521822","0.0-19.0-3.5","66961","","<p>Which tone was played third after the cadence?</p><p>Please respond as quickly and as accurately as possible!</p>","10","","3","new_stimuli/mp3/melody_^4_v6-_v5-_^6-_^4_v2-_2-_.mp3"
"","1108","html-button-response","211","1522933","0.0-19.0-4.5","66961","","<p>Which tone was played fourth after the cadence?</p><p>Please respond as quickly and as accurately as possible!</p>","1","","4","new_stimuli/mp3/melody_^4_v6-_v5-_^6-_^4_v2-_2-_.mp3"
"","1320","html-button-response","212","1524253","0.0-19.0-5.5","66961","","<p>Which tone was played fifth after the cadence?</p><p>Please respond as quickly and as accurately as possible!</p>","6","","5","new_stimuli/mp3/melody_^4_v6-_v5-_^6-_^4_v2-_2-_.mp3"
"","1336","html-button-response","213","1525591","0.0-19.0-6.5","66961","","<p>Which tone was played sixth after the cadence?</p><p>Please respond as quickly and as accurately as possible!</p>","4","","6","new_stimuli/mp3/melody_^4_v6-_v5-_^6-_^4_v2-_2-_.mp3"
"","679","html-button-response","214","1526269","0.0-19.0-7.5","66961","","<p>Which tone was played seventh after the cadence?</p><p>Please respond as quickly and as accurately as possible!</p>","2","","7","new_stimuli/mp3/melody_^4_v6-_v5-_^6-_^4_v2-_2-_.mp3"
"","null","audio-keyboard-response","215","1538238","0.0-19.0-0.6","66961","","new_stimuli/mp3/melody_1_^3_v1_^5_v3_v2_^3_.mp3","","null","",""
"","1104","html-button-response","216","1539343","0.0-19.0-1.6","66961","","<p>Which tone was played first after the cadence?</p><p>Please respond as quickly and as accurately as possible!</p>","0","","1","new_stimuli/mp3/melody_1_^3_v1_^5_v3_v2_^3_.mp3"
"","4458","html-button-response","217","1543801","0.0-19.0-2.6","66961","","<p>Which tone was played second after the cadence?</p><p>Please respond as quickly and as accurately as possible!</p>","4","","2","new_stimuli/mp3/melody_1_^3_v1_^5_v3_v2_^3_.mp3"
"","959","html-button-response","218","1544761","0.0-19.0-3.6","66961","","<p>Which tone was played third after the cadence?</p><p>Please respond as quickly and as accurately as possible!</p>","0","","3","new_stimuli/mp3/melody_1_^3_v1_^5_v3_v2_^3_.mp3"
"","2520","html-button-response","219","1547284","0.0-19.0-4.6","66961","","<p>Which tone was played fourth after the cadence?</p><p>Please respond as quickly and as accurately as possible!</p>","7","","4","new_stimuli/mp3/melody_1_^3_v1_^5_v3_v2_^3_.mp3"
"","1110","html-button-response","220","1548394","0.0-19.0-5.6","66961","","<p>Which tone was played fifth after the cadence?</p><p>Please respond as quickly and as accurately as possible!</p>","4","","5","new_stimuli/mp3/melody_1_^3_v1_^5_v3_v2_^3_.mp3"
"","2205","html-button-response","221","1550600","0.0-19.0-6.6","66961","","<p>Which tone was played sixth after the cadence?</p><p>Please respond as quickly and as accurately as possible!</p>","2","","6","new_stimuli/mp3/melody_1_^3_v1_^5_v3_v2_^3_.mp3"
"","645","html-button-response","222","1551246","0.0-19.0-7.6","66961","","<p>Which tone was played seventh after the cadence?</p><p>Please respond as quickly and as accurately as possible!</p>","4","","7","new_stimuli/mp3/melody_1_^3_v1_^5_v3_v2_^3_.mp3"
"[{""page_index"":0,""viewing_time"":4292},{""page_index"":1,""viewing_time"":2037},{""page_index"":2,""viewing_time"":1113}]","7442","instructions","223","1558690","0.0-20.0","66961","","","","","",""
"","null","audio-keyboard-response","224","1571248","0.0-21.0-0.0","66961","","new_stimuli/mp3/melody_^3_^4_^5 _^6_v5_v4_v3_v2_v1_.mp3","","null","",""
"","2223","html-button-response","225","1573472","0.0-21.0-1.0","66961","","<p>Which tone was played first after the cadence?</p><p>Please respond as quickly and as accurately as possible!</p>","4","","1","new_stimuli/mp3/melody_^3_^4_^5 _^6_v5_v4_v3_v2_v1_.mp3"
"","516","html-button-response","226","1573988","0.0-21.0-2.0","66961","","<p>Which tone was played second after the cadence?</p><p>Please respond as quickly and as accurately as possible!</p>","5","","2","new_stimuli/mp3/melody_^3_^4_^5 _^6_v5_v4_v3_v2_v1_.mp3"
"","1939","html-button-response","227","1575929","0.0-21.0-3.0","66961","","<p>Which tone was played third after the cadence?</p><p>Please respond as quickly and as accurately as possible!</p>","7","","3","new_stimuli/mp3/melody_^3_^4_^5 _^6_v5_v4_v3_v2_v1_.mp3"
"","750","html-button-response","228","1576679","0.0-21.0-4.0","66961","","<p>Which tone was played fourth after the cadence?</p><p>Please respond as quickly and as accurately as possible!</p>","9","","4","new_stimuli/mp3/melody_^3_^4_^5 _^6_v5_v4_v3_v2_v1_.mp3"
"","610","html-button-response","229","1577291","0.0-21.0-5.0","66961","","<p>Which tone was played fifth after the cadence?</p><p>Please respond as quickly and as accurately as possible!</p>","7","","5","new_stimuli/mp3/melody_^3_^4_^5 _^6_v5_v4_v3_v2_v1_.mp3"
"","606","html-button-response","230","1577897","0.0-21.0-6.0","66961","","<p>Which tone was played sixth after the cadence?</p><p>Please respond as quickly and as accurately as possible!</p>","5","","6","new_stimuli/mp3/melody_^3_^4_^5 _^6_v5_v4_v3_v2_v1_.mp3"
"","564","html-button-response","231","1578464","0.0-21.0-7.0","66961","","<p>Which tone was played seventh after the cadence?</p><p>Please respond as quickly and as accurately as possible!</p>","4","","7","new_stimuli/mp3/melody_^3_^4_^5 _^6_v5_v4_v3_v2_v1_.mp3"
"","667","html-button-response","232","1579131","0.0-21.0-8.0","66961","","<p>Which tone was played eight after the cadence?</p><p>Please respond as quickly and as accurately as possible!</p>","2","","8","new_stimuli/mp3/melody_^3_^4_^5 _^6_v5_v4_v3_v2_v1_.mp3"
"","784","html-button-response","233","1579917","0.0-21.0-9.0","66961","","<p>Which tone was played nineth after the cadence?</p><p>Please respond as quickly and as accurately as possible!</p>","0","","9","new_stimuli/mp3/melody_^3_^4_^5 _^6_v5_v4_v3_v2_v1_.mp3"
"","null","audio-keyboard-response","234","1592568","0.0-21.0-0.1","66961","","new_stimuli/mp3/melody_v5_v4_v6+_^7_^3+_v3_v2_v5_^4_.mp3","","null","",""
"","1504","html-button-response","235","1594073","0.0-21.0-1.1","66961","","<p>Which tone was played first after the cadence?</p><p>Please respond as quickly and as accurately as possible!</p>","7","","1","new_stimuli/mp3/melody_v5_v4_v6+_^7_^3+_v3_v2_v5_^4_.mp3"
"","1017","html-button-response","236","1595090","0.0-21.0-2.1","66961","","<p>Which tone was played second after the cadence?</p><p>Please respond as quickly and as accurately as possible!</p>","5","","2","new_stimuli/mp3/melody_v5_v4_v6+_^7_^3+_v3_v2_v5_^4_.mp3"
"","774","html-button-response","237","1595865","0.0-21.0-3.1","66961","","<p>Which tone was played third after the cadence?</p><p>Please respond as quickly and as accurately as possible!</p>","4","","3","new_stimuli/mp3/melody_v5_v4_v6+_^7_^3+_v3_v2_v5_^4_.mp3"
"","6130","html-button-response","238","1601997","0.0-21.0-4.1","66961","","<p>Which tone was played fourth after the cadence?</p><p>Please respond as quickly and as accurately as possible!</p>","0","","4","new_stimuli/mp3/melody_v5_v4_v6+_^7_^3+_v3_v2_v5_^4_.mp3"
"","1526","html-button-response","239","1603523","0.0-21.0-5.1","66961","","<p>Which tone was played fifth after the cadence?</p><p>Please respond as quickly and as accurately as possible!</p>","1","","5","new_stimuli/mp3/melody_v5_v4_v6+_^7_^3+_v3_v2_v5_^4_.mp3"
"","933","html-button-response","240","1604458","0.0-21.0-6.1","66961","","<p>Which tone was played sixth after the cadence?</p><p>Please respond as quickly and as accurately as possible!</p>","2","","6","new_stimuli/mp3/melody_v5_v4_v6+_^7_^3+_v3_v2_v5_^4_.mp3"
"","1602","html-button-response","241","1606061","0.0-21.0-7.1","66961","","<p>Which tone was played seventh after the cadence?</p><p>Please respond as quickly and as accurately as possible!</p>","5","","7","new_stimuli/mp3/melody_v5_v4_v6+_^7_^3+_v3_v2_v5_^4_.mp3"
"","500","html-button-response","242","1606561","0.0-21.0-8.1","66961","","<p>Which tone was played eight after the cadence?</p><p>Please respond as quickly and as accurately as possible!</p>","4","","8","new_stimuli/mp3/melody_v5_v4_v6+_^7_^3+_v3_v2_v5_^4_.mp3"
"","473","html-button-response","243","1607036","0.0-21.0-9.1","66961","","<p>Which tone was played nineth after the cadence?</p><p>Please respond as quickly and as accurately as possible!</p>","3","","9","new_stimuli/mp3/melody_v5_v4_v6+_^7_^3+_v3_v2_v5_^4_.mp3"
"","null","audio-keyboard-response","244","1619988","0.0-21.0-0.2","66961","","new_stimuli/mp3/melody_^5_^6_v5_v4_v3_v2_v1_^2_^3_buffer.mp3","","null","",""
"","814","html-button-response","245","1620804","0.0-21.0-1.2","66961","","<p>Which tone was played first after the cadence?</p><p>Please respond as quickly and as accurately as possible!</p>","7","","1","new_stimuli/mp3/melody_^5_^6_v5_v4_v3_v2_v1_^2_^3_buffer.mp3"
"","646","html-button-response","246","1621451","0.0-21.0-2.2","66961","","<p>Which tone was played second after the cadence?</p><p>Please respond as quickly and as accurately as possible!</p>","9","","2","new_stimuli/mp3/melody_^5_^6_v5_v4_v3_v2_v1_^2_^3_buffer.mp3"
"","713","html-button-response","247","1622164","0.0-21.0-3.2","66961","","<p>Which tone was played third after the cadence?</p><p>Please respond as quickly and as accurately as possible!</p>","7","","3","new_stimuli/mp3/melody_^5_^6_v5_v4_v3_v2_v1_^2_^3_buffer.mp3"
"","645","html-button-response","248","1622811","0.0-21.0-4.2","66961","","<p>Which tone was played fourth after the cadence?</p><p>Please respond as quickly and as accurately as possible!</p>","5","","4","new_stimuli/mp3/melody_^5_^6_v5_v4_v3_v2_v1_^2_^3_buffer.mp3"
"","657","html-button-response","249","1623468","0.0-21.0-5.2","66961","","<p>Which tone was played fifth after the cadence?</p><p>Please respond as quickly and as accurately as possible!</p>","4","","5","new_stimuli/mp3/melody_^5_^6_v5_v4_v3_v2_v1_^2_^3_buffer.mp3"
"","649","html-button-response","250","1624117","0.0-21.0-6.2","66961","","<p>Which tone was played sixth after the cadence?</p><p>Please respond as quickly and as accurately as possible!</p>","2","","6","new_stimuli/mp3/melody_^5_^6_v5_v4_v3_v2_v1_^2_^3_buffer.mp3"
"","541","html-button-response","251","1624660","0.0-21.0-7.2","66961","","<p>Which tone was played seventh after the cadence?</p><p>Please respond as quickly and as accurately as possible!</p>","0","","7","new_stimuli/mp3/melody_^5_^6_v5_v4_v3_v2_v1_^2_^3_buffer.mp3"
"","616","html-button-response","252","1625277","0.0-21.0-8.2","66961","","<p>Which tone was played eight after the cadence?</p><p>Please respond as quickly and as accurately as possible!</p>","2","","8","new_stimuli/mp3/melody_^5_^6_v5_v4_v3_v2_v1_^2_^3_buffer.mp3"
"","620","html-button-response","253","1625897","0.0-21.0-9.2","66961","","<p>Which tone was played nineth after the cadence?</p><p>Please respond as quickly and as accurately as possible!</p>","4","","9","new_stimuli/mp3/melody_^5_^6_v5_v4_v3_v2_v1_^2_^3_buffer.mp3"
"","null","audio-keyboard-response","254","1638537","0.0-21.0-0.3","66961","","new_stimuli/mp3/melody_v7_v6_v5_^6_v5_v4_^5_^6_v5_.mp3","","null","",""
"","876","html-button-response","255","1639415","0.0-21.0-1.3","66961","","<p>Which tone was played first after the cadence?</p><p>Please respond as quickly and as accurately as possible!</p>","11","","1","new_stimuli/mp3/melody_v7_v6_v5_^6_v5_v4_^5_^6_v5_.mp3"
"","722","html-button-response","256","1640138","0.0-21.0-2.3","66961","","<p>Which tone was played second after the cadence?</p><p>Please respond as quickly and as accurately as possible!</p>","9","","2","new_stimuli/mp3/melody_v7_v6_v5_^6_v5_v4_^5_^6_v5_.mp3"
"","674","html-button-response","257","1640814","0.0-21.0-3.3","66961","","<p>Which tone was played third after the cadence?</p><p>Please respond as quickly and as accurately as possible!</p>","7","","3","new_stimuli/mp3/melody_v7_v6_v5_^6_v5_v4_^5_^6_v5_.mp3"
"","592","html-button-response","258","1641406","0.0-21.0-4.3","66961","","<p>Which tone was played fourth after the cadence?</p><p>Please respond as quickly and as accurately as possible!</p>","5","","4","new_stimuli/mp3/melody_v7_v6_v5_^6_v5_v4_^5_^6_v5_.mp3"
"","690","html-button-response","259","1642097","0.0-21.0-5.3","66961","","<p>Which tone was played fifth after the cadence?</p><p>Please respond as quickly and as accurately as possible!</p>","7","","5","new_stimuli/mp3/melody_v7_v6_v5_^6_v5_v4_^5_^6_v5_.mp3"
"","577","html-button-response","260","1642676","0.0-21.0-6.3","66961","","<p>Which tone was played sixth after the cadence?</p><p>Please respond as quickly and as accurately as possible!</p>","9","","6","new_stimuli/mp3/melody_v7_v6_v5_^6_v5_v4_^5_^6_v5_.mp3"
"","521","html-button-response","261","1643198","0.0-21.0-7.3","66961","","<p>Which tone was played seventh after the cadence?</p><p>Please respond as quickly and as accurately as possible!</p>","7","","7","new_stimuli/mp3/melody_v7_v6_v5_^6_v5_v4_^5_^6_v5_.mp3"
"","550","html-button-response","262","1643749","0.0-21.0-8.3","66961","","<p>Which tone was played eight after the cadence?</p><p>Please respond as quickly and as accurately as possible!</p>","5","","8","new_stimuli/mp3/melody_v7_v6_v5_^6_v5_v4_^5_^6_v5_.mp3"
"","591","html-button-response","263","1644340","0.0-21.0-9.3","66961","","<p>Which tone was played nineth after the cadence?</p><p>Please respond as quickly and as accurately as possible!</p>","7","","9","new_stimuli/mp3/melody_v7_v6_v5_^6_v5_v4_^5_^6_v5_.mp3"
"","null","audio-keyboard-response","264","1656968","0.0-21.0-0.4","66961","","new_stimuli/mp3/melody_^3_^4_v2_v7_^1_^2_^3_3_^4_.mp3","","null","",""
"","1784","html-button-response","265","1658753","0.0-21.0-1.4","66961","","<p>Which tone was played first after the cadence?</p><p>Please respond as quickly and as accurately as possible!</p>","4","","1","new_stimuli/mp3/melody_^3_^4_v2_v7_^1_^2_^3_3_^4_.mp3"
"","1249","html-button-response","266","1660003","0.0-21.0-2.4","66961","","<p>Which tone was played second after the cadence?</p><p>Please respond as quickly and as accurately as possible!</p>","5","","2","new_stimuli/mp3/melody_^3_^4_v2_v7_^1_^2_^3_3_^4_.mp3"
"","1077","html-button-response","267","1661080","0.0-21.0-3.4","66961","","<p>Which tone was played third after the cadence?</p><p>Please respond as quickly and as accurately as possible!</p>","2","","3","new_stimuli/mp3/melody_^3_^4_v2_v7_^1_^2_^3_3_^4_.mp3"
"","1084","html-button-response","268","1662165","0.0-21.0-4.4","66961","","<p>Which tone was played fourth after the cadence?</p><p>Please respond as quickly and as accurately as possible!</p>","11","","4","new_stimuli/mp3/melody_^3_^4_v2_v7_^1_^2_^3_3_^4_.mp3"
"","1647","html-button-response","269","1663814","0.0-21.0-5.4","66961","","<p>Which tone was played fifth after the cadence?</p><p>Please respond as quickly and as accurately as possible!</p>","0","","5","new_stimuli/mp3/melody_^3_^4_v2_v7_^1_^2_^3_3_^4_.mp3"
"","1909","html-button-response","270","1665724","0.0-21.0-6.4","66961","","<p>Which tone was played sixth after the cadence?</p><p>Please respond as quickly and as accurately as possible!</p>","2","","6","new_stimuli/mp3/melody_^3_^4_v2_v7_^1_^2_^3_3_^4_.mp3"
"","1667","html-button-response","271","1667392","0.0-21.0-7.4","66961","","<p>Which tone was played seventh after the cadence?</p><p>Please respond as quickly and as accurately as possible!</p>","4","","7","new_stimuli/mp3/melody_^3_^4_v2_v7_^1_^2_^3_3_^4_.mp3"
"","4113","html-button-response","272","1671505","0.0-21.0-8.4","66961","","<p>Which tone was played eight after the cadence?</p><p>Please respond as quickly and as accurately as possible!</p>","2","","8","new_stimuli/mp3/melody_^3_^4_v2_v7_^1_^2_^3_3_^4_.mp3"
"","513","html-button-response","273","1672019","0.0-21.0-9.4","66961","","<p>Which tone was played nineth after the cadence?</p><p>Please respond as quickly and as accurately as possible!</p>","4","","9","new_stimuli/mp3/melody_^3_^4_v2_v7_^1_^2_^3_3_^4_.mp3"
"","null","audio-keyboard-response","274","1684948","0.0-21.0-0.5","66961","","new_stimuli/mp3/melody_^2_^4_v3_v2_v1_v3_v2+_^3_^5+_.mp3","","null","",""
"","1508","html-button-response","275","1686456","0.0-21.0-1.5","66961","","<p>Which tone was played first after the cadence?</p><p>Please respond as quickly and as accurately as possible!</p>","2","","1","new_stimuli/mp3/melody_^2_^4_v3_v2_v1_v3_v2+_^3_^5+_.mp3"
"","851","html-button-response","276","1687308","0.0-21.0-2.5","66961","","<p>Which tone was played second after the cadence?</p><p>Please respond as quickly and as accurately as possible!</p>","5","","2","new_stimuli/mp3/melody_^2_^4_v3_v2_v1_v3_v2+_^3_^5+_.mp3"
"","625","html-button-response","277","1687934","0.0-21.0-3.5","66961","","<p>Which tone was played third after the cadence?</p><p>Please respond as quickly and as accurately as possible!</p>","4","","3","new_stimuli/mp3/melody_^2_^4_v3_v2_v1_v3_v2+_^3_^5+_.mp3"
"","792","html-button-response","278","1688728","0.0-21.0-4.5","66961","","<p>Which tone was played fourth after the cadence?</p><p>Please respond as quickly and as accurately as possible!</p>","2","","4","new_stimuli/mp3/melody_^2_^4_v3_v2_v1_v3_v2+_^3_^5+_.mp3"
"","1148","html-button-response","279","1689876","0.0-21.0-5.5","66961","","<p>Which tone was played fifth after the cadence?</p><p>Please respond as quickly and as accurately as possible!</p>","0","","5","new_stimuli/mp3/melody_^2_^4_v3_v2_v1_v3_v2+_^3_^5+_.mp3"
"","2843","html-button-response","280","1692720","0.0-21.0-6.5","66961","","<p>Which tone was played sixth after the cadence?</p><p>Please respond as quickly and as accurately as possible!</p>","3","","6","new_stimuli/mp3/melody_^2_^4_v3_v2_v1_v3_v2+_^3_^5+_.mp3"
"","2176","html-button-response","281","1694898","0.0-21.0-7.5","66961","","<p>Which tone was played seventh after the cadence?</p><p>Please respond as quickly and as accurately as possible!</p>","2","","7","new_stimuli/mp3/melody_^2_^4_v3_v2_v1_v3_v2+_^3_^5+_.mp3"
"","1201","html-button-response","282","1696100","0.0-21.0-8.5","66961","","<p>Which tone was played eight after the cadence?</p><p>Please respond as quickly and as accurately as possible!</p>","3","","8","new_stimuli/mp3/melody_^2_^4_v3_v2_v1_v3_v2+_^3_^5+_.mp3"
"","1236","html-button-response","283","1697337","0.0-21.0-9.5","66961","","<p>Which tone was played nineth after the cadence?</p><p>Please respond as quickly and as accurately as possible!</p>","8","","9","new_stimuli/mp3/melody_^2_^4_v3_v2_v1_v3_v2+_^3_^5+_.mp3"
"","null","audio-keyboard-response","284","1710028","0.0-21.0-0.6","66961","","new_stimuli/mp3/melody_^2_^3_^4_^5_^6_v5_v4_v3_v2_buffer.mp3","","null","",""
"","3302","html-button-response","285","1713331","0.0-21.0-1.6","66961","","<p>Which tone was played first after the cadence?</p><p>Please respond as quickly and as accurately as possible!</p>","2","","1","new_stimuli/mp3/melody_^2_^3_^4_^5_^6_v5_v4_v3_v2_buffer.mp3"
"","2121","html-button-response","286","1715453","0.0-21.0-2.6","66961","","<p>Which tone was played second after the cadence?</p><p>Please respond as quickly and as accurately as possible!</p>","4","","2","new_stimuli/mp3/melody_^2_^3_^4_^5_^6_v5_v4_v3_v2_buffer.mp3"
"","925","html-button-response","287","1716380","0.0-21.0-3.6","66961","","<p>Which tone was played third after the cadence?</p><p>Please respond as quickly and as accurately as possible!</p>","5","","3","new_stimuli/mp3/melody_^2_^3_^4_^5_^6_v5_v4_v3_v2_buffer.mp3"
"","772","html-button-response","288","1717152","0.0-21.0-4.6","66961","","<p>Which tone was played fourth after the cadence?</p><p>Please respond as quickly and as accurately as possible!</p>","7","","4","new_stimuli/mp3/melody_^2_^3_^4_^5_^6_v5_v4_v3_v2_buffer.mp3"
"","567","html-button-response","289","1717721","0.0-21.0-5.6","66961","","<p>Which tone was played fifth after the cadence?</p><p>Please respond as quickly and as accurately as possible!</p>","9","","5","new_stimuli/mp3/melody_^2_^3_^4_^5_^6_v5_v4_v3_v2_buffer.mp3"
"","559","html-button-response","290","1718282","0.0-21.0-6.6","66961","","<p>Which tone was played sixth after the cadence?</p><p>Please respond as quickly and as accurately as possible!</p>","7","","6","new_stimuli/mp3/melody_^2_^3_^4_^5_^6_v5_v4_v3_v2_buffer.mp3"
"","755","html-button-response","291","1719037","0.0-21.0-7.6","66961","","<p>Which tone was played seventh after the cadence?</p><p>Please respond as quickly and as accurately as possible!</p>","5","","7","new_stimuli/mp3/melody_^2_^3_^4_^5_^6_v5_v4_v3_v2_buffer.mp3"
"","590","html-button-response","292","1719628","0.0-21.0-8.6","66961","","<p>Which tone was played eight after the cadence?</p><p>Please respond as quickly and as accurately as possible!</p>","4","","8","new_stimuli/mp3/melody_^2_^3_^4_^5_^6_v5_v4_v3_v2_buffer.mp3"
"","749","html-button-response","293","1720377","0.0-21.0-9.6","66961","","<p>Which tone was played nineth after the cadence?</p><p>Please respond as quickly and as accurately as possible!</p>","2","","9","new_stimuli/mp3/melody_^2_^3_^4_^5_^6_v5_v4_v3_v2_buffer.mp3"
"","46460","survey-text","294","1766838","0.0-22.0","66961","{""Q0"":""singing""}","","","","",""
"","8163","survey-text","295","1775002","0.0-23.0","66961","{""Q0"":""very difficult""}","","","","",""
"","3725","survey-text","296","1778730","0.0-24.0","66961","{""Q0"":""no""}","","","","",""
"","5229","survey-text","297","1783961","0.0-25.0","66961","{""Q0"":""headphones""}","","","","",""
"","2512","survey-text","298","1786474","0.0-26.0","66961","{""Q0"":""male""}","","","","",""
"","2055","survey-text","299","1788529","0.0-27.0","66961","{""Q0"":""yes""}","","","","",""
"[{""page_index"":0,""viewing_time"":4168}]","4169","instructions","300","1792700","0.0-28.0","66961","","","","","",""
