"view_history","rt","trial_type","trial_index","time_elapsed","internal_node_id","subject","responses","stimulus","button_pressed","key_press","response_sequence","melody"
"[{""page_index"":0,""viewing_time"":1310.654999999997},{""page_index"":1,""viewing_time"":17154.489999999998},{""page_index"":2,""viewing_time"":1866.4900000000125}]","20333.33","instructions","0","20433","0.0-0.0","69482","","","","","",""
"","3203.464999999993","survey-text","1","23648","0.0-1.0","69482","{""Q0"":""30""}","","","","",""
"","19023.93499999999","survey-text","2","42677","0.0-2.0","69482","{""Q0"":""Took Courses for my Masters""}","","","","",""
"","15571.335000000014","survey-text","3","58251","0.0-3.0","69482","{""Q0"":""Movable Do, La based minor""}","","","","",""
"","11609.375","survey-text","4","69864","0.0-4.0","69482","{""Q0"":""Yes""}","","","","",""
"","12165.424999999988","survey-text","5","82032","0.0-5.0","69482","{""Q0"":""4 semesters""}","","","","",""
"","9829.954999999973","survey-text","6","91866","0.0-6.0","69482","{""Q0"":""0""}","","","","",""
"[{""page_index"":0,""viewing_time"":2436.829999999987},{""page_index"":1,""viewing_time"":33245.42},{""page_index"":2,""viewing_time"":2522.5899999999965}]","38205.62999999999","instructions","7","130073","0.0-7.0","69482","","","","","",""
"","14723.564999999973","audio-button-response","8","144811","0.0-8.0","69482","","stimuli/long/c-do.mp3","0","","",""
"","13406.380000000005","audio-button-response","9","158222","0.0-9.0","69482","","stimuli/long/a-le.mp3","8","","",""
"[{""page_index"":0,""viewing_time"":2595.5449999999837},{""page_index"":1,""viewing_time"":33992.38500000001}]","36588.485000000015","instructions","10","194813","0.0-10.0","69482","","","","","",""
"","10284.520000000048","audio-button-response","11","205108","0.0-11.0-0.0","69482","","stimuli/long/e-do8.mp3","12","","",""
"","14843.689999999973","audio-button-response","12","219957","0.0-11.0-0.1","69482","","stimuli/long/a-fa.mp3","5","","",""
"","13622.524999999994","audio-button-response","13","233583","0.0-11.0-0.2","69482","","stimuli/long/c-fi.mp3","6","","",""
"","11032.460000000021","audio-button-response","14","244621","0.0-11.0-0.3","69482","","stimuli/long/e-me.mp3","3","","",""
"","null","audio-button-response","15","264625","0.0-11.0-0.4","69482","","stimuli/long/c-le.mp3","null","","",""
"","7705.445000000007","audio-button-response","16","272337","0.0-11.0-0.5","69482","","stimuli/long/e-sol.mp3","7","","",""
"","14887.854999999981","audio-button-response","17","287232","0.0-11.0-0.6","69482","","stimuli/long/a-le.mp3","8","","",""
"","12407.454999999958","audio-button-response","18","299644","0.0-11.0-0.7","69482","","stimuli/long/e-ra.mp3","1","","",""
"","11724.454999999958","audio-button-response","19","311373","0.0-11.0-0.8","69482","","stimuli/long/e-ti.mp3","11","","",""
"","12174.294999999984","audio-button-response","20","323552","0.0-11.0-0.9","69482","","stimuli/long/c-fa.mp3","5","","",""
"","15305.450000000012","audio-button-response","21","338862","0.0-11.0-0.10","69482","","stimuli/long/e-te.mp3","8","","",""
"","17520.304999999993","audio-button-response","22","356389","0.0-11.0-0.11","69482","","stimuli/long/a-ti.mp3","10","","",""
"","14380.399999999965","audio-button-response","23","370775","0.0-11.0-0.12","69482","","stimuli/long/c-ra.mp3","1","","",""
"","10106.309999999998","audio-button-response","24","380899","0.0-11.0-0.13","69482","","stimuli/long/a-ra.mp3","1","","",""
"","8694.934999999998","audio-button-response","25","389599","0.0-11.0-0.14","69482","","stimuli/long/c-sol.mp3","7","","",""
"","10825.580000000016","audio-button-response","26","400430","0.0-11.0-0.15","69482","","stimuli/long/c-ti.mp3","11","","",""
"","8022.594999999972","audio-button-response","27","408457","0.0-11.0-0.16","69482","","stimuli/long/c-re.mp3","2","","",""
"","8209.695000000007","audio-button-response","28","416671","0.0-11.0-0.17","69482","","stimuli/long/e-fi.mp3","6","","",""
"","8844.170000000042","audio-button-response","29","425520","0.0-11.0-0.18","69482","","stimuli/long/e-fa.mp3","5","","",""
"","8667.400000000023","audio-button-response","30","434192","0.0-11.0-0.19","69482","","stimuli/long/a-do.mp3","0","","",""
"","7631.48000000004","audio-button-response","31","441829","0.0-11.0-0.20","69482","","stimuli/long/a-sol.mp3","7","","",""
"","15410.359999999928","audio-button-response","32","457245","0.0-11.0-0.21","69482","","stimuli/long/c-mi.mp3","5","","",""
"","16650.469999999914","audio-button-response","33","473900","0.0-11.0-0.22","69482","","stimuli/long/e-le.mp3","8","","",""
"","8327.869999999995","audio-button-response","34","482232","0.0-11.0-0.23","69482","","stimuli/long/e-do.mp3","0","","",""
"","7985.475000000093","audio-button-response","35","490221","0.0-11.0-0.24","69482","","stimuli/long/c-do.mp3","0","","",""
"","7936.549999999988","audio-button-response","36","498162","0.0-11.0-0.25","69482","","stimuli/long/e-mi.mp3","4","","",""
"","8245.084999999963","audio-button-response","37","506412","0.0-11.0-0.26","69482","","stimuli/long/e-re.mp3","2","","",""
"","8166.7249999999185","audio-button-response","38","514583","0.0-11.0-0.27","69482","","stimuli/long/a-do8.mp3","12","","",""
"","16168.810000000056","audio-button-response","39","530757","0.0-11.0-0.28","69482","","stimuli/long/c-la.mp3","9","","",""
"","7600.910000000033","audio-button-response","40","538363","0.0-11.0-0.29","69482","","stimuli/long/a-fi.mp3","6","","",""
"","7668.149999999907","audio-button-response","41","546036","0.0-11.0-0.30","69482","","stimuli/long/c-do8.mp3","12","","",""
"","11302.66499999992","audio-button-response","42","557345","0.0-11.0-0.31","69482","","stimuli/long/a-la.mp3","9","","",""
"","null","audio-button-response","43","577349","0.0-11.0-0.32","69482","","stimuli/long/a-me.mp3","null","","",""
"","12758.31500000006","audio-button-response","44","590112","0.0-11.0-0.33","69482","","stimuli/long/e-la.mp3","9","","",""
"","10896.254999999888","audio-button-response","45","601013","0.0-11.0-0.34","69482","","stimuli/long/c-me.mp3","3","","",""
"","14917.119999999995","audio-button-response","46","615937","0.0-11.0-0.35","69482","","stimuli/long/a-te.mp3","10","","",""
"","11633.30999999994","audio-button-response","47","627596","0.0-11.0-0.36","69482","","stimuli/long/a-re.mp3","2","","",""
"","9407.844999999972","audio-button-response","48","637009","0.0-11.0-0.37","69482","","stimuli/long/a-mi.mp3","4","","",""
"[{""page_index"":0,""viewing_time"":38700.22500000009},{""page_index"":1,""viewing_time"":1713.8499999999767}]","40414.87500000012","instructions","49","677425","0.0-12.0","69482","","","","","",""
"","null","audio-keyboard-response","50","686733","0.0-13.0-0.0","69482","","new_stimuli/mp3/melody_3_^6_buffer.mp3","","null","",""
"","10001.095000000088","html-button-response","51","696739","0.0-13.0-1.0","69482","","<p>Which tone was played first after the cadence?</p><p>Please respond as quickly and as accurately as possible!</p>","7","","1","new_stimuli/mp3/melody_3_^6_buffer.mp3"
"","1516.5949999998556","html-button-response","52","698279","0.0-13.0-2.0","69482","","<p>Which tone was played second after the cadence?</p><p>Please respond as quickly and as accurately as possible!</p>","9","","2","new_stimuli/mp3/melody_3_^6_buffer.mp3"
"","null","audio-keyboard-response","53","707478","0.0-13.0-0.1","69482","","new_stimuli/mp3/melody_v3_v2_buffer.mp3","","null","",""
"","1899.7799999999115","html-button-response","54","709382","0.0-13.0-1.1","69482","","<p>Which tone was played first after the cadence?</p><p>Please respond as quickly and as accurately as possible!</p>","4","","1","new_stimuli/mp3/melody_v3_v2_buffer.mp3"
"","1079.484999999986","html-button-response","55","710465","0.0-13.0-2.1","69482","","<p>Which tone was played second after the cadence?</p><p>Please respond as quickly and as accurately as possible!</p>","2","","2","new_stimuli/mp3/melody_v3_v2_buffer.mp3"
"","null","audio-keyboard-response","56","719638","0.0-13.0-0.2","69482","","new_stimuli/mp3/melody_^5_^1+_.mp3","","null","",""
"","4635.854999999981","html-button-response","57","724279","0.0-13.0-1.2","69482","","<p>Which tone was played first after the cadence?</p><p>Please respond as quickly and as accurately as possible!</p>","7","","1","new_stimuli/mp3/melody_^5_^1+_.mp3"
"","6551.159999999916","html-button-response","58","730835","0.0-13.0-2.2","69482","","<p>Which tone was played second after the cadence?</p><p>Please respond as quickly and as accurately as possible!</p>","11","","2","new_stimuli/mp3/melody_^5_^1+_.mp3"
"","null","audio-keyboard-response","59","740267","0.0-13.0-0.3","69482","","new_stimuli/mp3/melody_v4_v3_buffer.mp3","","null","",""
"","1258.7449999999953","html-button-response","60","741530","0.0-13.0-1.3","69482","","<p>Which tone was played first after the cadence?</p><p>Please respond as quickly and as accurately as possible!</p>","5","","1","new_stimuli/mp3/melody_v4_v3_buffer.mp3"
"","1114.8800000000047","html-button-response","61","742648","0.0-13.0-2.3","69482","","<p>Which tone was played second after the cadence?</p><p>Please respond as quickly and as accurately as possible!</p>","4","","2","new_stimuli/mp3/melody_v4_v3_buffer.mp3"
"","null","audio-keyboard-response","62","752107","0.0-13.0-0.4","69482","","new_stimuli/mp3/melody_v7_v3_buffer.mp3","","null","",""
"","8830.884999999893","html-button-response","63","760943","0.0-13.0-1.4","69482","","<p>Which tone was played first after the cadence?</p><p>Please respond as quickly and as accurately as possible!</p>","11","","1","new_stimuli/mp3/melody_v7_v3_buffer.mp3"
"","12297.334999999963","html-button-response","64","773246","0.0-13.0-2.4","69482","","<p>Which tone was played second after the cadence?</p><p>Please respond as quickly and as accurately as possible!</p>","5","","2","new_stimuli/mp3/melody_v7_v3_buffer.mp3"
"","null","audio-keyboard-response","65","782314","0.0-13.0-0.5","69482","","new_stimuli/mp3/melody_v2_v1_.mp3","","null","",""
"","1265.240000000107","html-button-response","66","783584","0.0-13.0-1.5","69482","","<p>Which tone was played first after the cadence?</p><p>Please respond as quickly and as accurately as possible!</p>","2","","1","new_stimuli/mp3/melody_v2_v1_.mp3"
"","1183.7750000001397","html-button-response","67","784772","0.0-13.0-2.5","69482","","<p>Which tone was played second after the cadence?</p><p>Please respond as quickly and as accurately as possible!</p>","0","","2","new_stimuli/mp3/melody_v2_v1_.mp3"
"","null","audio-keyboard-response","68","793940","0.0-13.0-0.6","69482","","new_stimuli/mp3/melody_v5_v1+_.mp3","","null","",""
"","2090.664999999921","html-button-response","69","796035","0.0-13.0-1.6","69482","","<p>Which tone was played first after the cadence?</p><p>Please respond as quickly and as accurately as possible!</p>","7","","1","new_stimuli/mp3/melody_v5_v1+_.mp3"
"","1567.6000000000931","html-button-response","70","797606","0.0-13.0-2.6","69482","","<p>Which tone was played second after the cadence?</p><p>Please respond as quickly and as accurately as possible!</p>","1","","2","new_stimuli/mp3/melody_v5_v1+_.mp3"
"","null","audio-keyboard-response","71","807060","0.0-13.0-0.7","69482","","new_stimuli/mp3/melody_^3_v4+_buffer.mp3","","null","",""
"","2239.109999999986","html-button-response","72","809303","0.0-13.0-1.7","69482","","<p>Which tone was played first after the cadence?</p><p>Please respond as quickly and as accurately as possible!</p>","4","","1","new_stimuli/mp3/melody_^3_v4+_buffer.mp3"
"","1203.7450000001118","html-button-response","73","810511","0.0-13.0-2.7","69482","","<p>Which tone was played second after the cadence?</p><p>Please respond as quickly and as accurately as possible!</p>","6","","2","new_stimuli/mp3/melody_^3_v4+_buffer.mp3"
"","null","audio-keyboard-response","74","819519","0.0-13.0-0.8","69482","","new_stimuli/mp3/melody_^1_^2+_.mp3","","null","",""
"","832.5350000000326","html-button-response","75","820355","0.0-13.0-1.8","69482","","<p>Which tone was played first after the cadence?</p><p>Please respond as quickly and as accurately as possible!</p>","0","","1","new_stimuli/mp3/melody_^1_^2+_.mp3"
"","1185.5949999998556","html-button-response","76","821545","0.0-13.0-2.8","69482","","<p>Which tone was played second after the cadence?</p><p>Please respond as quickly and as accurately as possible!</p>","3","","2","new_stimuli/mp3/melody_^1_^2+_.mp3"
"","null","audio-keyboard-response","77","830719","0.0-13.0-0.9","69482","","new_stimuli/mp3/melody_^2_v7-_.mp3","","null","",""
"","1531.3400000000838","html-button-response","78","832254","0.0-13.0-1.9","69482","","<p>Which tone was played first after the cadence?</p><p>Please respond as quickly and as accurately as possible!</p>","2","","1","new_stimuli/mp3/melody_^2_v7-_.mp3"
"","2075.319999999949","html-button-response","79","834345","0.0-13.0-2.9","69482","","<p>Which tone was played second after the cadence?</p><p>Please respond as quickly and as accurately as possible!</p>","10","","2","new_stimuli/mp3/melody_^2_v7-_.mp3"
"[{""page_index"":0,""viewing_time"":5522.974999999977},{""page_index"":1,""viewing_time"":1315.905000000028},{""page_index"":2,""viewing_time"":1651.109999999986}]","8490.814999999944","instructions","80","842837","0.0-14.0","69482","","","","","",""
"","null","audio-keyboard-response","81","852532","0.0-15.0-0.0","69482","","new_stimuli/mp3/melody_v4_v3_v2_buffer.mp3","","null","",""
"","1167.25","html-button-response","82","853703","0.0-15.0-1.0","69482","","<p>Which tone was played first after the cadence?</p><p>Please respond as quickly and as accurately as possible!</p>","5","","1","new_stimuli/mp3/melody_v4_v3_v2_buffer.mp3"
"","716.5550000000512","html-button-response","83","854424","0.0-15.0-2.0","69482","","<p>Which tone was played second after the cadence?</p><p>Please respond as quickly and as accurately as possible!</p>","4","","2","new_stimuli/mp3/melody_v4_v3_v2_buffer.mp3"
"","783.9399999999441","html-button-response","84","855216","0.0-15.0-3.0","69482","","<p>Which tone was played third after the cadence?</p><p>Please respond as quickly and as accurately as possible!</p>","2","","3","new_stimuli/mp3/melody_v4_v3_v2_buffer.mp3"
"","null","audio-keyboard-response","85","864852","0.0-15.0-0.1","69482","","new_stimuli/mp3/melody_6_^1_v5_.mp3","","null","",""
"","1576.8349999999627","html-button-response","86","866432","0.0-15.0-1.1","69482","","<p>Which tone was played first after the cadence?</p><p>Please respond as quickly and as accurately as possible!</p>","9","","1","new_stimuli/mp3/melody_6_^1_v5_.mp3"
"","1002.3200000000652","html-button-response","87","867439","0.0-15.0-2.1","69482","","<p>Which tone was played second after the cadence?</p><p>Please respond as quickly and as accurately as possible!</p>","12","","2","new_stimuli/mp3/melody_6_^1_v5_.mp3"
"","1537.7900000001537","html-button-response","88","868981","0.0-15.0-3.1","69482","","<p>Which tone was played third after the cadence?</p><p>Please respond as quickly and as accurately as possible!</p>","7","","3","new_stimuli/mp3/melody_6_^1_v5_.mp3"
"","null","audio-keyboard-response","89","878548","0.0-15.0-0.2","69482","","new_stimuli/mp3/melody_v3_v2_v1_.mp3","","null","",""
"","1608.7149999999674","html-button-response","90","880161","0.0-15.0-1.2","69482","","<p>Which tone was played first after the cadence?</p><p>Please respond as quickly and as accurately as possible!</p>","4","","1","new_stimuli/mp3/melody_v3_v2_v1_.mp3"
"","960.7050000000745","html-button-response","91","881125","0.0-15.0-2.2","69482","","<p>Which tone was played second after the cadence?</p><p>Please respond as quickly and as accurately as possible!</p>","2","","2","new_stimuli/mp3/melody_v3_v2_v1_.mp3"
"","937.9400000000605","html-button-response","92","882066","0.0-15.0-3.2","69482","","<p>Which tone was played third after the cadence?</p><p>Please respond as quickly and as accurately as possible!</p>","0","","3","new_stimuli/mp3/melody_v3_v2_v1_.mp3"
"","null","audio-keyboard-response","93","891625","0.0-15.0-0.3","69482","","new_stimuli/mp3/melody_v1_v7-_^7_.mp3","","null","",""
"","1581.8700000001118","html-button-response","94","893213","0.0-15.0-1.3","69482","","<p>Which tone was played first after the cadence?</p><p>Please respond as quickly and as accurately as possible!</p>","12","","1","new_stimuli/mp3/melody_v1_v7-_^7_.mp3"
"","3401.609999999986","html-button-response","95","896619","0.0-15.0-2.3","69482","","<p>Which tone was played second after the cadence?</p><p>Please respond as quickly and as accurately as possible!</p>","10","","2","new_stimuli/mp3/melody_v1_v7-_^7_.mp3"
"","752.6350000000093","html-button-response","96","897376","0.0-15.0-3.3","69482","","<p>Which tone was played third after the cadence?</p><p>Please respond as quickly and as accurately as possible!</p>","11","","3","new_stimuli/mp3/melody_v1_v7-_^7_.mp3"
"","null","audio-keyboard-response","97","906888","0.0-15.0-0.4","69482","","new_stimuli/mp3/melody_1_v1+_^2_.mp3","","null","",""
"","1071.740000000107","html-button-response","98","907988","0.0-15.0-1.4","69482","","<p>Which tone was played first after the cadence?</p><p>Please respond as quickly and as accurately as possible!</p>","0","","1","new_stimuli/mp3/melody_1_v1+_^2_.mp3"
"","782.890000000014","html-button-response","99","908774","0.0-15.0-2.4","69482","","<p>Which tone was played second after the cadence?</p><p>Please respond as quickly and as accurately as possible!</p>","1","","2","new_stimuli/mp3/melody_1_v1+_^2_.mp3"
"","580.4200000000419","html-button-response","100","909358","0.0-15.0-3.4","69482","","<p>Which tone was played third after the cadence?</p><p>Please respond as quickly and as accurately as possible!</p>","2","","3","new_stimuli/mp3/melody_1_v1+_^2_.mp3"
"","null","audio-keyboard-response","101","919263","0.0-15.0-0.5","69482","","new_stimuli/mp3/melody_^1_v6_v5+_.mp3","","null","",""
"","1082.2499999998836","html-button-response","102","920349","0.0-15.0-1.5","69482","","<p>Which tone was played first after the cadence?</p><p>Please respond as quickly and as accurately as possible!</p>","12","","1","new_stimuli/mp3/melody_^1_v6_v5+_.mp3"
"","1228.7850000000326","html-button-response","103","921583","0.0-15.0-2.5","69482","","<p>Which tone was played second after the cadence?</p><p>Please respond as quickly and as accurately as possible!</p>","9","","2","new_stimuli/mp3/melody_^1_v6_v5+_.mp3"
"","804.1350000000093","html-button-response","104","922392","0.0-15.0-3.5","69482","","<p>Which tone was played third after the cadence?</p><p>Please respond as quickly and as accurately as possible!</p>","8","","3","new_stimuli/mp3/melody_^1_v6_v5+_.mp3"
"","null","audio-keyboard-response","105","931978","0.0-15.0-0.6","69482","","new_stimuli/mp3/melody_v1_v7-_7-_buffer.mp3","","null","",""
"","953.4649999999674","html-button-response","106","932936","0.0-15.0-1.6","69482","","<p>Which tone was played first after the cadence?</p><p>Please respond as quickly and as accurately as possible!</p>","12","","1","new_stimuli/mp3/melody_v1_v7-_7-_buffer.mp3"
"","991.0249999999069","html-button-response","107","933932","0.0-15.0-2.6","69482","","<p>Which tone was played second after the cadence?</p><p>Please respond as quickly and as accurately as possible!</p>","10","","2","new_stimuli/mp3/melody_v1_v7-_7-_buffer.mp3"
"","234.44499999994878","html-button-response","108","934170","0.0-15.0-3.6","69482","","<p>Which tone was played third after the cadence?</p><p>Please respond as quickly and as accurately as possible!</p>","10","","3","new_stimuli/mp3/melody_v1_v7-_7-_buffer.mp3"
"","null","audio-keyboard-response","109","944127","0.0-15.0-0.7","69482","","new_stimuli/mp3/melody_v5_v4_v3_buffer.mp3","","null","",""
"","1053.6149999999907","html-button-response","110","945184","0.0-15.0-1.7","69482","","<p>Which tone was played first after the cadence?</p><p>Please respond as quickly and as accurately as possible!</p>","7","","1","new_stimuli/mp3/melody_v5_v4_v3_buffer.mp3"
"","848.7749999999069","html-button-response","111","946037","0.0-15.0-2.7","69482","","<p>Which tone was played second after the cadence?</p><p>Please respond as quickly and as accurately as possible!</p>","5","","2","new_stimuli/mp3/melody_v5_v4_v3_buffer.mp3"
"","846.7899999999208","html-button-response","112","946888","0.0-15.0-3.7","69482","","<p>Which tone was played third after the cadence?</p><p>Please respond as quickly and as accurately as possible!</p>","4","","3","new_stimuli/mp3/melody_v5_v4_v3_buffer.mp3"
"","null","audio-keyboard-response","113","956874","0.0-15.0-0.8","69482","","new_stimuli/mp3/melody_v2_v5_^3_buffer.mp3","","null","",""
"","1596.9700000000885","html-button-response","114","958475","0.0-15.0-1.8","69482","","<p>Which tone was played first after the cadence?</p><p>Please respond as quickly and as accurately as possible!</p>","2","","1","new_stimuli/mp3/melody_v2_v5_^3_buffer.mp3"
"","1622.1000000000931","html-button-response","115","960100","0.0-15.0-2.8","69482","","<p>Which tone was played second after the cadence?</p><p>Please respond as quickly and as accurately as possible!</p>","7","","2","new_stimuli/mp3/melody_v2_v5_^3_buffer.mp3"
"","949.0949999998556","html-button-response","116","961054","0.0-15.0-3.8","69482","","<p>Which tone was played third after the cadence?</p><p>Please respond as quickly and as accurately as possible!</p>","4","","3","new_stimuli/mp3/melody_v2_v5_^3_buffer.mp3"
"[{""page_index"":0,""viewing_time"":3357.7750000000233},{""page_index"":1,""viewing_time"":810.0500000000466},{""page_index"":2,""viewing_time"":1066.015000000014}]","5234.310000000056","instructions","117","966290","0.0-16.0","69482","","","","","",""
"","null","audio-keyboard-response","118","976873","0.0-17.0-0.0","69482","","new_stimuli/mp3/melody_v5_v4_v3_v2_v1_.mp3","","null","",""
"","1582.969999999972","html-button-response","119","978460","0.0-17.0-1.0","69482","","<p>Which tone was played first after the cadence?</p><p>Please respond as quickly and as accurately as possible!</p>","7","","1","new_stimuli/mp3/melody_v5_v4_v3_v2_v1_.mp3"
"","937.2449999999953","html-button-response","120","979402","0.0-17.0-2.0","69482","","<p>Which tone was played second after the cadence?</p><p>Please respond as quickly and as accurately as possible!</p>","5","","2","new_stimuli/mp3/melody_v5_v4_v3_v2_v1_.mp3"
"","1085.8549999999814","html-button-response","121","980491","0.0-17.0-3.0","69482","","<p>Which tone was played third after the cadence?</p><p>Please respond as quickly and as accurately as possible!</p>","4","","3","new_stimuli/mp3/melody_v5_v4_v3_v2_v1_.mp3"
"","880.5350000000326","html-button-response","122","981375","0.0-17.0-4.0","69482","","<p>Which tone was played fourth after the cadence?</p><p>Please respond as quickly and as accurately as possible!</p>","2","","4","new_stimuli/mp3/melody_v5_v4_v3_v2_v1_.mp3"
"","184.65500000002794","html-button-response","123","981564","0.0-17.0-5.0","69482","","<p>Which tone was played fifth after the cadence?</p><p>Please respond as quickly and as accurately as possible!</p>","2","","5","new_stimuli/mp3/melody_v5_v4_v3_v2_v1_.mp3"
"","null","audio-keyboard-response","124","992191","0.0-17.0-0.1","69482","","new_stimuli/mp3/melody_^6_v4_v3_^4_^5_.mp3","","null","",""
"","2561.3599999998696","html-button-response","125","994759","0.0-17.0-1.1","69482","","<p>Which tone was played first after the cadence?</p><p>Please respond as quickly and as accurately as possible!</p>","9","","1","new_stimuli/mp3/melody_^6_v4_v3_^4_^5_.mp3"
"","1353.984999999986","html-button-response","126","996117","0.0-17.0-2.1","69482","","<p>Which tone was played second after the cadence?</p><p>Please respond as quickly and as accurately as possible!</p>","5","","2","new_stimuli/mp3/melody_^6_v4_v3_^4_^5_.mp3"
"","777.3800000000047","html-button-response","127","996898","0.0-17.0-3.1","69482","","<p>Which tone was played third after the cadence?</p><p>Please respond as quickly and as accurately as possible!</p>","4","","3","new_stimuli/mp3/melody_^6_v4_v3_^4_^5_.mp3"
"","1080.0550000000512","html-button-response","128","997982","0.0-17.0-4.1","69482","","<p>Which tone was played fourth after the cadence?</p><p>Please respond as quickly and as accurately as possible!</p>","5","","4","new_stimuli/mp3/melody_^6_v4_v3_^4_^5_.mp3"
"","1071.2800000001444","html-button-response","129","999057","0.0-17.0-5.1","69482","","<p>Which tone was played fifth after the cadence?</p><p>Please respond as quickly and as accurately as possible!</p>","7","","5","new_stimuli/mp3/melody_^6_v4_v3_^4_^5_.mp3"
"","null","audio-keyboard-response","130","1010004","0.0-17.0-0.2","69482","","new_stimuli/mp3/melody_^5_^6_v5_v4_v3_buffer.mp3","","null","",""
"","1771.7300000002142","html-button-response","131","1011779","0.0-17.0-1.2","69482","","<p>Which tone was played first after the cadence?</p><p>Please respond as quickly and as accurately as possible!</p>","7","","1","new_stimuli/mp3/melody_^5_^6_v5_v4_v3_buffer.mp3"
"","1225.5299999999115","html-button-response","132","1013008","0.0-17.0-2.2","69482","","<p>Which tone was played second after the cadence?</p><p>Please respond as quickly and as accurately as possible!</p>","9","","2","new_stimuli/mp3/melody_^5_^6_v5_v4_v3_buffer.mp3"
"","1246.015000000014","html-button-response","133","1014258","0.0-17.0-3.2","69482","","<p>Which tone was played third after the cadence?</p><p>Please respond as quickly and as accurately as possible!</p>","7","","3","new_stimuli/mp3/melody_^5_^6_v5_v4_v3_buffer.mp3"
"","1190.7100000000792","html-button-response","134","1015454","0.0-17.0-4.2","69482","","<p>Which tone was played fourth after the cadence?</p><p>Please respond as quickly and as accurately as possible!</p>","5","","4","new_stimuli/mp3/melody_^5_^6_v5_v4_v3_buffer.mp3"
"","1158.7249999999767","html-button-response","135","1016617","0.0-17.0-5.2","69482","","<p>Which tone was played fifth after the cadence?</p><p>Please respond as quickly and as accurately as possible!</p>","4","","5","new_stimuli/mp3/melody_^5_^6_v5_v4_v3_buffer.mp3"
"","null","audio-keyboard-response","136","1027251","0.0-17.0-0.3","69482","","new_stimuli/mp3/melody_v5_^6+_^7_^1_5_.mp3","","null","",""
"","2006.7899999999208","html-button-response","137","1029262","0.0-17.0-1.3","69482","","<p>Which tone was played first after the cadence?</p><p>Please respond as quickly and as accurately as possible!</p>","7","","1","new_stimuli/mp3/melody_v5_^6+_^7_^1_5_.mp3"
"","1884.2499999998836","html-button-response","138","1031150","0.0-17.0-2.3","69482","","<p>Which tone was played second after the cadence?</p><p>Please respond as quickly and as accurately as possible!</p>","9","","2","new_stimuli/mp3/melody_v5_^6+_^7_^1_5_.mp3"
"","1045.640000000014","html-button-response","139","1032200","0.0-17.0-3.3","69482","","<p>Which tone was played third after the cadence?</p><p>Please respond as quickly and as accurately as possible!</p>","11","","3","new_stimuli/mp3/melody_v5_^6+_^7_^1_5_.mp3"
"","1651.4049999999115","html-button-response","140","1033856","0.0-17.0-4.3","69482","","<p>Which tone was played fourth after the cadence?</p><p>Please respond as quickly and as accurately as possible!</p>","12","","4","new_stimuli/mp3/melody_v5_^6+_^7_^1_5_.mp3"
"","1413.059999999823","html-button-response","141","1035273","0.0-17.0-5.3","69482","","<p>Which tone was played fifth after the cadence?</p><p>Please respond as quickly and as accurately as possible!</p>","7","","5","new_stimuli/mp3/melody_v5_^6+_^7_^1_5_.mp3"
"","null","audio-keyboard-response","142","1045992","0.0-17.0-0.4","69482","","new_stimuli/mp3/melody_^6_v5_v4_v3_v2_buffer.mp3","","null","",""
"","1364.4250000000466","html-button-response","143","1047360","0.0-17.0-1.4","69482","","<p>Which tone was played first after the cadence?</p><p>Please respond as quickly and as accurately as possible!</p>","9","","1","new_stimuli/mp3/melody_^6_v5_v4_v3_v2_buffer.mp3"
"","1583.4999999997672","html-button-response","144","1048950","0.0-17.0-2.4","69482","","<p>Which tone was played second after the cadence?</p><p>Please respond as quickly and as accurately as possible!</p>","7","","2","new_stimuli/mp3/melody_^6_v5_v4_v3_v2_buffer.mp3"
"","1880.405000000028","html-button-response","145","1050835","0.0-17.0-3.4","69482","","<p>Which tone was played third after the cadence?</p><p>Please respond as quickly and as accurately as possible!</p>","5","","3","new_stimuli/mp3/melody_^6_v5_v4_v3_v2_buffer.mp3"
"","1007.8850000000093","html-button-response","146","1051846","0.0-17.0-4.4","69482","","<p>Which tone was played fourth after the cadence?</p><p>Please respond as quickly and as accurately as possible!</p>","4","","4","new_stimuli/mp3/melody_^6_v5_v4_v3_v2_buffer.mp3"
"","2458.2399999999907","html-button-response","147","1054308","0.0-17.0-5.4","69482","","<p>Which tone was played fifth after the cadence?</p><p>Please respond as quickly and as accurately as possible!</p>","2","","5","new_stimuli/mp3/melody_^6_v5_v4_v3_v2_buffer.mp3"
"","null","audio-keyboard-response","148","1064883","0.0-17.0-0.5","69482","","new_stimuli/mp3/melody_v5_v4_v3_v2_v1 _buffer.mp3","","null","",""
"","1340.2949999999255","html-button-response","149","1066227","0.0-17.0-1.5","69482","","<p>Which tone was played first after the cadence?</p><p>Please respond as quickly and as accurately as possible!</p>","7","","1","new_stimuli/mp3/melody_v5_v4_v3_v2_v1 _buffer.mp3"
"","1359.9500000001863","html-button-response","150","1067591","0.0-17.0-2.5","69482","","<p>Which tone was played second after the cadence?</p><p>Please respond as quickly and as accurately as possible!</p>","5","","2","new_stimuli/mp3/melody_v5_v4_v3_v2_v1 _buffer.mp3"
"","996.0699999998324","html-button-response","151","1068591","0.0-17.0-3.5","69482","","<p>Which tone was played third after the cadence?</p><p>Please respond as quickly and as accurately as possible!</p>","4","","3","new_stimuli/mp3/melody_v5_v4_v3_v2_v1 _buffer.mp3"
"","1898.4850000001024","html-button-response","152","1070496","0.0-17.0-4.5","69482","","<p>Which tone was played fourth after the cadence?</p><p>Please respond as quickly and as accurately as possible!</p>","2","","4","new_stimuli/mp3/melody_v5_v4_v3_v2_v1 _buffer.mp3"
"","1585.1100000001024","html-button-response","153","1072084","0.0-17.0-5.5","69482","","<p>Which tone was played fifth after the cadence?</p><p>Please respond as quickly and as accurately as possible!</p>","0","","5","new_stimuli/mp3/melody_v5_v4_v3_v2_v1 _buffer.mp3"
"","null","audio-keyboard-response","154","1082696","0.0-17.0-0.6","69482","","new_stimuli/mp3/melody_v2_2_^3_^4_v2_.mp3","","null","",""
"","2195.659999999916","html-button-response","155","1084896","0.0-17.0-1.6","69482","","<p>Which tone was played first after the cadence?</p><p>Please respond as quickly and as accurately as possible!</p>","2","","1","new_stimuli/mp3/melody_v2_2_^3_^4_v2_.mp3"
"","900.7899999998044","html-button-response","156","1085800","0.0-17.0-2.6","69482","","<p>Which tone was played second after the cadence?</p><p>Please respond as quickly and as accurately as possible!</p>","2","","2","new_stimuli/mp3/melody_v2_2_^3_^4_v2_.mp3"
"","1581.4500000001863","html-button-response","157","1087386","0.0-17.0-3.6","69482","","<p>Which tone was played third after the cadence?</p><p>Please respond as quickly and as accurately as possible!</p>","4","","3","new_stimuli/mp3/melody_v2_2_^3_^4_v2_.mp3"
"","1515.2950000001583","html-button-response","158","1088905","0.0-17.0-4.6","69482","","<p>Which tone was played fourth after the cadence?</p><p>Please respond as quickly and as accurately as possible!</p>","5","","4","new_stimuli/mp3/melody_v2_2_^3_^4_v2_.mp3"
"","2569.4950000001118","html-button-response","159","1091478","0.0-17.0-5.6","69482","","<p>Which tone was played fifth after the cadence?</p><p>Please respond as quickly and as accurately as possible!</p>","2","","5","new_stimuli/mp3/melody_v2_2_^3_^4_v2_.mp3"
"","null","audio-keyboard-response","160","1102429","0.0-17.0-0.7","69482","","new_stimuli/mp3/melody_v5-_v3_3_^4+_v3_.mp3","","null","",""
"","2486.1399999998976","html-button-response","161","1104920","0.0-17.0-1.7","69482","","<p>Which tone was played first after the cadence?</p><p>Please respond as quickly and as accurately as possible!</p>","6","","1","new_stimuli/mp3/melody_v5-_v3_3_^4+_v3_.mp3"
"","2557.0150000001304","html-button-response","162","1107481","0.0-17.0-2.7","69482","","<p>Which tone was played second after the cadence?</p><p>Please respond as quickly and as accurately as possible!</p>","4","","2","new_stimuli/mp3/melody_v5-_v3_3_^4+_v3_.mp3"
"","622.4549999998417","html-button-response","163","1108107","0.0-17.0-3.7","69482","","<p>Which tone was played third after the cadence?</p><p>Please respond as quickly and as accurately as possible!</p>","4","","3","new_stimuli/mp3/melody_v5-_v3_3_^4+_v3_.mp3"
"","1211.0550000001676","html-button-response","164","1109322","0.0-17.0-4.7","69482","","<p>Which tone was played fourth after the cadence?</p><p>Please respond as quickly and as accurately as possible!</p>","6","","4","new_stimuli/mp3/melody_v5-_v3_3_^4+_v3_.mp3"
"","3386.0850000001956","html-button-response","165","1112712","0.0-17.0-5.7","69482","","<p>Which tone was played fifth after the cadence?</p><p>Please respond as quickly and as accurately as possible!</p>","4","","5","new_stimuli/mp3/melody_v5-_v3_3_^4+_v3_.mp3"
"[{""page_index"":0,""viewing_time"":2615.1049999999814},{""page_index"":1,""viewing_time"":1090.2700000000186},{""page_index"":2,""viewing_time"":625.5550000001676}]","4331.535000000149","instructions","166","1117045","0.0-18.0","69482","","","","","",""
"","null","audio-keyboard-response","167","1128722","0.0-19.0-0.0","69482","","new_stimuli/mp3/melody_^4_v6-_v5-_^6-_^4_v2-_2-_.mp3","","null","",""
"","2731.064999999944","html-button-response","168","1131457","0.0-19.0-1.0","69482","","<p>Which tone was played first after the cadence?</p><p>Please respond as quickly and as accurately as possible!</p>","5","","1","new_stimuli/mp3/melody_^4_v6-_v5-_^6-_^4_v2-_2-_.mp3"
"","1789.5449999999255","html-button-response","169","1133251","0.0-19.0-2.0","69482","","<p>Which tone was played second after the cadence?</p><p>Please respond as quickly and as accurately as possible!</p>","10","","2","new_stimuli/mp3/melody_^4_v6-_v5-_^6-_^4_v2-_2-_.mp3"
"","2329.7349999998696","html-button-response","170","1135585","0.0-19.0-3.0","69482","","<p>Which tone was played third after the cadence?</p><p>Please respond as quickly and as accurately as possible!</p>","8","","3","new_stimuli/mp3/melody_^4_v6-_v5-_^6-_^4_v2-_2-_.mp3"
"","1096.1050000002142","html-button-response","171","1136685","0.0-19.0-4.0","69482","","<p>Which tone was played fourth after the cadence?</p><p>Please respond as quickly and as accurately as possible!</p>","10","","4","new_stimuli/mp3/melody_^4_v6-_v5-_^6-_^4_v2-_2-_.mp3"
"","2787.344999999972","html-button-response","172","1139476","0.0-19.0-5.0","69482","","<p>Which tone was played fifth after the cadence?</p><p>Please respond as quickly and as accurately as possible!</p>","5","","5","new_stimuli/mp3/melody_^4_v6-_v5-_^6-_^4_v2-_2-_.mp3"
"","2118.090000000084","html-button-response","173","1141598","0.0-19.0-6.0","69482","","<p>Which tone was played sixth after the cadence?</p><p>Please respond as quickly and as accurately as possible!</p>","2","","6","new_stimuli/mp3/melody_^4_v6-_v5-_^6-_^4_v2-_2-_.mp3"
"","924.4999999997672","html-button-response","174","1142527","0.0-19.0-7.0","69482","","<p>Which tone was played seventh after the cadence?</p><p>Please respond as quickly and as accurately as possible!</p>","2","","7","new_stimuli/mp3/melody_^4_v6-_v5-_^6-_^4_v2-_2-_.mp3"
"","null","audio-keyboard-response","175","1154493","0.0-19.0-0.1","69482","","new_stimuli/mp3/melody_1_^3_v1_^5_v3_v2_^3_.mp3","","null","",""
"","1943.655000000028","html-button-response","176","1156440","0.0-19.0-1.1","69482","","<p>Which tone was played first after the cadence?</p><p>Please respond as quickly and as accurately as possible!</p>","0","","1","new_stimuli/mp3/melody_1_^3_v1_^5_v3_v2_^3_.mp3"
"","1551.4450000000652","html-button-response","177","1157995","0.0-19.0-2.1","69482","","<p>Which tone was played second after the cadence?</p><p>Please respond as quickly and as accurately as possible!</p>","2","","2","new_stimuli/mp3/melody_1_^3_v1_^5_v3_v2_^3_.mp3"
"","2302.1899999997113","html-button-response","178","1160301","0.0-19.0-3.1","69482","","<p>Which tone was played third after the cadence?</p><p>Please respond as quickly and as accurately as possible!</p>","0","","3","new_stimuli/mp3/melody_1_^3_v1_^5_v3_v2_^3_.mp3"
"","1998.9800000002142","html-button-response","179","1162303","0.0-19.0-4.1","69482","","<p>Which tone was played fourth after the cadence?</p><p>Please respond as quickly and as accurately as possible!</p>","7","","4","new_stimuli/mp3/melody_1_^3_v1_^5_v3_v2_^3_.mp3"
"","1050.3549999999814","html-button-response","180","1163357","0.0-19.0-5.1","69482","","<p>Which tone was played fifth after the cadence?</p><p>Please respond as quickly and as accurately as possible!</p>","4","","5","new_stimuli/mp3/melody_1_^3_v1_^5_v3_v2_^3_.mp3"
"","949.8349999999627","html-button-response","181","1164310","0.0-19.0-6.1","69482","","<p>Which tone was played sixth after the cadence?</p><p>Please respond as quickly and as accurately as possible!</p>","2","","6","new_stimuli/mp3/melody_1_^3_v1_^5_v3_v2_^3_.mp3"
"","1105.3049999999348","html-button-response","182","1165419","0.0-19.0-7.1","69482","","<p>Which tone was played seventh after the cadence?</p><p>Please respond as quickly and as accurately as possible!</p>","4","","7","new_stimuli/mp3/melody_1_^3_v1_^5_v3_v2_^3_.mp3"
"","null","audio-keyboard-response","183","1177127","0.0-19.0-0.2","69482","","new_stimuli/mp3/melody_^1_v7_v6_v5_v4_v3_v2_buffer.mp3","","null","",""
"","1262.2099999999627","html-button-response","184","1178393","0.0-19.0-1.2","69482","","<p>Which tone was played first after the cadence?</p><p>Please respond as quickly and as accurately as possible!</p>","12","","1","new_stimuli/mp3/melody_^1_v7_v6_v5_v4_v3_v2_buffer.mp3"
"","1306.3400000000838","html-button-response","185","1179703","0.0-19.0-2.2","69482","","<p>Which tone was played second after the cadence?</p><p>Please respond as quickly and as accurately as possible!</p>","11","","2","new_stimuli/mp3/melody_^1_v7_v6_v5_v4_v3_v2_buffer.mp3"
"","1069.8600000001024","html-button-response","186","1180777","0.0-19.0-3.2","69482","","<p>Which tone was played third after the cadence?</p><p>Please respond as quickly and as accurately as possible!</p>","9","","3","new_stimuli/mp3/melody_^1_v7_v6_v5_v4_v3_v2_buffer.mp3"
"","1091.5850000001956","html-button-response","187","1181872","0.0-19.0-4.2","69482","","<p>Which tone was played fourth after the cadence?</p><p>Please respond as quickly and as accurately as possible!</p>","7","","4","new_stimuli/mp3/melody_^1_v7_v6_v5_v4_v3_v2_buffer.mp3"
"","1074.3899999998976","html-button-response","188","1182952","0.0-19.0-5.2","69482","","<p>Which tone was played fifth after the cadence?</p><p>Please respond as quickly and as accurately as possible!</p>","5","","5","new_stimuli/mp3/melody_^1_v7_v6_v5_v4_v3_v2_buffer.mp3"
"","890.6400000001304","html-button-response","189","1183846","0.0-19.0-6.2","69482","","<p>Which tone was played sixth after the cadence?</p><p>Please respond as quickly and as accurately as possible!</p>","4","","6","new_stimuli/mp3/melody_^1_v7_v6_v5_v4_v3_v2_buffer.mp3"
"","1210.8349999999627","html-button-response","190","1185061","0.0-19.0-7.2","69482","","<p>Which tone was played seventh after the cadence?</p><p>Please respond as quickly and as accurately as possible!</p>","2","","7","new_stimuli/mp3/melody_^1_v7_v6_v5_v4_v3_v2_buffer.mp3"
"","null","audio-keyboard-response","191","1196722","0.0-19.0-0.3","69482","","new_stimuli/mp3/melody_^6_v5+_v4_^5+_v3_v1_v7-_.mp3","","null","",""
"","3878.2650000001304","html-button-response","192","1200604","0.0-19.0-1.3","69482","","<p>Which tone was played first after the cadence?</p><p>Please respond as quickly and as accurately as possible!</p>","9","","1","new_stimuli/mp3/melody_^6_v5+_v4_^5+_v3_v1_v7-_.mp3"
"","854.315000000177","html-button-response","193","1201462","0.0-19.0-2.3","69482","","<p>Which tone was played second after the cadence?</p><p>Please respond as quickly and as accurately as possible!</p>","8","","2","new_stimuli/mp3/melody_^6_v5+_v4_^5+_v3_v1_v7-_.mp3"
"","920.1700000001583","html-button-response","194","1202388","0.0-19.0-3.3","69482","","<p>Which tone was played third after the cadence?</p><p>Please respond as quickly and as accurately as possible!</p>","6","","3","new_stimuli/mp3/melody_^6_v5+_v4_^5+_v3_v1_v7-_.mp3"
"","1265.7450000001118","html-button-response","195","1203657","0.0-19.0-4.3","69482","","<p>Which tone was played fourth after the cadence?</p><p>Please respond as quickly and as accurately as possible!</p>","8","","4","new_stimuli/mp3/melody_^6_v5+_v4_^5+_v3_v1_v7-_.mp3"
"","2820.475000000093","html-button-response","196","1206481","0.0-19.0-5.3","69482","","<p>Which tone was played fifth after the cadence?</p><p>Please respond as quickly and as accurately as possible!</p>","4","","5","new_stimuli/mp3/melody_^6_v5+_v4_^5+_v3_v1_v7-_.mp3"
"","1472.9900000002235","html-button-response","197","1207958","0.0-19.0-6.3","69482","","<p>Which tone was played sixth after the cadence?</p><p>Please respond as quickly and as accurately as possible!</p>","0","","6","new_stimuli/mp3/melody_^6_v5+_v4_^5+_v3_v1_v7-_.mp3"
"","1206.3549999999814","html-button-response","198","1209168","0.0-19.0-7.3","69482","","<p>Which tone was played seventh after the cadence?</p><p>Please respond as quickly and as accurately as possible!</p>","10","","7","new_stimuli/mp3/melody_^6_v5+_v4_^5+_v3_v1_v7-_.mp3"
"","null","audio-keyboard-response","199","1220882","0.0-19.0-0.4","69482","","new_stimuli/mp3/melody_^4_^5_^6_v5_v4_v3_v2_.mp3","","null","",""
"","2054.780000000028","html-button-response","200","1222942","0.0-19.0-1.4","69482","","<p>Which tone was played first after the cadence?</p><p>Please respond as quickly and as accurately as possible!</p>","7","","1","new_stimuli/mp3/melody_^4_^5_^6_v5_v4_v3_v2_.mp3"
"","1162.7949999999255","html-button-response","201","1224108","0.0-19.0-2.4","69482","","<p>Which tone was played second after the cadence?</p><p>Please respond as quickly and as accurately as possible!</p>","9","","2","new_stimuli/mp3/melody_^4_^5_^6_v5_v4_v3_v2_.mp3"
"","1616.4950000001118","html-button-response","202","1225730","0.0-19.0-3.4","69482","","<p>Which tone was played third after the cadence?</p><p>Please respond as quickly and as accurately as possible!</p>","11","","3","new_stimuli/mp3/melody_^4_^5_^6_v5_v4_v3_v2_.mp3"
"","1128.8000000000466","html-button-response","203","1226862","0.0-19.0-4.4","69482","","<p>Which tone was played fourth after the cadence?</p><p>Please respond as quickly and as accurately as possible!</p>","9","","4","new_stimuli/mp3/melody_^4_^5_^6_v5_v4_v3_v2_.mp3"
"","1109.2450000001118","html-button-response","204","1227976","0.0-19.0-5.4","69482","","<p>Which tone was played fifth after the cadence?</p><p>Please respond as quickly and as accurately as possible!</p>","7","","5","new_stimuli/mp3/melody_^4_^5_^6_v5_v4_v3_v2_.mp3"
"","2741.494999999879","html-button-response","205","1230722","0.0-19.0-6.4","69482","","<p>Which tone was played sixth after the cadence?</p><p>Please respond as quickly and as accurately as possible!</p>","5","","6","new_stimuli/mp3/melody_^4_^5_^6_v5_v4_v3_v2_.mp3"
"","4383.604999999981","html-button-response","206","1235109","0.0-19.0-7.4","69482","","<p>Which tone was played seventh after the cadence?</p><p>Please respond as quickly and as accurately as possible!</p>","2","","7","new_stimuli/mp3/melody_^4_^5_^6_v5_v4_v3_v2_.mp3"
"","null","audio-keyboard-response","207","1246823","0.0-19.0-0.5","69482","","new_stimuli/mp3/melody_v1_^2_v1_v7_^1_^3_v2_.mp3","","null","",""
"","1674.7849999999162","html-button-response","208","1248501","0.0-19.0-1.5","69482","","<p>Which tone was played first after the cadence?</p><p>Please respond as quickly and as accurately as possible!</p>","0","","1","new_stimuli/mp3/melody_v1_^2_v1_v7_^1_^3_v2_.mp3"
"","1513.8899999998976","html-button-response","209","1250022","0.0-19.0-2.5","69482","","<p>Which tone was played second after the cadence?</p><p>Please respond as quickly and as accurately as possible!</p>","2","","2","new_stimuli/mp3/melody_v1_^2_v1_v7_^1_^3_v2_.mp3"
"","1597.594999999972","html-button-response","210","1251624","0.0-19.0-3.5","69482","","<p>Which tone was played third after the cadence?</p><p>Please respond as quickly and as accurately as possible!</p>","0","","3","new_stimuli/mp3/melody_v1_^2_v1_v7_^1_^3_v2_.mp3"
"","1801.4199999999255","html-button-response","211","1253430","0.0-19.0-4.5","69482","","<p>Which tone was played fourth after the cadence?</p><p>Please respond as quickly and as accurately as possible!</p>","11","","4","new_stimuli/mp3/melody_v1_^2_v1_v7_^1_^3_v2_.mp3"
"","1140.0700000000652","html-button-response","212","1254574","0.0-19.0-5.5","69482","","<p>Which tone was played fifth after the cadence?</p><p>Please respond as quickly and as accurately as possible!</p>","12","","5","new_stimuli/mp3/melody_v1_^2_v1_v7_^1_^3_v2_.mp3"
"","1659.7549999998882","html-button-response","213","1256236","0.0-19.0-6.5","69482","","<p>Which tone was played sixth after the cadence?</p><p>Please respond as quickly and as accurately as possible!</p>","3","","6","new_stimuli/mp3/melody_v1_^2_v1_v7_^1_^3_v2_.mp3"
"","2689.5749999999534","html-button-response","214","1258930","0.0-19.0-7.5","69482","","<p>Which tone was played seventh after the cadence?</p><p>Please respond as quickly and as accurately as possible!</p>","2","","7","new_stimuli/mp3/melody_v1_^2_v1_v7_^1_^3_v2_.mp3"
"","null","audio-keyboard-response","215","1270503","0.0-19.0-0.6","69482","","new_stimuli/mp3/melody_^5_^6_v5_v4_v3_v2_v1_buffer.mp3","","null","",""
"","1536.5199999997858","html-button-response","216","1272087","0.0-19.0-1.6","69482","","<p>Which tone was played first after the cadence?</p><p>Please respond as quickly and as accurately as possible!</p>","7","","1","new_stimuli/mp3/melody_^5_^6_v5_v4_v3_v2_v1_buffer.mp3"
"","1266.0200000000186","html-button-response","217","1273357","0.0-19.0-2.6","69482","","<p>Which tone was played second after the cadence?</p><p>Please respond as quickly and as accurately as possible!</p>","9","","2","new_stimuli/mp3/melody_^5_^6_v5_v4_v3_v2_v1_buffer.mp3"
"","1061.6100000001024","html-button-response","218","1274423","0.0-19.0-3.6","69482","","<p>Which tone was played third after the cadence?</p><p>Please respond as quickly and as accurately as possible!</p>","7","","3","new_stimuli/mp3/melody_^5_^6_v5_v4_v3_v2_v1_buffer.mp3"
"","1289.6699999999255","html-button-response","219","1275716","0.0-19.0-4.6","69482","","<p>Which tone was played fourth after the cadence?</p><p>Please respond as quickly and as accurately as possible!</p>","5","","4","new_stimuli/mp3/melody_^5_^6_v5_v4_v3_v2_v1_buffer.mp3"
"","920.0349999996834","html-button-response","220","1276640","0.0-19.0-5.6","69482","","<p>Which tone was played fifth after the cadence?</p><p>Please respond as quickly and as accurately as possible!</p>","4","","5","new_stimuli/mp3/melody_^5_^6_v5_v4_v3_v2_v1_buffer.mp3"
"","1025.0600000000559","html-button-response","221","1277669","0.0-19.0-6.6","69482","","<p>Which tone was played sixth after the cadence?</p><p>Please respond as quickly and as accurately as possible!</p>","2","","6","new_stimuli/mp3/melody_^5_^6_v5_v4_v3_v2_v1_buffer.mp3"
"","864.1249999997672","html-button-response","222","1278536","0.0-19.0-7.6","69482","","<p>Which tone was played seventh after the cadence?</p><p>Please respond as quickly and as accurately as possible!</p>","0","","7","new_stimuli/mp3/melody_^5_^6_v5_v4_v3_v2_v1_buffer.mp3"
"[{""page_index"":0,""viewing_time"":1729.6049999999814},{""page_index"":1,""viewing_time"":923.7199999999721},{""page_index"":2,""viewing_time"":774.9050000000279}]","3428.820000000065","instructions","223","1281966","0.0-20.0","69482","","","","","",""
"","null","audio-keyboard-response","224","1294908","0.0-21.0-0.0","69482","","new_stimuli/mp3/melody_^2_^4_v3_v2_v1_v3_v2+_^3_^5+_.mp3","","null","",""
"","2392.244999999879","html-button-response","225","1297304","0.0-21.0-1.0","69482","","<p>Which tone was played first after the cadence?</p><p>Please respond as quickly and as accurately as possible!</p>","2","","1","new_stimuli/mp3/melody_^2_^4_v3_v2_v1_v3_v2+_^3_^5+_.mp3"
"","1151.9899999997579","html-button-response","226","1298460","0.0-21.0-2.0","69482","","<p>Which tone was played second after the cadence?</p><p>Please respond as quickly and as accurately as possible!</p>","5","","2","new_stimuli/mp3/melody_^2_^4_v3_v2_v1_v3_v2+_^3_^5+_.mp3"
"","913.1300000001211","html-button-response","227","1299377","0.0-21.0-3.0","69482","","<p>Which tone was played third after the cadence?</p><p>Please respond as quickly and as accurately as possible!</p>","4","","3","new_stimuli/mp3/melody_^2_^4_v3_v2_v1_v3_v2+_^3_^5+_.mp3"
"","1260.5150000003632","html-button-response","228","1300641","0.0-21.0-4.0","69482","","<p>Which tone was played fourth after the cadence?</p><p>Please respond as quickly and as accurately as possible!</p>","2","","4","new_stimuli/mp3/melody_^2_^4_v3_v2_v1_v3_v2+_^3_^5+_.mp3"
"","1162.6400000001304","html-button-response","229","1301807","0.0-21.0-5.0","69482","","<p>Which tone was played fifth after the cadence?</p><p>Please respond as quickly and as accurately as possible!</p>","0","","5","new_stimuli/mp3/melody_^2_^4_v3_v2_v1_v3_v2+_^3_^5+_.mp3"
"","2005.1149999999907","html-button-response","230","1303816","0.0-21.0-6.0","69482","","<p>Which tone was played sixth after the cadence?</p><p>Please respond as quickly and as accurately as possible!</p>","3","","6","new_stimuli/mp3/melody_^2_^4_v3_v2_v1_v3_v2+_^3_^5+_.mp3"
"","1617.7349999998696","html-button-response","231","1305437","0.0-21.0-7.0","69482","","<p>Which tone was played seventh after the cadence?</p><p>Please respond as quickly and as accurately as possible!</p>","6","","7","new_stimuli/mp3/melody_^2_^4_v3_v2_v1_v3_v2+_^3_^5+_.mp3"
"","9340.175000000047","html-button-response","232","1314781","0.0-21.0-8.0","69482","","<p>Which tone was played eight after the cadence?</p><p>Please respond as quickly and as accurately as possible!</p>","6","","8","new_stimuli/mp3/melody_^2_^4_v3_v2_v1_v3_v2+_^3_^5+_.mp3"
"","1633.8850000000093","html-button-response","233","1316419","0.0-21.0-9.0","69482","","<p>Which tone was played nineth after the cadence?</p><p>Please respond as quickly and as accurately as possible!</p>","6","","9","new_stimuli/mp3/melody_^2_^4_v3_v2_v1_v3_v2+_^3_^5+_.mp3"
"","null","audio-keyboard-response","234","1329062","0.0-21.0-0.1","69482","","new_stimuli/mp3/melody_v5_v4_v6+_^7_^3+_v3_v2_v5_^4_.mp3","","null","",""
"","5326.494999999879","html-button-response","235","1334392","0.0-21.0-1.1","69482","","<p>Which tone was played first after the cadence?</p><p>Please respond as quickly and as accurately as possible!</p>","7","","1","new_stimuli/mp3/melody_v5_v4_v6+_^7_^3+_v3_v2_v5_^4_.mp3"
"","1294.589999999851","html-button-response","236","1335692","0.0-21.0-2.1","69482","","<p>Which tone was played second after the cadence?</p><p>Please respond as quickly and as accurately as possible!</p>","6","","2","new_stimuli/mp3/melody_v5_v4_v6+_^7_^3+_v3_v2_v5_^4_.mp3"
"","943.7749999999069","html-button-response","237","1336639","0.0-21.0-3.1","69482","","<p>Which tone was played third after the cadence?</p><p>Please respond as quickly and as accurately as possible!</p>","5","","3","new_stimuli/mp3/melody_v5_v4_v6+_^7_^3+_v3_v2_v5_^4_.mp3"
"","1587.4099999999162","html-button-response","238","1338230","0.0-21.0-4.1","69482","","<p>Which tone was played fourth after the cadence?</p><p>Please respond as quickly and as accurately as possible!</p>","9","","4","new_stimuli/mp3/melody_v5_v4_v6+_^7_^3+_v3_v2_v5_^4_.mp3"
"","3042.1149999999907","html-button-response","239","1341279","0.0-21.0-5.1","69482","","<p>Which tone was played fifth after the cadence?</p><p>Please respond as quickly and as accurately as possible!</p>","11","","5","new_stimuli/mp3/melody_v5_v4_v6+_^7_^3+_v3_v2_v5_^4_.mp3"
"","983.0649999999441","html-button-response","240","1342267","0.0-21.0-6.1","69482","","<p>Which tone was played sixth after the cadence?</p><p>Please respond as quickly and as accurately as possible!</p>","10","","6","new_stimuli/mp3/melody_v5_v4_v6+_^7_^3+_v3_v2_v5_^4_.mp3"
"","1138.5849999999627","html-button-response","241","1343410","0.0-21.0-7.1","69482","","<p>Which tone was played seventh after the cadence?</p><p>Please respond as quickly and as accurately as possible!</p>","9","","7","new_stimuli/mp3/melody_v5_v4_v6+_^7_^3+_v3_v2_v5_^4_.mp3"
"","3524.054999999935","html-button-response","242","1346938","0.0-21.0-8.1","69482","","<p>Which tone was played eight after the cadence?</p><p>Please respond as quickly and as accurately as possible!</p>","7","","8","new_stimuli/mp3/melody_v5_v4_v6+_^7_^3+_v3_v2_v5_^4_.mp3"
"","1647.4350000000559","html-button-response","243","1348589","0.0-21.0-9.1","69482","","<p>Which tone was played nineth after the cadence?</p><p>Please respond as quickly and as accurately as possible!</p>","9","","9","new_stimuli/mp3/melody_v5_v4_v6+_^7_^3+_v3_v2_v5_^4_.mp3"
"","null","audio-keyboard-response","244","1361287","0.0-21.0-0.2","69482","","new_stimuli/mp3/melody_^2_^3_^4_^5_^6_v5_v4_v3_v2_buffer.mp3","","null","",""
"","2032.0850000001956","html-button-response","245","1363322","0.0-21.0-1.2","69482","","<p>Which tone was played first after the cadence?</p><p>Please respond as quickly and as accurately as possible!</p>","2","","1","new_stimuli/mp3/melody_^2_^3_^4_^5_^6_v5_v4_v3_v2_buffer.mp3"
"","1413.5249999999069","html-button-response","246","1364740","0.0-21.0-2.2","69482","","<p>Which tone was played second after the cadence?</p><p>Please respond as quickly and as accurately as possible!</p>","4","","2","new_stimuli/mp3/melody_^2_^3_^4_^5_^6_v5_v4_v3_v2_buffer.mp3"
"","984.4549999998417","html-button-response","247","1365730","0.0-21.0-3.2","69482","","<p>Which tone was played third after the cadence?</p><p>Please respond as quickly and as accurately as possible!</p>","5","","3","new_stimuli/mp3/melody_^2_^3_^4_^5_^6_v5_v4_v3_v2_buffer.mp3"
"","961.7699999997858","html-button-response","248","1366696","0.0-21.0-4.2","69482","","<p>Which tone was played fourth after the cadence?</p><p>Please respond as quickly and as accurately as possible!</p>","7","","4","new_stimuli/mp3/melody_^2_^3_^4_^5_^6_v5_v4_v3_v2_buffer.mp3"
"","817.9599999999627","html-button-response","249","1367518","0.0-21.0-5.2","69482","","<p>Which tone was played fifth after the cadence?</p><p>Please respond as quickly and as accurately as possible!</p>","9","","5","new_stimuli/mp3/melody_^2_^3_^4_^5_^6_v5_v4_v3_v2_buffer.mp3"
"","949.1150000002235","html-button-response","250","1368472","0.0-21.0-6.2","69482","","<p>Which tone was played sixth after the cadence?</p><p>Please respond as quickly and as accurately as possible!</p>","7","","6","new_stimuli/mp3/melody_^2_^3_^4_^5_^6_v5_v4_v3_v2_buffer.mp3"
"","1152.1399999998976","html-button-response","251","1369628","0.0-21.0-7.2","69482","","<p>Which tone was played seventh after the cadence?</p><p>Please respond as quickly and as accurately as possible!</p>","5","","7","new_stimuli/mp3/melody_^2_^3_^4_^5_^6_v5_v4_v3_v2_buffer.mp3"
"","734.1449999997858","html-button-response","252","1370366","0.0-21.0-8.2","69482","","<p>Which tone was played eight after the cadence?</p><p>Please respond as quickly and as accurately as possible!</p>","4","","8","new_stimuli/mp3/melody_^2_^3_^4_^5_^6_v5_v4_v3_v2_buffer.mp3"
"","735.7299999999814","html-button-response","253","1371105","0.0-21.0-9.2","69482","","<p>Which tone was played nineth after the cadence?</p><p>Please respond as quickly and as accurately as possible!</p>","2","","9","new_stimuli/mp3/melody_^2_^3_^4_^5_^6_v5_v4_v3_v2_buffer.mp3"
"","null","audio-keyboard-response","254","1383752","0.0-21.0-0.3","69482","","new_stimuli/mp3/melody_^3_^4_v2_v7_^1_^2_^3_3_^4_.mp3","","null","",""
"","2118.4499999999534","html-button-response","255","1385874","0.0-21.0-1.3","69482","","<p>Which tone was played first after the cadence?</p><p>Please respond as quickly and as accurately as possible!</p>","4","","1","new_stimuli/mp3/melody_^3_^4_v2_v7_^1_^2_^3_3_^4_.mp3"
"","902.0749999999534","html-button-response","256","1386779","0.0-21.0-2.3","69482","","<p>Which tone was played second after the cadence?</p><p>Please respond as quickly and as accurately as possible!</p>","5","","2","new_stimuli/mp3/melody_^3_^4_v2_v7_^1_^2_^3_3_^4_.mp3"
"","1319.8050000001676","html-button-response","257","1388103","0.0-21.0-3.3","69482","","<p>Which tone was played third after the cadence?</p><p>Please respond as quickly and as accurately as possible!</p>","2","","3","new_stimuli/mp3/melody_^3_^4_v2_v7_^1_^2_^3_3_^4_.mp3"
"","1581.0000000002328","html-button-response","258","1389689","0.0-21.0-4.3","69482","","<p>Which tone was played fourth after the cadence?</p><p>Please respond as quickly and as accurately as possible!</p>","11","","4","new_stimuli/mp3/melody_^3_^4_v2_v7_^1_^2_^3_3_^4_.mp3"
"","937.804999999702","html-button-response","259","1390631","0.0-21.0-5.3","69482","","<p>Which tone was played fifth after the cadence?</p><p>Please respond as quickly and as accurately as possible!</p>","12","","5","new_stimuli/mp3/melody_^3_^4_v2_v7_^1_^2_^3_3_^4_.mp3"
"","1342.089999999851","html-button-response","260","1391977","0.0-21.0-6.3","69482","","<p>Which tone was played sixth after the cadence?</p><p>Please respond as quickly and as accurately as possible!</p>","0","","6","new_stimuli/mp3/melody_^3_^4_v2_v7_^1_^2_^3_3_^4_.mp3"
"","1784.6599999999162","html-button-response","261","1393765","0.0-21.0-7.3","69482","","<p>Which tone was played seventh after the cadence?</p><p>Please respond as quickly and as accurately as possible!</p>","2","","7","new_stimuli/mp3/melody_^3_^4_v2_v7_^1_^2_^3_3_^4_.mp3"
"","950.1749999998137","html-button-response","262","1394720","0.0-21.0-8.3","69482","","<p>Which tone was played eight after the cadence?</p><p>Please respond as quickly and as accurately as possible!</p>","4","","8","new_stimuli/mp3/melody_^3_^4_v2_v7_^1_^2_^3_3_^4_.mp3"
"","2834.505000000121","html-button-response","263","1397558","0.0-21.0-9.3","69482","","<p>Which tone was played nineth after the cadence?</p><p>Please respond as quickly and as accurately as possible!</p>","4","","9","new_stimuli/mp3/melody_^3_^4_v2_v7_^1_^2_^3_3_^4_.mp3"
"","null","audio-keyboard-response","264","1410118","0.0-21.0-0.4","69482","","new_stimuli/mp3/melody_^3_^4_^5 _^6_v5_v4_v3_v2_v1_.mp3","","null","",""
"","2774.6949999998324","html-button-response","265","1412896","0.0-21.0-1.4","69482","","<p>Which tone was played first after the cadence?</p><p>Please respond as quickly and as accurately as possible!</p>","4","","1","new_stimuli/mp3/melody_^3_^4_^5 _^6_v5_v4_v3_v2_v1_.mp3"
"","954.8649999999907","html-button-response","266","1413855","0.0-21.0-2.4","69482","","<p>Which tone was played second after the cadence?</p><p>Please respond as quickly and as accurately as possible!</p>","5","","2","new_stimuli/mp3/melody_^3_^4_^5 _^6_v5_v4_v3_v2_v1_.mp3"
"","1694.4300000001676","html-button-response","267","1415554","0.0-21.0-3.4","69482","","<p>Which tone was played third after the cadence?</p><p>Please respond as quickly and as accurately as possible!</p>","7","","3","new_stimuli/mp3/melody_^3_^4_^5 _^6_v5_v4_v3_v2_v1_.mp3"
"","1593.0900000000838","html-button-response","268","1417151","0.0-21.0-4.4","69482","","<p>Which tone was played fourth after the cadence?</p><p>Please respond as quickly and as accurately as possible!</p>","9","","4","new_stimuli/mp3/melody_^3_^4_^5 _^6_v5_v4_v3_v2_v1_.mp3"
"","897.0400000000373","html-button-response","269","1418051","0.0-21.0-5.4","69482","","<p>Which tone was played fifth after the cadence?</p><p>Please respond as quickly and as accurately as possible!</p>","7","","5","new_stimuli/mp3/melody_^3_^4_^5 _^6_v5_v4_v3_v2_v1_.mp3"
"","1021.8599999998696","html-button-response","270","1419076","0.0-21.0-6.4","69482","","<p>Which tone was played sixth after the cadence?</p><p>Please respond as quickly and as accurately as possible!</p>","5","","6","new_stimuli/mp3/melody_^3_^4_^5 _^6_v5_v4_v3_v2_v1_.mp3"
"","860.3350000001956","html-button-response","271","1419941","0.0-21.0-7.4","69482","","<p>Which tone was played seventh after the cadence?</p><p>Please respond as quickly and as accurately as possible!</p>","4","","7","new_stimuli/mp3/melody_^3_^4_^5 _^6_v5_v4_v3_v2_v1_.mp3"
"","877.4750000000931","html-button-response","272","1420822","0.0-21.0-8.4","69482","","<p>Which tone was played eight after the cadence?</p><p>Please respond as quickly and as accurately as possible!</p>","2","","8","new_stimuli/mp3/melody_^3_^4_^5 _^6_v5_v4_v3_v2_v1_.mp3"
"","1046.7099999999627","html-button-response","273","1421872","0.0-21.0-9.4","69482","","<p>Which tone was played nineth after the cadence?</p><p>Please respond as quickly and as accurately as possible!</p>","0","","9","new_stimuli/mp3/melody_^3_^4_^5 _^6_v5_v4_v3_v2_v1_.mp3"
"","null","audio-keyboard-response","274","1434523","0.0-21.0-0.5","69482","","new_stimuli/mp3/melody_v7_v6_v5_^6_v5_v4_^5_^6_v5_.mp3","","null","",""
"","1616.1599999999162","html-button-response","275","1436143","0.0-21.0-1.5","69482","","<p>Which tone was played first after the cadence?</p><p>Please respond as quickly and as accurately as possible!</p>","11","","1","new_stimuli/mp3/melody_v7_v6_v5_^6_v5_v4_^5_^6_v5_.mp3"
"","901.7899999998044","html-button-response","276","1437049","0.0-21.0-2.5","69482","","<p>Which tone was played second after the cadence?</p><p>Please respond as quickly and as accurately as possible!</p>","9","","2","new_stimuli/mp3/melody_v7_v6_v5_^6_v5_v4_^5_^6_v5_.mp3"
"","1044.7950000001583","html-button-response","277","1438099","0.0-21.0-3.5","69482","","<p>Which tone was played third after the cadence?</p><p>Please respond as quickly and as accurately as possible!</p>","7","","3","new_stimuli/mp3/melody_v7_v6_v5_^6_v5_v4_^5_^6_v5_.mp3"
"","1390.6100000001024","html-button-response","278","1439494","0.0-21.0-4.5","69482","","<p>Which tone was played fourth after the cadence?</p><p>Please respond as quickly and as accurately as possible!</p>","5","","4","new_stimuli/mp3/melody_v7_v6_v5_^6_v5_v4_^5_^6_v5_.mp3"
"","1080.4399999999441","html-button-response","279","1440578","0.0-21.0-5.5","69482","","<p>Which tone was played fifth after the cadence?</p><p>Please respond as quickly and as accurately as possible!</p>","7","","5","new_stimuli/mp3/melody_v7_v6_v5_^6_v5_v4_^5_^6_v5_.mp3"
"","1052.2399999999907","html-button-response","280","1441634","0.0-21.0-6.5","69482","","<p>Which tone was played sixth after the cadence?</p><p>Please respond as quickly and as accurately as possible!</p>","9","","6","new_stimuli/mp3/melody_v7_v6_v5_^6_v5_v4_^5_^6_v5_.mp3"
"","1289.1049999999814","html-button-response","281","1442927","0.0-21.0-7.5","69482","","<p>Which tone was played seventh after the cadence?</p><p>Please respond as quickly and as accurately as possible!</p>","7","","7","new_stimuli/mp3/melody_v7_v6_v5_^6_v5_v4_^5_^6_v5_.mp3"
"","9182.364999999758","html-button-response","282","1452114","0.0-21.0-8.5","69482","","<p>Which tone was played eight after the cadence?</p><p>Please respond as quickly and as accurately as possible!</p>","9","","8","new_stimuli/mp3/melody_v7_v6_v5_^6_v5_v4_^5_^6_v5_.mp3"
"","1716.8750000002328","html-button-response","283","1453835","0.0-21.0-9.5","69482","","<p>Which tone was played nineth after the cadence?</p><p>Please respond as quickly and as accurately as possible!</p>","7","","9","new_stimuli/mp3/melody_v7_v6_v5_^6_v5_v4_^5_^6_v5_.mp3"
"","null","audio-keyboard-response","284","1466790","0.0-21.0-0.6","69482","","new_stimuli/mp3/melody_^5_^6_v5_v4_v3_v2_v1_^2_^3_buffer.mp3","","null","",""
"","1687.0800000003073","html-button-response","285","1468481","0.0-21.0-1.6","69482","","<p>Which tone was played first after the cadence?</p><p>Please respond as quickly and as accurately as possible!</p>","7","","1","new_stimuli/mp3/melody_^5_^6_v5_v4_v3_v2_v1_^2_^3_buffer.mp3"
"","1015.8199999998324","html-button-response","286","1469501","0.0-21.0-2.6","69482","","<p>Which tone was played second after the cadence?</p><p>Please respond as quickly and as accurately as possible!</p>","9","","2","new_stimuli/mp3/melody_^5_^6_v5_v4_v3_v2_v1_^2_^3_buffer.mp3"
"","1032.7849999999162","html-button-response","287","1470538","0.0-21.0-3.6","69482","","<p>Which tone was played third after the cadence?</p><p>Please respond as quickly and as accurately as possible!</p>","7","","3","new_stimuli/mp3/melody_^5_^6_v5_v4_v3_v2_v1_^2_^3_buffer.mp3"
"","865.8799999998882","html-button-response","288","1471407","0.0-21.0-4.6","69482","","<p>Which tone was played fourth after the cadence?</p><p>Please respond as quickly and as accurately as possible!</p>","5","","4","new_stimuli/mp3/melody_^5_^6_v5_v4_v3_v2_v1_^2_^3_buffer.mp3"
"","1164.6399999998976","html-button-response","289","1472576","0.0-21.0-5.6","69482","","<p>Which tone was played fifth after the cadence?</p><p>Please respond as quickly and as accurately as possible!</p>","4","","5","new_stimuli/mp3/melody_^5_^6_v5_v4_v3_v2_v1_^2_^3_buffer.mp3"
"","1165.0649999999441","html-button-response","290","1473745","0.0-21.0-6.6","69482","","<p>Which tone was played sixth after the cadence?</p><p>Please respond as quickly and as accurately as possible!</p>","2","","6","new_stimuli/mp3/melody_^5_^6_v5_v4_v3_v2_v1_^2_^3_buffer.mp3"
"","1104.4250000000466","html-button-response","291","1474852","0.0-21.0-7.6","69482","","<p>Which tone was played seventh after the cadence?</p><p>Please respond as quickly and as accurately as possible!</p>","0","","7","new_stimuli/mp3/melody_^5_^6_v5_v4_v3_v2_v1_^2_^3_buffer.mp3"
"","867.3149999999441","html-button-response","292","1475724","0.0-21.0-8.6","69482","","<p>Which tone was played eight after the cadence?</p><p>Please respond as quickly and as accurately as possible!</p>","2","","8","new_stimuli/mp3/melody_^5_^6_v5_v4_v3_v2_v1_^2_^3_buffer.mp3"
"","954.1149999999907","html-button-response","293","1476682","0.0-21.0-9.6","69482","","<p>Which tone was played nineth after the cadence?</p><p>Please respond as quickly and as accurately as possible!</p>","4","","9","new_stimuli/mp3/melody_^5_^6_v5_v4_v3_v2_v1_^2_^3_buffer.mp3"
"","19805.769999999786","survey-text","294","1496490","0.0-22.0","69482","{""Q0"":""listening, singing""}","","","","",""
"","20209.044999999925","survey-text","295","1516701","0.0-23.0","69482","{""Q0"":""It was a good challenge! I enjoyed it very much.""}","","","","",""
"","10880.674999999814","survey-text","296","1527584","0.0-24.0","69482","{""Q0"":""No. I promise!""}","","","","",""
"","8055.399999999907","survey-text","297","1535642","0.0-25.0","69482","{""Q0"":""Computer Speakers""}","","","","",""
"","4468.01500000013","survey-text","298","1540113","0.0-26.0","69482","{""Q0"":""female""}","","","","",""
"","4595.434999999823","survey-text","299","1544767","0.0-27.0","69482","{""Q0"":""Yes""}","","","","",""
"[{""page_index"":0,""viewing_time"":12818.795000000158}]","12819.345000000205","instructions","300","1557588","0.0-28.0","69482","","","","","",""
