"view_history","rt","trial_type","trial_index","time_elapsed","internal_node_id","subject","responses","stimulus","button_pressed","key_press","response_sequence","melody"
"[{""page_index"":0,""viewing_time"":5091.54000000126},{""page_index"":1,""viewing_time"":1075.4999999990105},{""page_index"":2,""viewing_time"":818.1299999996554}]","6986.245000000054","instructions","0","7074","0.0-0.0","69510","","","","","",""
"","2830.965000001015","survey-text","1","9908","0.0-1.0","69510","{""Q0"":""29""}","","","","",""
"","5927.800000001298","survey-text","2","15837","0.0-2.0","69510","{""Q0"":""Finished terminal degree""}","","","","",""
"","5434.769999999844","survey-text","3","21273","0.0-3.0","69510","{""Q0"":""Moveable-Do""}","","","","",""
"","2116.6099999973085","survey-text","4","23391","0.0-4.0","69510","{""Q0"":""No""}","","","","",""
"","2642.629999998462","survey-text","5","26035","0.0-5.0","69510","{""Q0"":""60""}","","","","",""
"","2222.8549999999814","survey-text","6","28259","0.0-6.0","69510","{""Q0"":""0""}","","","","",""
"[{""page_index"":0,""viewing_time"":884.7349999996368},{""page_index"":1,""viewing_time"":745.9099999978207},{""page_index"":2,""viewing_time"":827.820000002248}]","2458.8349999976344","instructions","7","30718","0.0-7.0","69510","","","","","",""
"","8345.894999998563","audio-button-response","8","39068","0.0-8.0","69510","","stimuli/long/c-do.mp3","0","","",""
"","2237.2600000016973","audio-button-response","9","41308","0.0-9.0","69510","","stimuli/long/a-le.mp3","8","","",""
"[{""page_index"":0,""viewing_time"":1212.2250000029453},{""page_index"":1,""viewing_time"":1567.959999996674}]","2780.5000000007567","instructions","10","44089","0.0-10.0","69510","","","","","",""
"","9704.515000001265","audio-button-response","11","53796","0.0-11.0-0.0","69510","","stimuli/long/c-la.mp3","0","","",""
"","8328.209999999672","audio-button-response","12","62127","0.0-11.0-0.1","69510","","stimuli/long/c-le.mp3","2","","",""
"","11523.035000001983","audio-button-response","13","73651","0.0-11.0-0.2","69510","","stimuli/long/a-te.mp3","4","","",""
"","9092.694999999367","audio-button-response","14","82746","0.0-11.0-0.3","69510","","stimuli/long/e-fa.mp3","0","","",""
"","14499.504999999772","audio-button-response","15","97248","0.0-11.0-0.4","69510","","stimuli/long/e-sol.mp3","10","","",""
"","15304.720000000088","audio-button-response","16","112555","0.0-11.0-0.5","69510","","stimuli/long/e-me.mp3","3","","",""
"","7930.8750000018335","audio-button-response","17","120488","0.0-11.0-0.6","69510","","stimuli/long/a-do.mp3","0","","",""
"","9602.934999998979","audio-button-response","18","130093","0.0-11.0-0.7","69510","","stimuli/long/a-fa.mp3","5","","",""
"","9814.865000000282","audio-button-response","19","139910","0.0-11.0-0.8","69510","","stimuli/long/e-la.mp3","11","","",""
"","8811.25499999689","audio-button-response","20","148723","0.0-11.0-0.9","69510","","stimuli/long/c-mi.mp3","2","","",""
"","8135.450000001583","audio-button-response","21","156861","0.0-11.0-0.10","69510","","stimuli/long/c-ra.mp3","2","","",""
"","8675.225000002683","audio-button-response","22","165539","0.0-11.0-0.11","69510","","stimuli/long/a-do8.mp3","12","","",""
"","11571.435000001657","audio-button-response","23","177112","0.0-11.0-0.12","69510","","stimuli/long/c-fi.mp3","3","","",""
"","8894.569999996747","audio-button-response","24","186009","0.0-11.0-0.13","69510","","stimuli/long/a-le.mp3","2","","",""
"","9961.520000000746","audio-button-response","25","195972","0.0-11.0-0.14","69510","","stimuli/long/a-me.mp3","3","","",""
"","7772.779999999329","audio-button-response","26","203747","0.0-11.0-0.15","69510","","stimuli/long/c-do.mp3","0","","",""
"","12465.180000002874","audio-button-response","27","216214","0.0-11.0-0.16","69510","","stimuli/long/a-mi.mp3","4","","",""
"","8160.309999999299","audio-button-response","28","224377","0.0-11.0-0.17","69510","","stimuli/long/e-ra.mp3","2","","",""
"","13164.144999998825","audio-button-response","29","237543","0.0-11.0-0.18","69510","","stimuli/long/c-sol.mp3","10","","",""
"","10727.409999999509","audio-button-response","30","248273","0.0-11.0-0.19","69510","","stimuli/long/a-la.mp3","10","","",""
"","8477.655000002414","audio-button-response","31","256752","0.0-11.0-0.20","69510","","stimuli/long/a-sol.mp3","0","","",""
"","8261.64499999868","audio-button-response","32","265016","0.0-11.0-0.21","69510","","stimuli/long/c-me.mp3","2","","",""
"","8365.784999998112","audio-button-response","33","273384","0.0-11.0-0.22","69510","","stimuli/long/c-do8.mp3","12","","",""
"","7223.555000000459","audio-button-response","34","280610","0.0-11.0-0.23","69510","","stimuli/long/e-do8.mp3","12","","",""
"","7594.50999999902","audio-button-response","35","288206","0.0-11.0-0.24","69510","","stimuli/long/e-do.mp3","0","","",""
"","null","audio-button-response","36","308225","0.0-11.0-0.25","69510","","stimuli/long/c-fa.mp3","null","","",""
"","9822.065000000293","audio-button-response","37","318049","0.0-11.0-0.26","69510","","stimuli/long/c-re.mp3","2","","",""
"","8901.529999999155","audio-button-response","38","326953","0.0-11.0-0.27","69510","","stimuli/long/e-le.mp3","12","","",""
"","8473.509999999835","audio-button-response","39","335429","0.0-11.0-0.28","69510","","stimuli/long/e-re.mp3","1","","",""
"","9403.884999999718","audio-button-response","40","344835","0.0-11.0-0.29","69510","","stimuli/long/e-ti.mp3","6","","",""
"","10288.384999999835","audio-button-response","41","355125","0.0-11.0-0.30","69510","","stimuli/long/a-re.mp3","5","","",""
"","11907.359999997425","audio-button-response","42","367035","0.0-11.0-0.31","69510","","stimuli/long/e-te.mp3","10","","",""
"","11955.760000000766","audio-button-response","43","378992","0.0-11.0-0.32","69510","","stimuli/long/c-ti.mp3","2","","",""
"","8379.784999997355","audio-button-response","44","387374","0.0-11.0-0.33","69510","","stimuli/long/a-ti.mp3","1","","",""
"","9517.909999998636","audio-button-response","45","396894","0.0-11.0-0.34","69510","","stimuli/long/e-mi.mp3","2","","",""
"","10519.940000001981","audio-button-response","46","407416","0.0-11.0-0.35","69510","","stimuli/long/a-fi.mp3","1","","",""
"","7432.974999999744","audio-button-response","47","414851","0.0-11.0-0.36","69510","","stimuli/long/a-ra.mp3","1","","",""
"","9599.285000000207","audio-button-response","48","424452","0.0-11.0-0.37","69510","","stimuli/long/e-fi.mp3","9","","",""
"[{""page_index"":0,""viewing_time"":81633.23500000115},{""page_index"":1,""viewing_time"":1055.9199999988778}]","82689.46000000142","instructions","49","507141","0.0-12.0","69510","","","","","",""
"","null","audio-keyboard-response","50","516443","0.0-13.0-0.0","69510","","new_stimuli/mp3/melody_3_^6_buffer.mp3","","null","",""
"","5411.0449999971315","html-button-response","51","521856","0.0-13.0-1.0","69510","","<p>Which tone was played first after the cadence?</p><p>Please respond as quickly and as accurately as possible!</p>","0","","1","new_stimuli/mp3/melody_3_^6_buffer.mp3"
"","1967.3750000001164","html-button-response","52","523826","0.0-13.0-2.0","69510","","<p>Which tone was played second after the cadence?</p><p>Please respond as quickly and as accurately as possible!</p>","5","","2","new_stimuli/mp3/melody_3_^6_buffer.mp3"
"","null","audio-keyboard-response","53","532998","0.0-13.0-0.1","69510","","new_stimuli/mp3/melody_^5_^1+_.mp3","","null","",""
"","2047.5999999979977","html-button-response","54","535048","0.0-13.0-1.1","69510","","<p>Which tone was played first after the cadence?</p><p>Please respond as quickly and as accurately as possible!</p>","2","","1","new_stimuli/mp3/melody_^5_^1+_.mp3"
"","3012.705000001006","html-button-response","55","538062","0.0-13.0-2.1","69510","","<p>Which tone was played second after the cadence?</p><p>Please respond as quickly and as accurately as possible!</p>","8","","2","new_stimuli/mp3/melody_^5_^1+_.mp3"
"","null","audio-keyboard-response","56","547516","0.0-13.0-0.2","69510","","new_stimuli/mp3/melody_^3_v4+_buffer.mp3","","null","",""
"","1984.0100000001257","html-button-response","57","549502","0.0-13.0-1.2","69510","","<p>Which tone was played first after the cadence?</p><p>Please respond as quickly and as accurately as possible!</p>","2","","1","new_stimuli/mp3/melody_^3_v4+_buffer.mp3"
"","2444.029999998631","html-button-response","58","551948","0.0-13.0-2.2","69510","","<p>Which tone was played second after the cadence?</p><p>Please respond as quickly and as accurately as possible!</p>","3","","2","new_stimuli/mp3/melody_^3_v4+_buffer.mp3"
"","null","audio-keyboard-response","59","560960","0.0-13.0-0.3","69510","","new_stimuli/mp3/melody_^1_^2+_.mp3","","null","",""
"","832.8849999998929","html-button-response","60","561795","0.0-13.0-1.3","69510","","<p>Which tone was played first after the cadence?</p><p>Please respond as quickly and as accurately as possible!</p>","0","","1","new_stimuli/mp3/melody_^1_^2+_.mp3"
"","680.1850000011036","html-button-response","61","562477","0.0-13.0-2.3","69510","","<p>Which tone was played second after the cadence?</p><p>Please respond as quickly and as accurately as possible!</p>","3","","2","new_stimuli/mp3/melody_^1_^2+_.mp3"
"","null","audio-keyboard-response","62","571908","0.0-13.0-0.4","69510","","new_stimuli/mp3/melody_v4_v3_buffer.mp3","","null","",""
"","3144.20500000054","html-button-response","63","575054","0.0-13.0-1.4","69510","","<p>Which tone was played first after the cadence?</p><p>Please respond as quickly and as accurately as possible!</p>","0","","1","new_stimuli/mp3/melody_v4_v3_buffer.mp3"
"","2832.474999999278","html-button-response","64","577889","0.0-13.0-2.4","69510","","<p>Which tone was played second after the cadence?</p><p>Please respond as quickly and as accurately as possible!</p>","11","","2","new_stimuli/mp3/melody_v4_v3_buffer.mp3"
"","null","audio-keyboard-response","65","587059","0.0-13.0-0.5","69510","","new_stimuli/mp3/melody_^2_v7-_.mp3","","null","",""
"","1421.6450000022305","html-button-response","66","588483","0.0-13.0-1.5","69510","","<p>Which tone was played first after the cadence?</p><p>Please respond as quickly and as accurately as possible!</p>","0","","1","new_stimuli/mp3/melody_^2_v7-_.mp3"
"","3549.139999999199","html-button-response","67","592033","0.0-13.0-2.5","69510","","<p>Which tone was played second after the cadence?</p><p>Please respond as quickly and as accurately as possible!</p>","9","","2","new_stimuli/mp3/melody_^2_v7-_.mp3"
"","null","audio-keyboard-response","68","601229","0.0-13.0-0.6","69510","","new_stimuli/mp3/melody_v3_v2_buffer.mp3","","null","",""
"","2680.854999998701","html-button-response","69","603911","0.0-13.0-1.6","69510","","<p>Which tone was played first after the cadence?</p><p>Please respond as quickly and as accurately as possible!</p>","2","","1","new_stimuli/mp3/melody_v3_v2_buffer.mp3"
"","776.3149999992456","html-button-response","70","604689","0.0-13.0-2.6","69510","","<p>Which tone was played second after the cadence?</p><p>Please respond as quickly and as accurately as possible!</p>","11","","2","new_stimuli/mp3/melody_v3_v2_buffer.mp3"
"","null","audio-keyboard-response","71","613756","0.0-13.0-0.7","69510","","new_stimuli/mp3/melody_v2_v1_.mp3","","null","",""
"","1010.4250000005122","html-button-response","72","614768","0.0-13.0-1.7","69510","","<p>Which tone was played first after the cadence?</p><p>Please respond as quickly and as accurately as possible!</p>","2","","1","new_stimuli/mp3/melody_v2_v1_.mp3"
"","1192.5499999996973","html-button-response","73","615962","0.0-13.0-2.7","69510","","<p>Which tone was played second after the cadence?</p><p>Please respond as quickly and as accurately as possible!</p>","12","","2","new_stimuli/mp3/melody_v2_v1_.mp3"
"","null","audio-keyboard-response","74","625418","0.0-13.0-0.8","69510","","new_stimuli/mp3/melody_v7_v3_buffer.mp3","","null","",""
"","5902.974999997183","html-button-response","75","631323","0.0-13.0-1.8","69510","","<p>Which tone was played first after the cadence?</p><p>Please respond as quickly and as accurately as possible!</p>","3","","1","new_stimuli/mp3/melody_v7_v3_buffer.mp3"
"","740.685000000638","html-button-response","76","632065","0.0-13.0-2.8","69510","","<p>Which tone was played second after the cadence?</p><p>Please respond as quickly and as accurately as possible!</p>","10","","2","new_stimuli/mp3/melody_v7_v3_buffer.mp3"
"","null","audio-keyboard-response","77","641236","0.0-13.0-0.9","69510","","new_stimuli/mp3/melody_v5_v1+_.mp3","","null","",""
"","5881.990000001737","html-button-response","78","647120","0.0-13.0-1.9","69510","","<p>Which tone was played first after the cadence?</p><p>Please respond as quickly and as accurately as possible!</p>","5","","1","new_stimuli/mp3/melody_v5_v1+_.mp3"
"","1072.534999999334","html-button-response","79","648196","0.0-13.0-2.9","69510","","<p>Which tone was played second after the cadence?</p><p>Please respond as quickly and as accurately as possible!</p>","11","","2","new_stimuli/mp3/melody_v5_v1+_.mp3"
"[{""page_index"":0,""viewing_time"":4700.409999997704},{""page_index"":1,""viewing_time"":1281.8100000004051},{""page_index"":2,""viewing_time"":2816.0900000002002}]","8798.604999999981","instructions","80","656995","0.0-14.0","69510","","","","","",""
"","null","audio-keyboard-response","81","666557","0.0-15.0-0.0","69510","","new_stimuli/mp3/melody_v1_v7-_^7_.mp3","","null","",""
"","5370.350000001141","html-button-response","82","671929","0.0-15.0-1.0","69510","","<p>Which tone was played first after the cadence?</p><p>Please respond as quickly and as accurately as possible!</p>","4","","1","new_stimuli/mp3/melody_v1_v7-_^7_.mp3"
"","605.6850000022678","html-button-response","83","672537","0.0-15.0-2.0","69510","","<p>Which tone was played second after the cadence?</p><p>Please respond as quickly and as accurately as possible!</p>","1","","2","new_stimuli/mp3/melody_v1_v7-_^7_.mp3"
"","800.7150000011316","html-button-response","84","673339","0.0-15.0-3.0","69510","","<p>Which tone was played third after the cadence?</p><p>Please respond as quickly and as accurately as possible!</p>","2","","3","new_stimuli/mp3/melody_v1_v7-_^7_.mp3"
"","null","audio-keyboard-response","85","683031","0.0-15.0-0.1","69510","","new_stimuli/mp3/melody_v4_v3_v2_buffer.mp3","","null","",""
"","3394.190000002738","html-button-response","86","686427","0.0-15.0-1.1","69510","","<p>Which tone was played first after the cadence?</p><p>Please respond as quickly and as accurately as possible!</p>","3","","1","new_stimuli/mp3/melody_v4_v3_v2_buffer.mp3"
"","540.1749999983003","html-button-response","87","686969","0.0-15.0-2.1","69510","","<p>Which tone was played second after the cadence?</p><p>Please respond as quickly and as accurately as possible!</p>","2","","2","new_stimuli/mp3/melody_v4_v3_v2_buffer.mp3"
"","692.4250000010943","html-button-response","88","687663","0.0-15.0-3.1","69510","","<p>Which tone was played third after the cadence?</p><p>Please respond as quickly and as accurately as possible!</p>","0","","3","new_stimuli/mp3/melody_v4_v3_v2_buffer.mp3"
"","null","audio-keyboard-response","89","697642","0.0-15.0-0.2","69510","","new_stimuli/mp3/melody_v2_v5_^3_buffer.mp3","","null","",""
"","1944.9899999999907","html-button-response","90","699589","0.0-15.0-1.2","69510","","<p>Which tone was played first after the cadence?</p><p>Please respond as quickly and as accurately as possible!</p>","3","","1","new_stimuli/mp3/melody_v2_v5_^3_buffer.mp3"
"","606.9350000034319","html-button-response","91","700197","0.0-15.0-2.2","69510","","<p>Which tone was played second after the cadence?</p><p>Please respond as quickly and as accurately as possible!</p>","5","","2","new_stimuli/mp3/melody_v2_v5_^3_buffer.mp3"
"","1444.4300000031944","html-button-response","92","701643","0.0-15.0-3.2","69510","","<p>Which tone was played third after the cadence?</p><p>Please respond as quickly and as accurately as possible!</p>","2","","3","new_stimuli/mp3/melody_v2_v5_^3_buffer.mp3"
"","null","audio-keyboard-response","93","711597","0.0-15.0-0.3","69510","","new_stimuli/mp3/melody_v5_v4_v3_buffer.mp3","","null","",""
"","5147.195000001462","html-button-response","94","716746","0.0-15.0-1.3","69510","","<p>Which tone was played first after the cadence?</p><p>Please respond as quickly and as accurately as possible!</p>","5","","1","new_stimuli/mp3/melody_v5_v4_v3_buffer.mp3"
"","791.4399999972666","html-button-response","95","717540","0.0-15.0-2.3","69510","","<p>Which tone was played second after the cadence?</p><p>Please respond as quickly and as accurately as possible!</p>","4","","2","new_stimuli/mp3/melody_v5_v4_v3_buffer.mp3"
"","780.1099999996368","html-button-response","96","718322","0.0-15.0-3.3","69510","","<p>Which tone was played third after the cadence?</p><p>Please respond as quickly and as accurately as possible!</p>","2","","3","new_stimuli/mp3/melody_v5_v4_v3_buffer.mp3"
"","null","audio-keyboard-response","97","727880","0.0-15.0-0.4","69510","","new_stimuli/mp3/melody_v3_v2_v1_.mp3","","null","",""
"","1940.1199999992969","html-button-response","98","729822","0.0-15.0-1.4","69510","","<p>Which tone was played first after the cadence?</p><p>Please respond as quickly and as accurately as possible!</p>","4","","1","new_stimuli/mp3/melody_v3_v2_v1_.mp3"
"","655.0399999978254","html-button-response","99","730478","0.0-15.0-2.4","69510","","<p>Which tone was played second after the cadence?</p><p>Please respond as quickly and as accurately as possible!</p>","2","","2","new_stimuli/mp3/melody_v3_v2_v1_.mp3"
"","534.1799999987707","html-button-response","100","731014","0.0-15.0-3.4","69510","","<p>Which tone was played third after the cadence?</p><p>Please respond as quickly and as accurately as possible!</p>","0","","3","new_stimuli/mp3/melody_v3_v2_v1_.mp3"
"","null","audio-keyboard-response","101","740918","0.0-15.0-0.5","69510","","new_stimuli/mp3/melody_^1_v6_v5+_.mp3","","null","",""
"","4702.499999999418","html-button-response","102","745622","0.0-15.0-1.5","69510","","<p>Which tone was played first after the cadence?</p><p>Please respond as quickly and as accurately as possible!</p>","11","","1","new_stimuli/mp3/melody_^1_v6_v5+_.mp3"
"","1573.5600000007544","html-button-response","103","747198","0.0-15.0-2.5","69510","","<p>Which tone was played second after the cadence?</p><p>Please respond as quickly and as accurately as possible!</p>","9","","2","new_stimuli/mp3/melody_^1_v6_v5+_.mp3"
"","440.68999999936204","html-button-response","104","747640","0.0-15.0-3.5","69510","","<p>Which tone was played third after the cadence?</p><p>Please respond as quickly and as accurately as possible!</p>","8","","3","new_stimuli/mp3/melody_^1_v6_v5+_.mp3"
"","null","audio-keyboard-response","105","757282","0.0-15.0-0.6","69510","","new_stimuli/mp3/melody_6_^1_v5_.mp3","","null","",""
"","4539.594999998459","html-button-response","106","761823","0.0-15.0-1.6","69510","","<p>Which tone was played first after the cadence?</p><p>Please respond as quickly and as accurately as possible!</p>","9","","1","new_stimuli/mp3/melody_6_^1_v5_.mp3"
"","1353.740000002319","html-button-response","107","763179","0.0-15.0-2.6","69510","","<p>Which tone was played second after the cadence?</p><p>Please respond as quickly and as accurately as possible!</p>","11","","2","new_stimuli/mp3/melody_6_^1_v5_.mp3"
"","1190.2500000032596","html-button-response","108","764371","0.0-15.0-3.6","69510","","<p>Which tone was played third after the cadence?</p><p>Please respond as quickly and as accurately as possible!</p>","7","","3","new_stimuli/mp3/melody_6_^1_v5_.mp3"
"","null","audio-keyboard-response","109","773878","0.0-15.0-0.7","69510","","new_stimuli/mp3/melody_1_v1+_^2_.mp3","","null","",""
"","1225.0250000033993","html-button-response","110","775105","0.0-15.0-1.7","69510","","<p>Which tone was played first after the cadence?</p><p>Please respond as quickly and as accurately as possible!</p>","0","","1","new_stimuli/mp3/melody_1_v1+_^2_.mp3"
"","726.3250000032131","html-button-response","111","775832","0.0-15.0-2.7","69510","","<p>Which tone was played second after the cadence?</p><p>Please respond as quickly and as accurately as possible!</p>","1","","2","new_stimuli/mp3/melody_1_v1+_^2_.mp3"
"","1040.574999999022","html-button-response","112","776875","0.0-15.0-3.7","69510","","<p>Which tone was played third after the cadence?</p><p>Please respond as quickly and as accurately as possible!</p>","3","","3","new_stimuli/mp3/melody_1_v1+_^2_.mp3"
"","null","audio-keyboard-response","113","786463","0.0-15.0-0.8","69510","","new_stimuli/mp3/melody_v1_v7-_7-_buffer.mp3","","null","",""
"","4933.754999998258","html-button-response","114","791398","0.0-15.0-1.8","69510","","<p>Which tone was played first after the cadence?</p><p>Please respond as quickly and as accurately as possible!</p>","3","","1","new_stimuli/mp3/melody_v1_v7-_7-_buffer.mp3"
"","439.84500000078697","html-button-response","115","791840","0.0-15.0-2.8","69510","","<p>Which tone was played second after the cadence?</p><p>Please respond as quickly and as accurately as possible!</p>","2","","2","new_stimuli/mp3/melody_v1_v7-_7-_buffer.mp3"
"","358.29500000178814","html-button-response","116","792200","0.0-15.0-3.8","69510","","<p>Which tone was played third after the cadence?</p><p>Please respond as quickly and as accurately as possible!</p>","2","","3","new_stimuli/mp3/melody_v1_v7-_7-_buffer.mp3"
"[{""page_index"":0,""viewing_time"":3673.18499999959},{""page_index"":1,""viewing_time"":3615.845000000205},{""page_index"":2,""viewing_time"":714.015000001411}]","8003.350000002654","instructions","117","800204","0.0-16.0","69510","","","","","",""
"","null","audio-keyboard-response","118","811151","0.0-17.0-0.0","69510","","new_stimuli/mp3/melody_v5-_v3_3_^4+_v3_.mp3","","null","",""
"","9844.9099999998","html-button-response","119","820997","0.0-17.0-1.0","69510","","<p>Which tone was played first after the cadence?</p><p>Please respond as quickly and as accurately as possible!</p>","2","","1","new_stimuli/mp3/melody_v5-_v3_3_^4+_v3_.mp3"
"","2331.930000000284","html-button-response","120","823331","0.0-17.0-2.0","69510","","<p>Which tone was played second after the cadence?</p><p>Please respond as quickly and as accurately as possible!</p>","2","","2","new_stimuli/mp3/melody_v5-_v3_3_^4+_v3_.mp3"
"","1520.3050000019139","html-button-response","121","824853","0.0-17.0-3.0","69510","","<p>Which tone was played third after the cadence?</p><p>Please respond as quickly and as accurately as possible!</p>","2","","3","new_stimuli/mp3/melody_v5-_v3_3_^4+_v3_.mp3"
"","334.5200000003679","html-button-response","122","825189","0.0-17.0-4.0","69510","","<p>Which tone was played fourth after the cadence?</p><p>Please respond as quickly and as accurately as possible!</p>","2","","4","new_stimuli/mp3/melody_v5-_v3_3_^4+_v3_.mp3"
"","702.3000000008615","html-button-response","123","825893","0.0-17.0-5.0","69510","","<p>Which tone was played fifth after the cadence?</p><p>Please respond as quickly and as accurately as possible!</p>","2","","5","new_stimuli/mp3/melody_v5-_v3_3_^4+_v3_.mp3"
"","null","audio-keyboard-response","124","836472","0.0-17.0-0.1","69510","","new_stimuli/mp3/melody_v2_2_^3_^4_v2_.mp3","","null","",""
"","3256.359999999404","html-button-response","125","839730","0.0-17.0-1.1","69510","","<p>Which tone was played first after the cadence?</p><p>Please respond as quickly and as accurately as possible!</p>","1","","1","new_stimuli/mp3/melody_v2_2_^3_^4_v2_.mp3"
"","498.1200000002282","html-button-response","126","840230","0.0-17.0-2.1","69510","","<p>Which tone was played second after the cadence?</p><p>Please respond as quickly and as accurately as possible!</p>","1","","2","new_stimuli/mp3/melody_v2_2_^3_^4_v2_.mp3"
"","999.4699999988079","html-button-response","127","841232","0.0-17.0-3.1","69510","","<p>Which tone was played third after the cadence?</p><p>Please respond as quickly and as accurately as possible!</p>","4","","3","new_stimuli/mp3/melody_v2_2_^3_^4_v2_.mp3"
"","528.4849999988219","html-button-response","128","841762","0.0-17.0-4.1","69510","","<p>Which tone was played fourth after the cadence?</p><p>Please respond as quickly and as accurately as possible!</p>","5","","4","new_stimuli/mp3/melody_v2_2_^3_^4_v2_.mp3"
"","1146.3850000000093","html-button-response","129","842910","0.0-17.0-5.1","69510","","<p>Which tone was played fifth after the cadence?</p><p>Please respond as quickly and as accurately as possible!</p>","1","","5","new_stimuli/mp3/melody_v2_2_^3_^4_v2_.mp3"
"","null","audio-keyboard-response","130","853857","0.0-17.0-0.2","69510","","new_stimuli/mp3/melody_^5_^6_v5_v4_v3_buffer.mp3","","null","",""
"","7935.750000000582","html-button-response","131","861795","0.0-17.0-1.2","69510","","<p>Which tone was played first after the cadence?</p><p>Please respond as quickly and as accurately as possible!</p>","4","","1","new_stimuli/mp3/melody_^5_^6_v5_v4_v3_buffer.mp3"
"","568.0700000011129","html-button-response","132","862365","0.0-17.0-2.2","69510","","<p>Which tone was played second after the cadence?</p><p>Please respond as quickly and as accurately as possible!</p>","5","","2","new_stimuli/mp3/melody_^5_^6_v5_v4_v3_buffer.mp3"
"","746.4849999997532","html-button-response","133","863113","0.0-17.0-3.2","69510","","<p>Which tone was played third after the cadence?</p><p>Please respond as quickly and as accurately as possible!</p>","4","","3","new_stimuli/mp3/melody_^5_^6_v5_v4_v3_buffer.mp3"
"","1128.3950000033947","html-button-response","134","864243","0.0-17.0-4.2","69510","","<p>Which tone was played fourth after the cadence?</p><p>Please respond as quickly and as accurately as possible!</p>","2","","4","new_stimuli/mp3/melody_^5_^6_v5_v4_v3_buffer.mp3"
"","2700.5299999982817","html-button-response","135","866945","0.0-17.0-5.2","69510","","<p>Which tone was played fifth after the cadence?</p><p>Please respond as quickly and as accurately as possible!</p>","0","","5","new_stimuli/mp3/melody_^5_^6_v5_v4_v3_buffer.mp3"
"","null","audio-keyboard-response","136","877576","0.0-17.0-0.3","69510","","new_stimuli/mp3/melody_v5_^6+_^7_^1_5_.mp3","","null","",""
"","2964.9200000021374","html-button-response","137","880543","0.0-17.0-1.3","69510","","<p>Which tone was played first after the cadence?</p><p>Please respond as quickly and as accurately as possible!</p>","0","","1","new_stimuli/mp3/melody_v5_^6+_^7_^1_5_.mp3"
"","1162.4400000000605","html-button-response","138","881707","0.0-17.0-2.3","69510","","<p>Which tone was played second after the cadence?</p><p>Please respond as quickly and as accurately as possible!</p>","4","","2","new_stimuli/mp3/melody_v5_^6+_^7_^1_5_.mp3"
"","840.3649999999907","html-button-response","139","882549","0.0-17.0-3.3","69510","","<p>Which tone was played third after the cadence?</p><p>Please respond as quickly and as accurately as possible!</p>","5","","3","new_stimuli/mp3/melody_v5_^6+_^7_^1_5_.mp3"
"","712.5599999999395","html-button-response","140","883263","0.0-17.0-4.3","69510","","<p>Which tone was played fourth after the cadence?</p><p>Please respond as quickly and as accurately as possible!</p>","7","","4","new_stimuli/mp3/melody_v5_^6+_^7_^1_5_.mp3"
"","1370.2499999998836","html-button-response","141","884635","0.0-17.0-5.3","69510","","<p>Which tone was played fifth after the cadence?</p><p>Please respond as quickly and as accurately as possible!</p>","4","","5","new_stimuli/mp3/melody_v5_^6+_^7_^1_5_.mp3"
"","null","audio-keyboard-response","142","895217","0.0-17.0-0.4","69510","","new_stimuli/mp3/melody_v5_v4_v3_v2_v1 _buffer.mp3","","null","",""
"","2816.969999999972","html-button-response","143","898036","0.0-17.0-1.4","69510","","<p>Which tone was played first after the cadence?</p><p>Please respond as quickly and as accurately as possible!</p>","0","","1","new_stimuli/mp3/melody_v5_v4_v3_v2_v1 _buffer.mp3"
"","1480.3600000012666","html-button-response","144","899518","0.0-17.0-2.4","69510","","<p>Which tone was played second after the cadence?</p><p>Please respond as quickly and as accurately as possible!</p>","11","","2","new_stimuli/mp3/melody_v5_v4_v3_v2_v1 _buffer.mp3"
"","4922.0549999990035","html-button-response","145","904442","0.0-17.0-3.4","69510","","<p>Which tone was played third after the cadence?</p><p>Please respond as quickly and as accurately as possible!</p>","9","","3","new_stimuli/mp3/melody_v5_v4_v3_v2_v1 _buffer.mp3"
"","2967.9799999975367","html-button-response","146","907412","0.0-17.0-4.4","69510","","<p>Which tone was played fourth after the cadence?</p><p>Please respond as quickly and as accurately as possible!</p>","5","","4","new_stimuli/mp3/melody_v5_v4_v3_v2_v1 _buffer.mp3"
"","2052.2799999999115","html-button-response","147","909466","0.0-17.0-5.4","69510","","<p>Which tone was played fifth after the cadence?</p><p>Please respond as quickly and as accurately as possible!</p>","0","","5","new_stimuli/mp3/melody_v5_v4_v3_v2_v1 _buffer.mp3"
"","null","audio-keyboard-response","148","920173","0.0-17.0-0.5","69510","","new_stimuli/mp3/melody_^6_v5_v4_v3_v2_buffer.mp3","","null","",""
"","3849.014999999781","html-button-response","149","924024","0.0-17.0-1.5","69510","","<p>Which tone was played first after the cadence?</p><p>Please respond as quickly and as accurately as possible!</p>","5","","1","new_stimuli/mp3/melody_^6_v5_v4_v3_v2_buffer.mp3"
"","5346.58500000299","html-button-response","150","929372","0.0-17.0-2.5","69510","","<p>Which tone was played second after the cadence?</p><p>Please respond as quickly and as accurately as possible!</p>","4","","2","new_stimuli/mp3/melody_^6_v5_v4_v3_v2_buffer.mp3"
"","373.9800000003306","html-button-response","151","929748","0.0-17.0-3.5","69510","","<p>Which tone was played third after the cadence?</p><p>Please respond as quickly and as accurately as possible!</p>","3","","3","new_stimuli/mp3/melody_^6_v5_v4_v3_v2_buffer.mp3"
"","600.4199999987613","html-button-response","152","930350","0.0-17.0-4.5","69510","","<p>Which tone was played fourth after the cadence?</p><p>Please respond as quickly and as accurately as possible!</p>","2","","4","new_stimuli/mp3/melody_^6_v5_v4_v3_v2_buffer.mp3"
"","856.2200000014855","html-button-response","153","931211","0.0-17.0-5.5","69510","","<p>Which tone was played fifth after the cadence?</p><p>Please respond as quickly and as accurately as possible!</p>","0","","5","new_stimuli/mp3/melody_^6_v5_v4_v3_v2_buffer.mp3"
"","null","audio-keyboard-response","154","941790","0.0-17.0-0.6","69510","","new_stimuli/mp3/melody_v5_v4_v3_v2_v1_.mp3","","null","",""
"","4223.899999997229","html-button-response","155","946016","0.0-17.0-1.6","69510","","<p>Which tone was played first after the cadence?</p><p>Please respond as quickly and as accurately as possible!</p>","7","","1","new_stimuli/mp3/melody_v5_v4_v3_v2_v1_.mp3"
"","709.9399999970337","html-button-response","156","946728","0.0-17.0-2.6","69510","","<p>Which tone was played second after the cadence?</p><p>Please respond as quickly and as accurately as possible!</p>","5","","2","new_stimuli/mp3/melody_v5_v4_v3_v2_v1_.mp3"
"","532.015000000596","html-button-response","157","947261","0.0-17.0-3.6","69510","","<p>Which tone was played third after the cadence?</p><p>Please respond as quickly and as accurately as possible!</p>","4","","3","new_stimuli/mp3/melody_v5_v4_v3_v2_v1_.mp3"
"","566.1550000003772","html-button-response","158","947829","0.0-17.0-4.6","69510","","<p>Which tone was played fourth after the cadence?</p><p>Please respond as quickly and as accurately as possible!</p>","2","","4","new_stimuli/mp3/melody_v5_v4_v3_v2_v1_.mp3"
"","567.0449999998091","html-button-response","159","948397","0.0-17.0-5.6","69510","","<p>Which tone was played fifth after the cadence?</p><p>Please respond as quickly and as accurately as possible!</p>","0","","5","new_stimuli/mp3/melody_v5_v4_v3_v2_v1_.mp3"
"","null","audio-keyboard-response","160","959030","0.0-17.0-0.7","69510","","new_stimuli/mp3/melody_^6_v4_v3_^4_^5_.mp3","","null","",""
"","982.09499999939","html-button-response","161","960015","0.0-17.0-1.7","69510","","<p>Which tone was played first after the cadence?</p><p>Please respond as quickly and as accurately as possible!</p>","7","","1","new_stimuli/mp3/melody_^6_v4_v3_^4_^5_.mp3"
"","1696.5500000005122","html-button-response","162","961713","0.0-17.0-2.7","69510","","<p>Which tone was played second after the cadence?</p><p>Please respond as quickly and as accurately as possible!</p>","4","","2","new_stimuli/mp3/melody_^6_v4_v3_^4_^5_.mp3"
"","720.3049999988871","html-button-response","163","962434","0.0-17.0-3.7","69510","","<p>Which tone was played third after the cadence?</p><p>Please respond as quickly and as accurately as possible!</p>","2","","3","new_stimuli/mp3/melody_^6_v4_v3_^4_^5_.mp3"
"","576.629999999539","html-button-response","164","963013","0.0-17.0-4.7","69510","","<p>Which tone was played fourth after the cadence?</p><p>Please respond as quickly and as accurately as possible!</p>","4","","4","new_stimuli/mp3/melody_^6_v4_v3_^4_^5_.mp3"
"","752.4999999987194","html-button-response","165","963767","0.0-17.0-5.7","69510","","<p>Which tone was played fifth after the cadence?</p><p>Please respond as quickly and as accurately as possible!</p>","7","","5","new_stimuli/mp3/melody_^6_v4_v3_^4_^5_.mp3"
"[{""page_index"":0,""viewing_time"":2138.3900000001304},{""page_index"":1,""viewing_time"":1035.984999998589},{""page_index"":2,""viewing_time"":1203.7549999986077}]","4378.424999998999","instructions","166","968146","0.0-18.0","69510","","","","","",""
"","null","audio-keyboard-response","167","979847","0.0-19.0-0.0","69510","","new_stimuli/mp3/melody_^1_v7_v6_v5_v4_v3_v2_buffer.mp3","","null","",""
"","4708.200000001001","html-button-response","168","984557","0.0-19.0-1.0","69510","","<p>Which tone was played first after the cadence?</p><p>Please respond as quickly and as accurately as possible!</p>","11","","1","new_stimuli/mp3/melody_^1_v7_v6_v5_v4_v3_v2_buffer.mp3"
"","735.6249999974389","html-button-response","169","985295","0.0-19.0-2.0","69510","","<p>Which tone was played second after the cadence?</p><p>Please respond as quickly and as accurately as possible!</p>","9","","2","new_stimuli/mp3/melody_^1_v7_v6_v5_v4_v3_v2_buffer.mp3"
"","946.6949999987846","html-button-response","170","986243","0.0-19.0-3.0","69510","","<p>Which tone was played third after the cadence?</p><p>Please respond as quickly and as accurately as possible!</p>","7","","3","new_stimuli/mp3/melody_^1_v7_v6_v5_v4_v3_v2_buffer.mp3"
"","672.0899999963585","html-button-response","171","986917","0.0-19.0-4.0","69510","","<p>Which tone was played fourth after the cadence?</p><p>Please respond as quickly and as accurately as possible!</p>","5","","4","new_stimuli/mp3/melody_^1_v7_v6_v5_v4_v3_v2_buffer.mp3"
"","1470.399999998277","html-button-response","172","988389","0.0-19.0-5.0","69510","","<p>Which tone was played fifth after the cadence?</p><p>Please respond as quickly and as accurately as possible!</p>","4","","5","new_stimuli/mp3/melody_^1_v7_v6_v5_v4_v3_v2_buffer.mp3"
"","608.1999999987893","html-button-response","173","988999","0.0-19.0-6.0","69510","","<p>Which tone was played sixth after the cadence?</p><p>Please respond as quickly and as accurately as possible!</p>","2","","6","new_stimuli/mp3/melody_^1_v7_v6_v5_v4_v3_v2_buffer.mp3"
"","1908.465000000433","html-button-response","174","990909","0.0-19.0-7.0","69510","","<p>Which tone was played seventh after the cadence?</p><p>Please respond as quickly and as accurately as possible!</p>","1","","7","new_stimuli/mp3/melody_^1_v7_v6_v5_v4_v3_v2_buffer.mp3"
"","null","audio-keyboard-response","175","1002608","0.0-19.0-0.1","69510","","new_stimuli/mp3/melody_^4_^5_^6_v5_v4_v3_v2_.mp3","","null","",""
"","1311.0899999991525","html-button-response","176","1003921","0.0-19.0-1.1","69510","","<p>Which tone was played first after the cadence?</p><p>Please respond as quickly and as accurately as possible!</p>","2","","1","new_stimuli/mp3/melody_^4_^5_^6_v5_v4_v3_v2_.mp3"
"","886.0999999997439","html-button-response","177","1004809","0.0-19.0-2.1","69510","","<p>Which tone was played second after the cadence?</p><p>Please respond as quickly and as accurately as possible!</p>","4","","2","new_stimuli/mp3/melody_^4_^5_^6_v5_v4_v3_v2_.mp3"
"","1454.600000000908","html-button-response","178","1006265","0.0-19.0-3.1","69510","","<p>Which tone was played third after the cadence?</p><p>Please respond as quickly and as accurately as possible!</p>","7","","3","new_stimuli/mp3/melody_^4_^5_^6_v5_v4_v3_v2_.mp3"
"","778.4150000007357","html-button-response","179","1007045","0.0-19.0-4.1","69510","","<p>Which tone was played fourth after the cadence?</p><p>Please respond as quickly and as accurately as possible!</p>","5","","4","new_stimuli/mp3/melody_^4_^5_^6_v5_v4_v3_v2_.mp3"
"","1140.4199999996927","html-button-response","180","1008187","0.0-19.0-5.1","69510","","<p>Which tone was played fifth after the cadence?</p><p>Please respond as quickly and as accurately as possible!</p>","3","","5","new_stimuli/mp3/melody_^4_^5_^6_v5_v4_v3_v2_.mp3"
"","584.2300000003306","html-button-response","181","1008773","0.0-19.0-6.1","69510","","<p>Which tone was played sixth after the cadence?</p><p>Please respond as quickly and as accurately as possible!</p>","2","","6","new_stimuli/mp3/melody_^4_^5_^6_v5_v4_v3_v2_.mp3"
"","1148.26500000339","html-button-response","182","1009923","0.0-19.0-7.1","69510","","<p>Which tone was played seventh after the cadence?</p><p>Please respond as quickly and as accurately as possible!</p>","0","","7","new_stimuli/mp3/melody_^4_^5_^6_v5_v4_v3_v2_.mp3"
"","null","audio-keyboard-response","183","1021601","0.0-19.0-0.2","69510","","new_stimuli/mp3/melody_^4_v6-_v5-_^6-_^4_v2-_2-_.mp3","","null","",""
"","1512.3899999998976","html-button-response","184","1023116","0.0-19.0-1.2","69510","","<p>Which tone was played first after the cadence?</p><p>Please respond as quickly and as accurately as possible!</p>","12","","1","new_stimuli/mp3/melody_^4_v6-_v5-_^6-_^4_v2-_2-_.mp3"
"","2860.824999999837","html-button-response","185","1025978","0.0-19.0-2.2","69510","","<p>Which tone was played second after the cadence?</p><p>Please respond as quickly and as accurately as possible!</p>","8","","2","new_stimuli/mp3/melody_^4_v6-_v5-_^6-_^4_v2-_2-_.mp3"
"","692.0050000008196","html-button-response","186","1026672","0.0-19.0-3.2","69510","","<p>Which tone was played third after the cadence?</p><p>Please respond as quickly and as accurately as possible!</p>","7","","3","new_stimuli/mp3/melody_^4_v6-_v5-_^6-_^4_v2-_2-_.mp3"
"","856.2300000011455","html-button-response","187","1027530","0.0-19.0-4.2","69510","","<p>Which tone was played fourth after the cadence?</p><p>Please respond as quickly and as accurately as possible!</p>","8","","4","new_stimuli/mp3/melody_^4_v6-_v5-_^6-_^4_v2-_2-_.mp3"
"","3122.2400000005728","html-button-response","188","1030654","0.0-19.0-5.2","69510","","<p>Which tone was played fifth after the cadence?</p><p>Please respond as quickly and as accurately as possible!</p>","4","","5","new_stimuli/mp3/melody_^4_v6-_v5-_^6-_^4_v2-_2-_.mp3"
"","609.8500000007916","html-button-response","189","1031266","0.0-19.0-6.2","69510","","<p>Which tone was played sixth after the cadence?</p><p>Please respond as quickly and as accurately as possible!</p>","2","","6","new_stimuli/mp3/melody_^4_v6-_v5-_^6-_^4_v2-_2-_.mp3"
"","190.34000000101514","html-button-response","190","1031458","0.0-19.0-7.2","69510","","<p>Which tone was played seventh after the cadence?</p><p>Please respond as quickly and as accurately as possible!</p>","2","","7","new_stimuli/mp3/melody_^4_v6-_v5-_^6-_^4_v2-_2-_.mp3"
"","null","audio-keyboard-response","191","1043108","0.0-19.0-0.3","69510","","new_stimuli/mp3/melody_^6_v5+_v4_^5+_v3_v1_v7-_.mp3","","null","",""
"","1837.390000000596","html-button-response","192","1044948","0.0-19.0-1.3","69510","","<p>Which tone was played first after the cadence?</p><p>Please respond as quickly and as accurately as possible!</p>","12","","1","new_stimuli/mp3/melody_^6_v5+_v4_^5+_v3_v1_v7-_.mp3"
"","672.3449999990407","html-button-response","193","1045622","0.0-19.0-2.3","69510","","<p>Which tone was played second after the cadence?</p><p>Please respond as quickly and as accurately as possible!</p>","11","","2","new_stimuli/mp3/melody_^6_v5+_v4_^5+_v3_v1_v7-_.mp3"
"","593.3650000006892","html-button-response","194","1046218","0.0-19.0-3.3","69510","","<p>Which tone was played third after the cadence?</p><p>Please respond as quickly and as accurately as possible!</p>","10","","3","new_stimuli/mp3/melody_^6_v5+_v4_^5+_v3_v1_v7-_.mp3"
"","519.7550000011688","html-button-response","195","1046740","0.0-19.0-4.3","69510","","<p>Which tone was played fourth after the cadence?</p><p>Please respond as quickly and as accurately as possible!</p>","11","","4","new_stimuli/mp3/melody_^6_v5+_v4_^5+_v3_v1_v7-_.mp3"
"","648.3799999987241","html-button-response","196","1047390","0.0-19.0-5.3","69510","","<p>Which tone was played fifth after the cadence?</p><p>Please respond as quickly and as accurately as possible!</p>","9","","5","new_stimuli/mp3/melody_^6_v5+_v4_^5+_v3_v1_v7-_.mp3"
"","632.2999999976018","html-button-response","197","1048024","0.0-19.0-6.3","69510","","<p>Which tone was played sixth after the cadence?</p><p>Please respond as quickly and as accurately as possible!</p>","7","","6","new_stimuli/mp3/melody_^6_v5+_v4_^5+_v3_v1_v7-_.mp3"
"","291.96500000031665","html-button-response","198","1048318","0.0-19.0-7.3","69510","","<p>Which tone was played seventh after the cadence?</p><p>Please respond as quickly and as accurately as possible!</p>","7","","7","new_stimuli/mp3/melody_^6_v5+_v4_^5+_v3_v1_v7-_.mp3"
"","null","audio-keyboard-response","199","1059890","0.0-19.0-0.4","69510","","new_stimuli/mp3/melody_^5_^6_v5_v4_v3_v2_v1_buffer.mp3","","null","",""
"","673.3300000014715","html-button-response","200","1060566","0.0-19.0-1.4","69510","","<p>Which tone was played first after the cadence?</p><p>Please respond as quickly and as accurately as possible!</p>","0","","1","new_stimuli/mp3/melody_^5_^6_v5_v4_v3_v2_v1_buffer.mp3"
"","890.2449999987148","html-button-response","201","1061457","0.0-19.0-2.4","69510","","<p>Which tone was played second after the cadence?</p><p>Please respond as quickly and as accurately as possible!</p>","2","","2","new_stimuli/mp3/melody_^5_^6_v5_v4_v3_v2_v1_buffer.mp3"
"","2240.8200000026263","html-button-response","202","1063701","0.0-19.0-3.4","69510","","<p>Which tone was played third after the cadence?</p><p>Please respond as quickly and as accurately as possible!</p>","0","","3","new_stimuli/mp3/melody_^5_^6_v5_v4_v3_v2_v1_buffer.mp3"
"","1153.514999998035","html-button-response","203","1064856","0.0-19.0-4.4","69510","","<p>Which tone was played fourth after the cadence?</p><p>Please respond as quickly and as accurately as possible!</p>","11","","4","new_stimuli/mp3/melody_^5_^6_v5_v4_v3_v2_v1_buffer.mp3"
"","758.3449999983422","html-button-response","204","1065616","0.0-19.0-5.4","69510","","<p>Which tone was played fifth after the cadence?</p><p>Please respond as quickly and as accurately as possible!</p>","9","","5","new_stimuli/mp3/melody_^5_^6_v5_v4_v3_v2_v1_buffer.mp3"
"","1704.1500000013039","html-button-response","205","1067322","0.0-19.0-6.4","69510","","<p>Which tone was played sixth after the cadence?</p><p>Please respond as quickly and as accurately as possible!</p>","7","","6","new_stimuli/mp3/melody_^5_^6_v5_v4_v3_v2_v1_buffer.mp3"
"","786.144999998156","html-button-response","206","1068110","0.0-19.0-7.4","69510","","<p>Which tone was played seventh after the cadence?</p><p>Please respond as quickly and as accurately as possible!</p>","5","","7","new_stimuli/mp3/melody_^5_^6_v5_v4_v3_v2_v1_buffer.mp3"
"","null","audio-keyboard-response","207","1080074","0.0-19.0-0.5","69510","","new_stimuli/mp3/melody_1_^3_v1_^5_v3_v2_^3_.mp3","","null","",""
"","991.8550000002142","html-button-response","208","1081068","0.0-19.0-1.5","69510","","<p>Which tone was played first after the cadence?</p><p>Please respond as quickly and as accurately as possible!</p>","0","","1","new_stimuli/mp3/melody_1_^3_v1_^5_v3_v2_^3_.mp3"
"","1222.695000000298","html-button-response","209","1082292","0.0-19.0-2.5","69510","","<p>Which tone was played second after the cadence?</p><p>Please respond as quickly and as accurately as possible!</p>","4","","2","new_stimuli/mp3/melody_1_^3_v1_^5_v3_v2_^3_.mp3"
"","1026.2250000014901","html-button-response","210","1083320","0.0-19.0-3.5","69510","","<p>Which tone was played third after the cadence?</p><p>Please respond as quickly and as accurately as possible!</p>","2","","3","new_stimuli/mp3/melody_1_^3_v1_^5_v3_v2_^3_.mp3"
"","1744.4150000009686","html-button-response","211","1085066","0.0-19.0-4.5","69510","","<p>Which tone was played fourth after the cadence?</p><p>Please respond as quickly and as accurately as possible!</p>","5","","4","new_stimuli/mp3/melody_1_^3_v1_^5_v3_v2_^3_.mp3"
"","3964.37999999756","html-button-response","212","1089032","0.0-19.0-5.5","69510","","<p>Which tone was played fifth after the cadence?</p><p>Please respond as quickly and as accurately as possible!</p>","4","","5","new_stimuli/mp3/melody_1_^3_v1_^5_v3_v2_^3_.mp3"
"","2347.8299999989104","html-button-response","213","1091382","0.0-19.0-6.5","69510","","<p>Which tone was played sixth after the cadence?</p><p>Please respond as quickly and as accurately as possible!</p>","9","","6","new_stimuli/mp3/melody_1_^3_v1_^5_v3_v2_^3_.mp3"
"","712.1100000003353","html-button-response","214","1092096","0.0-19.0-7.5","69510","","<p>Which tone was played seventh after the cadence?</p><p>Please respond as quickly and as accurately as possible!</p>","7","","7","new_stimuli/mp3/melody_1_^3_v1_^5_v3_v2_^3_.mp3"
"","null","audio-keyboard-response","215","1103798","0.0-19.0-0.6","69510","","new_stimuli/mp3/melody_v1_^2_v1_v7_^1_^3_v2_.mp3","","null","",""
"","859.8349999992643","html-button-response","216","1104660","0.0-19.0-1.6","69510","","<p>Which tone was played first after the cadence?</p><p>Please respond as quickly and as accurately as possible!</p>","0","","1","new_stimuli/mp3/melody_v1_^2_v1_v7_^1_^3_v2_.mp3"
"","608.5400000012014","html-button-response","217","1105270","0.0-19.0-2.6","69510","","<p>Which tone was played second after the cadence?</p><p>Please respond as quickly and as accurately as possible!</p>","2","","2","new_stimuli/mp3/melody_v1_^2_v1_v7_^1_^3_v2_.mp3"
"","703.7899999995716","html-button-response","218","1105976","0.0-19.0-3.6","69510","","<p>Which tone was played third after the cadence?</p><p>Please respond as quickly and as accurately as possible!</p>","0","","3","new_stimuli/mp3/melody_v1_^2_v1_v7_^1_^3_v2_.mp3"
"","2757.0800000031013","html-button-response","219","1108734","0.0-19.0-4.6","69510","","<p>Which tone was played fourth after the cadence?</p><p>Please respond as quickly and as accurately as possible!</p>","10","","4","new_stimuli/mp3/melody_v1_^2_v1_v7_^1_^3_v2_.mp3"
"","1794.2399999992922","html-button-response","220","1110530","0.0-19.0-5.6","69510","","<p>Which tone was played fifth after the cadence?</p><p>Please respond as quickly and as accurately as possible!</p>","0","","5","new_stimuli/mp3/melody_v1_^2_v1_v7_^1_^3_v2_.mp3"
"","1190.1749999998137","html-button-response","221","1111722","0.0-19.0-6.6","69510","","<p>Which tone was played sixth after the cadence?</p><p>Please respond as quickly and as accurately as possible!</p>","4","","6","new_stimuli/mp3/melody_v1_^2_v1_v7_^1_^3_v2_.mp3"
"","3110.4100000010803","html-button-response","222","1114834","0.0-19.0-7.6","69510","","<p>Which tone was played seventh after the cadence?</p><p>Please respond as quickly and as accurately as possible!</p>","2","","7","new_stimuli/mp3/melody_v1_^2_v1_v7_^1_^3_v2_.mp3"
"[{""page_index"":0,""viewing_time"":4080.5749999999534},{""page_index"":1,""viewing_time"":998.2749999980442},{""page_index"":2,""viewing_time"":1103.870000002673}]","6183.014999998733","instructions","223","1121018","0.0-20.0","69510","","","","","",""
"","null","audio-keyboard-response","224","1133949","0.0-21.0-0.0","69510","","new_stimuli/mp3/melody_^2_^4_v3_v2_v1_v3_v2+_^3_^5+_.mp3","","null","",""
"","3397.0500000030734","html-button-response","225","1137348","0.0-21.0-1.0","69510","","<p>Which tone was played first after the cadence?</p><p>Please respond as quickly and as accurately as possible!</p>","0","","1","new_stimuli/mp3/melody_^2_^4_v3_v2_v1_v3_v2+_^3_^5+_.mp3"
"","844.5849999990314","html-button-response","226","1138194","0.0-21.0-2.0","69510","","<p>Which tone was played second after the cadence?</p><p>Please respond as quickly and as accurately as possible!</p>","2","","2","new_stimuli/mp3/melody_^2_^4_v3_v2_v1_v3_v2+_^3_^5+_.mp3"
"","1078.1750000023749","html-button-response","227","1139274","0.0-21.0-3.0","69510","","<p>Which tone was played third after the cadence?</p><p>Please respond as quickly and as accurately as possible!</p>","0","","3","new_stimuli/mp3/melody_^2_^4_v3_v2_v1_v3_v2+_^3_^5+_.mp3"
"","2062.3600000001024","html-button-response","228","1141338","0.0-21.0-4.0","69510","","<p>Which tone was played fourth after the cadence?</p><p>Please respond as quickly and as accurately as possible!</p>","10","","4","new_stimuli/mp3/melody_^2_^4_v3_v2_v1_v3_v2+_^3_^5+_.mp3"
"","1366.3099999977276","html-button-response","229","1142706","0.0-21.0-5.0","69510","","<p>Which tone was played fifth after the cadence?</p><p>Please respond as quickly and as accurately as possible!</p>","2","","5","new_stimuli/mp3/melody_^2_^4_v3_v2_v1_v3_v2+_^3_^5+_.mp3"
"","1246.2200000009034","html-button-response","230","1143954","0.0-21.0-6.0","69510","","<p>Which tone was played sixth after the cadence?</p><p>Please respond as quickly and as accurately as possible!</p>","4","","6","new_stimuli/mp3/melody_^2_^4_v3_v2_v1_v3_v2+_^3_^5+_.mp3"
"","386.4399999983143","html-button-response","231","1144342","0.0-21.0-7.0","69510","","<p>Which tone was played seventh after the cadence?</p><p>Please respond as quickly and as accurately as possible!</p>","3","","7","new_stimuli/mp3/melody_^2_^4_v3_v2_v1_v3_v2+_^3_^5+_.mp3"
"","1004.3200000000652","html-button-response","232","1145348","0.0-21.0-8.0","69510","","<p>Which tone was played eight after the cadence?</p><p>Please respond as quickly and as accurately as possible!</p>","7","","8","new_stimuli/mp3/melody_^2_^4_v3_v2_v1_v3_v2+_^3_^5+_.mp3"
"","756.3249999985565","html-button-response","233","1146106","0.0-21.0-9.0","69510","","<p>Which tone was played nineth after the cadence?</p><p>Please respond as quickly and as accurately as possible!</p>","7","","9","new_stimuli/mp3/melody_^2_^4_v3_v2_v1_v3_v2+_^3_^5+_.mp3"
"","null","audio-keyboard-response","234","1158800","0.0-21.0-0.1","69510","","new_stimuli/mp3/melody_^2_^3_^4_^5_^6_v5_v4_v3_v2_buffer.mp3","","null","",""
"","3724.5050000019837","html-button-response","235","1162526","0.0-21.0-1.1","69510","","<p>Which tone was played first after the cadence?</p><p>Please respond as quickly and as accurately as possible!</p>","2","","1","new_stimuli/mp3/melody_^2_^3_^4_^5_^6_v5_v4_v3_v2_buffer.mp3"
"","1311.8900000010617","html-button-response","236","1163841","0.0-21.0-2.1","69510","","<p>Which tone was played second after the cadence?</p><p>Please respond as quickly and as accurately as possible!</p>","4","","2","new_stimuli/mp3/melody_^2_^3_^4_^5_^6_v5_v4_v3_v2_buffer.mp3"
"","736.7749999975786","html-button-response","237","1164579","0.0-21.0-3.1","69510","","<p>Which tone was played third after the cadence?</p><p>Please respond as quickly and as accurately as possible!</p>","5","","3","new_stimuli/mp3/melody_^2_^3_^4_^5_^6_v5_v4_v3_v2_buffer.mp3"
"","728.3050000006333","html-button-response","238","1165309","0.0-21.0-4.1","69510","","<p>Which tone was played fourth after the cadence?</p><p>Please respond as quickly and as accurately as possible!</p>","7","","4","new_stimuli/mp3/melody_^2_^3_^4_^5_^6_v5_v4_v3_v2_buffer.mp3"
"","2070.2399999971967","html-button-response","239","1167381","0.0-21.0-5.1","69510","","<p>Which tone was played fifth after the cadence?</p><p>Please respond as quickly and as accurately as possible!</p>","9","","5","new_stimuli/mp3/melody_^2_^3_^4_^5_^6_v5_v4_v3_v2_buffer.mp3"
"","536.0800000017043","html-button-response","240","1167919","0.0-21.0-6.1","69510","","<p>Which tone was played sixth after the cadence?</p><p>Please respond as quickly and as accurately as possible!</p>","7","","6","new_stimuli/mp3/melody_^2_^3_^4_^5_^6_v5_v4_v3_v2_buffer.mp3"
"","986.4349999988917","html-button-response","241","1168907","0.0-21.0-7.1","69510","","<p>Which tone was played seventh after the cadence?</p><p>Please respond as quickly and as accurately as possible!</p>","5","","7","new_stimuli/mp3/melody_^2_^3_^4_^5_^6_v5_v4_v3_v2_buffer.mp3"
"","1748.2899999995716","html-button-response","242","1170657","0.0-21.0-8.1","69510","","<p>Which tone was played eight after the cadence?</p><p>Please respond as quickly and as accurately as possible!</p>","4","","8","new_stimuli/mp3/melody_^2_^3_^4_^5_^6_v5_v4_v3_v2_buffer.mp3"
"","576.5499999979511","html-button-response","243","1171235","0.0-21.0-9.1","69510","","<p>Which tone was played nineth after the cadence?</p><p>Please respond as quickly and as accurately as possible!</p>","2","","9","new_stimuli/mp3/melody_^2_^3_^4_^5_^6_v5_v4_v3_v2_buffer.mp3"
"","null","audio-keyboard-response","244","1183802","0.0-21.0-0.2","69510","","new_stimuli/mp3/melody_^3_^4_^5 _^6_v5_v4_v3_v2_v1_.mp3","","null","",""
"","1013.1650000002701","html-button-response","245","1184817","0.0-21.0-1.2","69510","","<p>Which tone was played first after the cadence?</p><p>Please respond as quickly and as accurately as possible!</p>","2","","1","new_stimuli/mp3/melody_^3_^4_^5 _^6_v5_v4_v3_v2_v1_.mp3"
"","679.8749999979045","html-button-response","246","1185499","0.0-21.0-2.2","69510","","<p>Which tone was played second after the cadence?</p><p>Please respond as quickly and as accurately as possible!</p>","4","","2","new_stimuli/mp3/melody_^3_^4_^5 _^6_v5_v4_v3_v2_v1_.mp3"
"","869.3200000014622","html-button-response","247","1186369","0.0-21.0-3.2","69510","","<p>Which tone was played third after the cadence?</p><p>Please respond as quickly and as accurately as possible!</p>","5","","3","new_stimuli/mp3/melody_^3_^4_^5 _^6_v5_v4_v3_v2_v1_.mp3"
"","2942.0649999992456","html-button-response","248","1189313","0.0-21.0-4.2","69510","","<p>Which tone was played fourth after the cadence?</p><p>Please respond as quickly and as accurately as possible!</p>","9","","4","new_stimuli/mp3/melody_^3_^4_^5 _^6_v5_v4_v3_v2_v1_.mp3"
"","1508.2599999988452","html-button-response","249","1190823","0.0-21.0-5.2","69510","","<p>Which tone was played fifth after the cadence?</p><p>Please respond as quickly and as accurately as possible!</p>","7","","5","new_stimuli/mp3/melody_^3_^4_^5 _^6_v5_v4_v3_v2_v1_.mp3"
"","684.5950000023004","html-button-response","250","1191509","0.0-21.0-6.2","69510","","<p>Which tone was played sixth after the cadence?</p><p>Please respond as quickly and as accurately as possible!</p>","5","","6","new_stimuli/mp3/melody_^3_^4_^5 _^6_v5_v4_v3_v2_v1_.mp3"
"","932.2800000009593","html-button-response","251","1192443","0.0-21.0-7.2","69510","","<p>Which tone was played seventh after the cadence?</p><p>Please respond as quickly and as accurately as possible!</p>","3","","7","new_stimuli/mp3/melody_^3_^4_^5 _^6_v5_v4_v3_v2_v1_.mp3"
"","618.3549999988172","html-button-response","252","1193063","0.0-21.0-8.2","69510","","<p>Which tone was played eight after the cadence?</p><p>Please respond as quickly and as accurately as possible!</p>","2","","8","new_stimuli/mp3/melody_^3_^4_^5 _^6_v5_v4_v3_v2_v1_.mp3"
"","1156.235000002198","html-button-response","253","1194221","0.0-21.0-9.2","69510","","<p>Which tone was played nineth after the cadence?</p><p>Please respond as quickly and as accurately as possible!</p>","0","","9","new_stimuli/mp3/melody_^3_^4_^5 _^6_v5_v4_v3_v2_v1_.mp3"
"","null","audio-keyboard-response","254","1206864","0.0-21.0-0.3","69510","","new_stimuli/mp3/melody_v5_v4_v6+_^7_^3+_v3_v2_v5_^4_.mp3","","null","",""
"","707.5450000010896","html-button-response","255","1207574","0.0-21.0-1.3","69510","","<p>Which tone was played first after the cadence?</p><p>Please respond as quickly and as accurately as possible!</p>","0","","1","new_stimuli/mp3/melody_v5_v4_v6+_^7_^3+_v3_v2_v5_^4_.mp3"
"","1076.480000003241","html-button-response","256","1208652","0.0-21.0-2.3","69510","","<p>Which tone was played second after the cadence?</p><p>Please respond as quickly and as accurately as possible!</p>","11","","2","new_stimuli/mp3/melody_v5_v4_v6+_^7_^3+_v3_v2_v5_^4_.mp3"
"","471.9150000018999","html-button-response","257","1209125","0.0-21.0-3.3","69510","","<p>Which tone was played third after the cadence?</p><p>Please respond as quickly and as accurately as possible!</p>","10","","3","new_stimuli/mp3/melody_v5_v4_v6+_^7_^3+_v3_v2_v5_^4_.mp3"
"","784.5699999998324","html-button-response","258","1209912","0.0-21.0-4.3","69510","","<p>Which tone was played fourth after the cadence?</p><p>Please respond as quickly and as accurately as possible!</p>","8","","4","new_stimuli/mp3/melody_v5_v4_v6+_^7_^3+_v3_v2_v5_^4_.mp3"
"","1832.3600000003353","html-button-response","259","1211746","0.0-21.0-5.3","69510","","<p>Which tone was played fifth after the cadence?</p><p>Please respond as quickly and as accurately as possible!</p>","3","","5","new_stimuli/mp3/melody_v5_v4_v6+_^7_^3+_v3_v2_v5_^4_.mp3"
"","785.9600000008941","html-button-response","260","1212534","0.0-21.0-6.3","69510","","<p>Which tone was played sixth after the cadence?</p><p>Please respond as quickly and as accurately as possible!</p>","1","","6","new_stimuli/mp3/melody_v5_v4_v6+_^7_^3+_v3_v2_v5_^4_.mp3"
"","494.1699999982957","html-button-response","261","1213029","0.0-21.0-7.3","69510","","<p>Which tone was played seventh after the cadence?</p><p>Please respond as quickly and as accurately as possible!</p>","2","","7","new_stimuli/mp3/melody_v5_v4_v6+_^7_^3+_v3_v2_v5_^4_.mp3"
"","594.6850000000559","html-button-response","262","1213625","0.0-21.0-8.3","69510","","<p>Which tone was played eight after the cadence?</p><p>Please respond as quickly and as accurately as possible!</p>","0","","8","new_stimuli/mp3/melody_v5_v4_v6+_^7_^3+_v3_v2_v5_^4_.mp3"
"","576.4349999991246","html-button-response","263","1214203","0.0-21.0-9.3","69510","","<p>Which tone was played nineth after the cadence?</p><p>Please respond as quickly and as accurately as possible!</p>","0","","9","new_stimuli/mp3/melody_v5_v4_v6+_^7_^3+_v3_v2_v5_^4_.mp3"
"","null","audio-keyboard-response","264","1226845","0.0-21.0-0.4","69510","","new_stimuli/mp3/melody_^3_^4_v2_v7_^1_^2_^3_3_^4_.mp3","","null","",""
"","968.8799999966286","html-button-response","265","1227815","0.0-21.0-1.4","69510","","<p>Which tone was played first after the cadence?</p><p>Please respond as quickly and as accurately as possible!</p>","0","","1","new_stimuli/mp3/melody_^3_^4_v2_v7_^1_^2_^3_3_^4_.mp3"
"","576.3550000011455","html-button-response","266","1228393","0.0-21.0-2.4","69510","","<p>Which tone was played second after the cadence?</p><p>Please respond as quickly and as accurately as possible!</p>","2","","2","new_stimuli/mp3/melody_^3_^4_v2_v7_^1_^2_^3_3_^4_.mp3"
"","478.42499999748543","html-button-response","267","1228873","0.0-21.0-3.4","69510","","<p>Which tone was played third after the cadence?</p><p>Please respond as quickly and as accurately as possible!</p>","0","","3","new_stimuli/mp3/melody_^3_^4_v2_v7_^1_^2_^3_3_^4_.mp3"
"","1976.360000000568","html-button-response","268","1230851","0.0-21.0-4.4","69510","","<p>Which tone was played fourth after the cadence?</p><p>Please respond as quickly and as accurately as possible!</p>","9","","4","new_stimuli/mp3/melody_^3_^4_v2_v7_^1_^2_^3_3_^4_.mp3"
"","1212.5899999991525","html-button-response","269","1232065","0.0-21.0-5.4","69510","","<p>Which tone was played fifth after the cadence?</p><p>Please respond as quickly and as accurately as possible!</p>","12","","5","new_stimuli/mp3/melody_^3_^4_v2_v7_^1_^2_^3_3_^4_.mp3"
"","1530.3300000014715","html-button-response","270","1233597","0.0-21.0-6.4","69510","","<p>Which tone was played sixth after the cadence?</p><p>Please respond as quickly and as accurately as possible!</p>","3","","6","new_stimuli/mp3/melody_^3_^4_v2_v7_^1_^2_^3_3_^4_.mp3"
"","610.179999999702","html-button-response","271","1234209","0.0-21.0-7.4","69510","","<p>Which tone was played seventh after the cadence?</p><p>Please respond as quickly and as accurately as possible!</p>","2","","7","new_stimuli/mp3/melody_^3_^4_v2_v7_^1_^2_^3_3_^4_.mp3"
"","308.31000000052154","html-button-response","272","1234519","0.0-21.0-8.4","69510","","<p>Which tone was played eight after the cadence?</p><p>Please respond as quickly and as accurately as possible!</p>","2","","8","new_stimuli/mp3/melody_^3_^4_v2_v7_^1_^2_^3_3_^4_.mp3"
"","1052.7449999973178","html-button-response","273","1235573","0.0-21.0-9.4","69510","","<p>Which tone was played nineth after the cadence?</p><p>Please respond as quickly and as accurately as possible!</p>","0","","9","new_stimuli/mp3/melody_^3_^4_v2_v7_^1_^2_^3_3_^4_.mp3"
"","null","audio-keyboard-response","274","1248213","0.0-21.0-0.5","69510","","new_stimuli/mp3/melody_v7_v6_v5_^6_v5_v4_^5_^6_v5_.mp3","","null","",""
"","6595.554999999935","html-button-response","275","1254810","0.0-21.0-1.5","69510","","<p>Which tone was played first after the cadence?</p><p>Please respond as quickly and as accurately as possible!</p>","0","","1","new_stimuli/mp3/melody_v7_v6_v5_^6_v5_v4_^5_^6_v5_.mp3"
"","1822.2999999998137","html-button-response","276","1256634","0.0-21.0-2.5","69510","","<p>Which tone was played second after the cadence?</p><p>Please respond as quickly and as accurately as possible!</p>","2","","2","new_stimuli/mp3/melody_v7_v6_v5_^6_v5_v4_^5_^6_v5_.mp3"
"","648.0300000002608","html-button-response","277","1257284","0.0-21.0-3.5","69510","","<p>Which tone was played third after the cadence?</p><p>Please respond as quickly and as accurately as possible!</p>","0","","3","new_stimuli/mp3/melody_v7_v6_v5_^6_v5_v4_^5_^6_v5_.mp3"
"","986.4449999986682","html-button-response","278","1258272","0.0-21.0-4.5","69510","","<p>Which tone was played fourth after the cadence?</p><p>Please respond as quickly and as accurately as possible!</p>","11","","4","new_stimuli/mp3/melody_v7_v6_v5_^6_v5_v4_^5_^6_v5_.mp3"
"","1034.4250000014435","html-button-response","279","1259308","0.0-21.0-5.5","69510","","<p>Which tone was played fifth after the cadence?</p><p>Please respond as quickly and as accurately as possible!</p>","2","","5","new_stimuli/mp3/melody_v7_v6_v5_^6_v5_v4_^5_^6_v5_.mp3"
"","1674.5549999976065","html-button-response","280","1260984","0.0-21.0-6.5","69510","","<p>Which tone was played sixth after the cadence?</p><p>Please respond as quickly and as accurately as possible!</p>","5","","6","new_stimuli/mp3/melody_v7_v6_v5_^6_v5_v4_^5_^6_v5_.mp3"
"","720.3449999978766","html-button-response","281","1261706","0.0-21.0-7.5","69510","","<p>Which tone was played seventh after the cadence?</p><p>Please respond as quickly and as accurately as possible!</p>","4","","7","new_stimuli/mp3/melody_v7_v6_v5_^6_v5_v4_^5_^6_v5_.mp3"
"","368.4350000002887","html-button-response","282","1262076","0.0-21.0-8.5","69510","","<p>Which tone was played eight after the cadence?</p><p>Please respond as quickly and as accurately as possible!</p>","3","","8","new_stimuli/mp3/melody_v7_v6_v5_^6_v5_v4_^5_^6_v5_.mp3"
"","912.2600000009406","html-button-response","283","1262990","0.0-21.0-9.5","69510","","<p>Which tone was played nineth after the cadence?</p><p>Please respond as quickly and as accurately as possible!</p>","1","","9","new_stimuli/mp3/melody_v7_v6_v5_^6_v5_v4_^5_^6_v5_.mp3"
"","null","audio-keyboard-response","284","1275943","0.0-21.0-0.6","69510","","new_stimuli/mp3/melody_^5_^6_v5_v4_v3_v2_v1_^2_^3_buffer.mp3","","null","",""
"","667.3950000004843","html-button-response","285","1276612","0.0-21.0-1.6","69510","","<p>Which tone was played first after the cadence?</p><p>Please respond as quickly and as accurately as possible!</p>","0","","1","new_stimuli/mp3/melody_^5_^6_v5_v4_v3_v2_v1_^2_^3_buffer.mp3"
"","654.7199999985751","html-button-response","286","1277268","0.0-21.0-2.6","69510","","<p>Which tone was played second after the cadence?</p><p>Please respond as quickly and as accurately as possible!</p>","2","","2","new_stimuli/mp3/melody_^5_^6_v5_v4_v3_v2_v1_^2_^3_buffer.mp3"
"","792.269999998156","html-button-response","287","1278062","0.0-21.0-3.6","69510","","<p>Which tone was played third after the cadence?</p><p>Please respond as quickly and as accurately as possible!</p>","0","","3","new_stimuli/mp3/melody_^5_^6_v5_v4_v3_v2_v1_^2_^3_buffer.mp3"
"","1446.5600000005215","html-button-response","288","1279510","0.0-21.0-4.6","69510","","<p>Which tone was played fourth after the cadence?</p><p>Please respond as quickly and as accurately as possible!</p>","11","","4","new_stimuli/mp3/melody_^5_^6_v5_v4_v3_v2_v1_^2_^3_buffer.mp3"
"","766.285000001546","html-button-response","289","1280278","0.0-21.0-5.6","69510","","<p>Which tone was played fifth after the cadence?</p><p>Please respond as quickly and as accurately as possible!</p>","9","","5","new_stimuli/mp3/melody_^5_^6_v5_v4_v3_v2_v1_^2_^3_buffer.mp3"
"","639.9249999995809","html-button-response","290","1280920","0.0-21.0-6.6","69510","","<p>Which tone was played sixth after the cadence?</p><p>Please respond as quickly and as accurately as possible!</p>","7","","6","new_stimuli/mp3/melody_^5_^6_v5_v4_v3_v2_v1_^2_^3_buffer.mp3"
"","654.4499999980908","html-button-response","291","1281576","0.0-21.0-7.6","69510","","<p>Which tone was played seventh after the cadence?</p><p>Please respond as quickly and as accurately as possible!</p>","5","","7","new_stimuli/mp3/melody_^5_^6_v5_v4_v3_v2_v1_^2_^3_buffer.mp3"
"","576.2649999996647","html-button-response","292","1282154","0.0-21.0-8.6","69510","","<p>Which tone was played eight after the cadence?</p><p>Please respond as quickly and as accurately as possible!</p>","7","","8","new_stimuli/mp3/melody_^5_^6_v5_v4_v3_v2_v1_^2_^3_buffer.mp3"
"","576.4549999986775","html-button-response","293","1282732","0.0-21.0-9.6","69510","","<p>Which tone was played nineth after the cadence?</p><p>Please respond as quickly and as accurately as possible!</p>","9","","9","new_stimuli/mp3/melody_^5_^6_v5_v4_v3_v2_v1_^2_^3_buffer.mp3"
"","9925.944999999134","survey-text","294","1292659","0.0-22.0","69510","{""Q0"":""Humming tonic""}","","","","",""
"","29512.770000001183","survey-text","295","1322173","0.0-23.0","69510","{""Q0"":""These were tough!""}","","","","",""
"","5972.434999999823","survey-text","296","1328146","0.0-24.0","69510","{""Q0"":""No""}","","","","",""
"","46.815000001573935","survey-text","297","1328194","0.0-25.0","69510","{""Q0"":""""}","","","","",""
"","2895.109999997774","survey-text","298","1331090","0.0-26.0","69510","{""Q0"":""Male""}","","","","",""
"","5012.979999999516","survey-text","299","1336104","0.0-27.0","69510","{""Q0"":""Yes""}","","","","",""
"[{""page_index"":0,""viewing_time"":5276.840000002179}]","5277.160000001313","instructions","300","1341382","0.0-28.0","69510","","","","","",""
