"view_history","rt","trial_type","trial_index","time_elapsed","internal_node_id","subject","responses","stimulus","button_pressed","key_press","response_sequence","melody"
"[{""page_index"":0,""viewing_time"":2322.6950000971556},{""page_index"":1,""viewing_time"":1195.2549999114126},{""page_index"":0,""viewing_time"":6884.680000133812},{""page_index"":1,""viewing_time"":31969.09000002779},{""page_index"":2,""viewing_time"":2020.4499999526888}]","44392.690000124276","instructions","0","44394","0.0-0.0","7361","","","","","",""
"","2668.044999940321","survey-text","1","47066","0.0-1.0","7361","{""Q0"":""25""}","","","","",""
"","9393.644999945536","survey-text","2","56461","0.0-2.0","7361","{""Q0"":""PhD student""}","","","","",""
"","5330.85500006564","survey-text","3","61793","0.0-3.0","7361","{""Q0"":""moveable-do""}","","","","",""
"","3745.725000044331","survey-text","4","65540","0.0-4.0","7361","{""Q0"":""no""}","","","","",""
"","11075.725000118837","survey-text","5","76616","0.0-5.0","7361","{""Q0"":""60 weeks""}","","","","",""
"","11047.195000108331","survey-text","6","87665","0.0-6.0","7361","{""Q0"":""1.5""}","","","","",""
"[{""page_index"":0,""viewing_time"":3191.3599998224527},{""page_index"":1,""viewing_time"":74740.52000022493},{""page_index"":2,""viewing_time"":3034.3549998942763}]","80966.59499988891","instructions","7","168633","0.0-7.0","7361","","","","","",""
"","9333.899999968708","audio-button-response","8","177970","0.0-8.0","7361","","stimuli/long/c-do.mp3","0","","",""
"","9338.745000073686","audio-button-response","9","187307","0.0-9.0","7361","","stimuli/long/a-le.mp3","8","","",""
"[{""page_index"":0,""viewing_time"":7928.400000091642},{""page_index"":1,""viewing_time"":23838.254999835044}]","31766.94000000134","instructions","10","219072","0.0-10.0","7361","","","","","",""
"","9300.70500005968","audio-button-response","11","228374","0.0-11.0-0.0","7361","","stimuli/long/e-la.mp3","9","","",""
"","10049.324999796227","audio-button-response","12","238425","0.0-11.0-0.1","7361","","stimuli/long/a-mi.mp3","4","","",""
"","10364.204999990761","audio-button-response","13","248790","0.0-11.0-0.2","7361","","stimuli/long/a-sol.mp3","7","","",""
"","19668.099999893457","audio-button-response","14","268460","0.0-11.0-0.3","7361","","stimuli/long/a-ra.mp3","8","","",""
"","9180.605000117794","audio-button-response","15","277641","0.0-11.0-0.4","7361","","stimuli/long/e-re.mp3","2","","",""
"","12380.879999836907","audio-button-response","16","290023","0.0-11.0-0.5","7361","","stimuli/long/c-fa.mp3","5","","",""
"","9043.224999913946","audio-button-response","17","299068","0.0-11.0-0.6","7361","","stimuli/long/c-me.mp3","3","","",""
"","10876.255000010133","audio-button-response","18","309946","0.0-11.0-0.7","7361","","stimuli/long/e-fa.mp3","5","","",""
"","15500.264999922365","audio-button-response","19","325448","0.0-11.0-0.8","7361","","stimuli/long/c-fi.mp3","5","","",""
"","11038.965000072494","audio-button-response","20","336488","0.0-11.0-0.9","7361","","stimuli/long/a-do8.mp3","12","","",""
"","12383.240000111982","audio-button-response","21","348873","0.0-11.0-0.10","7361","","stimuli/long/e-do8.mp3","12","","",""
"","8105.890000006184","audio-button-response","22","356980","0.0-11.0-0.11","7361","","stimuli/long/c-re.mp3","2","","",""
"","null","audio-button-response","23","376982","0.0-11.0-0.12","7361","","stimuli/long/c-ra.mp3","null","","",""
"","8889.149999944493","audio-button-response","24","385873","0.0-11.0-0.13","7361","","stimuli/long/e-fi.mp3","6","","",""
"","11675.754999974743","audio-button-response","25","397549","0.0-11.0-0.14","7361","","stimuli/long/c-do8.mp3","12","","",""
"","10009.559999918565","audio-button-response","26","407560","0.0-11.0-0.15","7361","","stimuli/long/e-te.mp3","9","","",""
"","10347.049999982119","audio-button-response","27","417908","0.0-11.0-0.16","7361","","stimuli/long/e-le.mp3","8","","",""
"","9980.86000001058","audio-button-response","28","427891","0.0-11.0-0.17","7361","","stimuli/long/c-sol.mp3","7","","",""
"","11968.594999983907","audio-button-response","29","439860","0.0-11.0-0.18","7361","","stimuli/long/e-ra.mp3","1","","",""
"","8198.379999957979","audio-button-response","30","448060","0.0-11.0-0.19","7361","","stimuli/long/e-do.mp3","0","","",""
"","10435.599999967963","audio-button-response","31","458497","0.0-11.0-0.20","7361","","stimuli/long/c-la.mp3","9","","",""
"","13791.669999947771","audio-button-response","32","472290","0.0-11.0-0.21","7361","","stimuli/long/c-mi.mp3","4","","",""
"","10088.620000053197","audio-button-response","33","482380","0.0-11.0-0.22","7361","","stimuli/long/a-fa.mp3","5","","",""
"","16916.895000031218","audio-button-response","34","499298","0.0-11.0-0.23","7361","","stimuli/long/a-ti.mp3","11","","",""
"","9253.870000131428","audio-button-response","35","508554","0.0-11.0-0.24","7361","","stimuli/long/e-ti.mp3","11","","",""
"","11382.590000052005","audio-button-response","36","519937","0.0-11.0-0.25","7361","","stimuli/long/a-la.mp3","9","","",""
"","11001.324999844655","audio-button-response","37","530940","0.0-11.0-0.26","7361","","stimuli/long/a-te.mp3","8","","",""
"","9074.645000044256","audio-button-response","38","540016","0.0-11.0-0.27","7361","","stimuli/long/a-re.mp3","2","","",""
"","8662.740000057966","audio-button-response","39","548680","0.0-11.0-0.28","7361","","stimuli/long/e-mi.mp3","4","","",""
"","9662.040000082925","audio-button-response","40","558343","0.0-11.0-0.29","7361","","stimuli/long/e-me.mp3","3","","",""
"","12718.450000043958","audio-button-response","41","571063","0.0-11.0-0.30","7361","","stimuli/long/a-le.mp3","8","","",""
"","9270.669999998063","audio-button-response","42","580335","0.0-11.0-0.31","7361","","stimuli/long/a-me.mp3","3","","",""
"","14065.269999904558","audio-button-response","43","594402","0.0-11.0-0.32","7361","","stimuli/long/c-ti.mp3","11","","",""
"","8333.719999995083","audio-button-response","44","602737","0.0-11.0-0.33","7361","","stimuli/long/a-do.mp3","0","","",""
"","8031.999999890104","audio-button-response","45","610771","0.0-11.0-0.34","7361","","stimuli/long/c-do.mp3","0","","",""
"","11580.66500001587","audio-button-response","46","622353","0.0-11.0-0.35","7361","","stimuli/long/e-sol.mp3","7","","",""
"","16180.81000004895","audio-button-response","47","638535","0.0-11.0-0.36","7361","","stimuli/long/c-le.mp3","8","","",""
"","10694.205000065267","audio-button-response","48","649230","0.0-11.0-0.37","7361","","stimuli/long/a-fi.mp3","6","","",""
"[{""page_index"":0,""viewing_time"":115831.83499984443},{""page_index"":1,""viewing_time"":2368.9400001894683}]","118201.11000002362","instructions","49","767433","0.0-12.0","7361","","","","","",""
"","null","audio-keyboard-response","50","777047","0.0-13.0-0.0","7361","","new_stimuli/mp3/melody_v7_v3_buffer.mp3","","null","",""
"","12571.8999998644","html-button-response","51","789621","0.0-13.0-1.0","7361","","<p>Which tone was played first after the cadence?</p>","6","","1","new_stimuli/mp3/melody_v7_v3_buffer.mp3"
"","17113.10499999672","html-button-response","52","806735","0.0-13.0-2.0","7361","","<p>Which tone was played second after the cadence?</p>","6","","2","new_stimuli/mp3/melody_v7_v3_buffer.mp3"
"","null","audio-keyboard-response","53","816167","0.0-13.0-0.1","7361","","new_stimuli/mp3/melody_v4_v3_buffer.mp3","","null","",""
"","1295.2999998815358","html-button-response","54","817463","0.0-13.0-1.1","7361","","<p>Which tone was played first after the cadence?</p>","5","","1","new_stimuli/mp3/melody_v4_v3_buffer.mp3"
"","1963.5199999902397","html-button-response","55","819428","0.0-13.0-2.1","7361","","<p>Which tone was played second after the cadence?</p>","4","","2","new_stimuli/mp3/melody_v4_v3_buffer.mp3"
"","null","audio-keyboard-response","56","828596","0.0-13.0-0.2","7361","","new_stimuli/mp3/melody_v5_v1+_.mp3","","null","",""
"","24421.82999989018","html-button-response","57","853019","0.0-13.0-1.2","7361","","<p>Which tone was played first after the cadence?</p>","7","","1","new_stimuli/mp3/melody_v5_v1+_.mp3"
"","3327.0750001538545","html-button-response","58","856347","0.0-13.0-2.2","7361","","<p>Which tone was played second after the cadence?</p>","1","","2","new_stimuli/mp3/melody_v5_v1+_.mp3"
"","null","audio-keyboard-response","59","865539","0.0-13.0-0.3","7361","","new_stimuli/mp3/melody_v3_v2_buffer.mp3","","null","",""
"","1478.804999962449","html-button-response","60","867019","0.0-13.0-1.3","7361","","<p>Which tone was played first after the cadence?</p>","4","","1","new_stimuli/mp3/melody_v3_v2_buffer.mp3"
"","1115.965000120923","html-button-response","61","868136","0.0-13.0-2.3","7361","","<p>Which tone was played second after the cadence?</p>","2","","2","new_stimuli/mp3/melody_v3_v2_buffer.mp3"
"","null","audio-keyboard-response","62","877433","0.0-13.0-0.4","7361","","new_stimuli/mp3/melody_3_^6_buffer.mp3","","null","",""
"","8601.644999813288","html-button-response","63","886036","0.0-13.0-1.4","7361","","<p>Which tone was played first after the cadence?</p>","4","","1","new_stimuli/mp3/melody_3_^6_buffer.mp3"
"","5227.509999880567","html-button-response","64","891265","0.0-13.0-2.4","7361","","<p>Which tone was played second after the cadence?</p>","9","","2","new_stimuli/mp3/melody_3_^6_buffer.mp3"
"","null","audio-keyboard-response","65","900276","0.0-13.0-0.5","7361","","new_stimuli/mp3/melody_^1_^2+_.mp3","","null","",""
"","7911.7199999745935","html-button-response","66","908189","0.0-13.0-1.5","7361","","<p>Which tone was played first after the cadence?</p>","0","","1","new_stimuli/mp3/melody_^1_^2+_.mp3"
"","1813.1849998608232","html-button-response","67","910003","0.0-13.0-2.5","7361","","<p>Which tone was played second after the cadence?</p>","3","","2","new_stimuli/mp3/melody_^1_^2+_.mp3"
"","null","audio-keyboard-response","68","919067","0.0-13.0-0.6","7361","","new_stimuli/mp3/melody_v2_v1_.mp3","","null","",""
"","1514.3350001890212","html-button-response","69","920583","0.0-13.0-1.6","7361","","<p>Which tone was played first after the cadence?</p>","2","","1","new_stimuli/mp3/melody_v2_v1_.mp3"
"","1456.9449999835342","html-button-response","70","922040","0.0-13.0-2.6","7361","","<p>Which tone was played second after the cadence?</p>","0","","2","new_stimuli/mp3/melody_v2_v1_.mp3"
"","null","audio-keyboard-response","71","931211","0.0-13.0-0.7","7361","","new_stimuli/mp3/melody_^2_v7-_.mp3","","null","",""
"","4966.78000013344","html-button-response","72","936179","0.0-13.0-1.7","7361","","<p>Which tone was played first after the cadence?</p>","2","","1","new_stimuli/mp3/melody_^2_v7-_.mp3"
"","5402.729999972507","html-button-response","73","941583","0.0-13.0-2.7","7361","","<p>Which tone was played second after the cadence?</p>","10","","2","new_stimuli/mp3/melody_^2_v7-_.mp3"
"","null","audio-keyboard-response","74","950751","0.0-13.0-0.8","7361","","new_stimuli/mp3/melody_^5_^1+_.mp3","","null","",""
"","12308.840000070632","html-button-response","75","963061","0.0-13.0-1.8","7361","","<p>Which tone was played first after the cadence?</p>","7","","1","new_stimuli/mp3/melody_^5_^1+_.mp3"
"","6201.994999777526","html-button-response","76","969265","0.0-13.0-2.8","7361","","<p>Which tone was played second after the cadence?</p>","3","","2","new_stimuli/mp3/melody_^5_^1+_.mp3"
"","null","audio-keyboard-response","77","978720","0.0-13.0-0.9","7361","","new_stimuli/mp3/melody_^3_v4+_buffer.mp3","","null","",""
"","8712.539999978617","html-button-response","78","987434","0.0-13.0-1.9","7361","","<p>Which tone was played first after the cadence?</p>","4","","1","new_stimuli/mp3/melody_^3_v4+_buffer.mp3"
"","5472.045000176877","html-button-response","79","992908","0.0-13.0-2.9","7361","","<p>Which tone was played second after the cadence?</p>","6","","2","new_stimuli/mp3/melody_^3_v4+_buffer.mp3"
"[{""page_index"":0,""viewing_time"":2977.3049999494106},{""page_index"":1,""viewing_time"":2122.6650001481175},{""page_index"":0,""viewing_time"":293737.014999846},{""page_index"":1,""viewing_time"":974.9100001063198},{""page_index"":2,""viewing_time"":6577.0250000059605}]","306389.2000000924","instructions","80","1584097","0.0-14.0","7361","","","","","",""
"","null","audio-keyboard-response","81","1594153","0.0-15.0-0.0","7361","","new_stimuli/mp3/melody_^1_v6_v5+_.mp3","","null","",""
"","6830.134999938309","html-button-response","82","1600984","0.0-15.0-1.0","7361","","<p>Which tone was played first after the cadence?</p>","12","","1","new_stimuli/mp3/melody_^1_v6_v5+_.mp3"
"","6599.174999864772","html-button-response","83","1607585","0.0-15.0-2.0","7361","","<p>Which tone was played second after the cadence?</p>","9","","2","new_stimuli/mp3/melody_^1_v6_v5+_.mp3"
"","4475.549999857321","html-button-response","84","1612062","0.0-15.0-3.0","7361","","<p>Which tone was played third after the cadence?</p>","8","","3","new_stimuli/mp3/melody_^1_v6_v5+_.mp3"
"","null","audio-keyboard-response","85","1621622","0.0-15.0-0.1","7361","","new_stimuli/mp3/melody_v3_v2_v1_.mp3","","null","",""
"","1501.5849999617785","html-button-response","86","1623125","0.0-15.0-1.1","7361","","<p>Which tone was played first after the cadence?</p>","4","","1","new_stimuli/mp3/melody_v3_v2_v1_.mp3"
"","1631.495000096038","html-button-response","87","1624758","0.0-15.0-2.1","7361","","<p>Which tone was played second after the cadence?</p>","2","","2","new_stimuli/mp3/melody_v3_v2_v1_.mp3"
"","1504.2099999263883","html-button-response","88","1626263","0.0-15.0-3.1","7361","","<p>Which tone was played third after the cadence?</p>","0","","3","new_stimuli/mp3/melody_v3_v2_v1_.mp3"
"","null","audio-keyboard-response","89","1635903","0.0-15.0-0.2","7361","","new_stimuli/mp3/melody_6_^1_v5_.mp3","","null","",""
"","11478.645000141114","html-button-response","90","1647383","0.0-15.0-1.2","7361","","<p>Which tone was played first after the cadence?</p>","9","","1","new_stimuli/mp3/melody_6_^1_v5_.mp3"
"","774.7249999083579","html-button-response","91","1648159","0.0-15.0-2.2","7361","","<p>Which tone was played second after the cadence?</p>","12","","2","new_stimuli/mp3/melody_6_^1_v5_.mp3"
"","3168.294999981299","html-button-response","92","1651328","0.0-15.0-3.2","7361","","<p>Which tone was played third after the cadence?</p>","7","","3","new_stimuli/mp3/melody_6_^1_v5_.mp3"
"","null","audio-keyboard-response","93","1660835","0.0-15.0-0.3","7361","","new_stimuli/mp3/melody_1_v1+_^2_.mp3","","null","",""
"","666.8549999594688","html-button-response","94","1661503","0.0-15.0-1.3","7361","","<p>Which tone was played first after the cadence?</p>","0","","1","new_stimuli/mp3/melody_1_v1+_^2_.mp3"
"","1685.9649999532849","html-button-response","95","1663191","0.0-15.0-2.3","7361","","<p>Which tone was played second after the cadence?</p>","1","","2","new_stimuli/mp3/melody_1_v1+_^2_.mp3"
"","1211.6499999538064","html-button-response","96","1664403","0.0-15.0-3.3","7361","","<p>Which tone was played third after the cadence?</p>","2","","3","new_stimuli/mp3/melody_1_v1+_^2_.mp3"
"","null","audio-keyboard-response","97","1673961","0.0-15.0-0.4","7361","","new_stimuli/mp3/melody_v1_v7-_^7_.mp3","","null","",""
"","6331.579999998212","html-button-response","98","1680294","0.0-15.0-1.4","7361","","<p>Which tone was played first after the cadence?</p>","12","","1","new_stimuli/mp3/melody_v1_v7-_^7_.mp3"
"","5489.204999990761","html-button-response","99","1685784","0.0-15.0-2.4","7361","","<p>Which tone was played second after the cadence?</p>","10","","2","new_stimuli/mp3/melody_v1_v7-_^7_.mp3"
"","3136.6199997719377","html-button-response","100","1688922","0.0-15.0-3.4","7361","","<p>Which tone was played third after the cadence?</p>","11","","3","new_stimuli/mp3/melody_v1_v7-_^7_.mp3"
"","null","audio-keyboard-response","101","1698876","0.0-15.0-0.5","7361","","new_stimuli/mp3/melody_v5_v4_v3_buffer.mp3","","null","",""
"","4431.44499999471","html-button-response","102","1703309","0.0-15.0-1.5","7361","","<p>Which tone was played first after the cadence?</p>","7","","1","new_stimuli/mp3/melody_v5_v4_v3_buffer.mp3"
"","1282.6299997977912","html-button-response","103","1704592","0.0-15.0-2.5","7361","","<p>Which tone was played second after the cadence?</p>","5","","2","new_stimuli/mp3/melody_v5_v4_v3_buffer.mp3"
"","1376.7049999441952","html-button-response","104","1705970","0.0-15.0-3.5","7361","","<p>Which tone was played third after the cadence?</p>","4","","3","new_stimuli/mp3/melody_v5_v4_v3_buffer.mp3"
"","null","audio-keyboard-response","105","1715949","0.0-15.0-0.6","7361","","new_stimuli/mp3/melody_v2_v5_^3_buffer.mp3","","null","",""
"","1449.8349998611957","html-button-response","106","1717400","0.0-15.0-1.6","7361","","<p>Which tone was played first after the cadence?</p>","2","","1","new_stimuli/mp3/melody_v2_v5_^3_buffer.mp3"
"","4998.579999897629","html-button-response","107","1722399","0.0-15.0-2.6","7361","","<p>Which tone was played second after the cadence?</p>","7","","2","new_stimuli/mp3/melody_v2_v5_^3_buffer.mp3"
"","2225.2250001765788","html-button-response","108","1724626","0.0-15.0-3.6","7361","","<p>Which tone was played third after the cadence?</p>","4","","3","new_stimuli/mp3/melody_v2_v5_^3_buffer.mp3"
"","null","audio-keyboard-response","109","1734211","0.0-15.0-0.7","7361","","new_stimuli/mp3/melody_v1_v7-_7-_buffer.mp3","","null","",""
"","3472.6700000464916","html-button-response","110","1737685","0.0-15.0-1.7","7361","","<p>Which tone was played first after the cadence?</p>","9","","1","new_stimuli/mp3/melody_v1_v7-_7-_buffer.mp3"
"","23952.200000174344","html-button-response","111","1761639","0.0-15.0-2.7","7361","","<p>Which tone was played second after the cadence?</p>","8","","2","new_stimuli/mp3/melody_v1_v7-_7-_buffer.mp3"
"","901.7250000033528","html-button-response","112","1762541","0.0-15.0-3.7","7361","","<p>Which tone was played third after the cadence?</p>","8","","3","new_stimuli/mp3/melody_v1_v7-_7-_buffer.mp3"
"","null","audio-keyboard-response","113","1772234","0.0-15.0-0.8","7361","","new_stimuli/mp3/melody_v4_v3_v2_buffer.mp3","","null","",""
"","1255.915000103414","html-button-response","114","1773491","0.0-15.0-1.8","7361","","<p>Which tone was played first after the cadence?</p>","5","","1","new_stimuli/mp3/melody_v4_v3_v2_buffer.mp3"
"","1512.3550000134856","html-button-response","115","1775005","0.0-15.0-2.8","7361","","<p>Which tone was played second after the cadence?</p>","4","","2","new_stimuli/mp3/melody_v4_v3_v2_buffer.mp3"
"","1076.585000148043","html-button-response","116","1776083","0.0-15.0-3.8","7361","","<p>Which tone was played third after the cadence?</p>","2","","3","new_stimuli/mp3/melody_v4_v3_v2_buffer.mp3"
"[{""page_index"":0,""viewing_time"":34983.02500019781},{""page_index"":1,""viewing_time"":34080.43499989435},{""page_index"":2,""viewing_time"":111077.82000000589}]","180141.5500000585","instructions","117","1956226","0.0-16.0","7361","","","","","",""
"","null","audio-keyboard-response","118","1966973","0.0-17.0-0.0","7361","","new_stimuli/mp3/melody_v2_2_^3_^4_v2_.mp3","","null","",""
"","6187.959999777377","html-button-response","119","1973162","0.0-17.0-1.0","7361","","<p>Which tone was played first after the cadence?</p>","2","","1","new_stimuli/mp3/melody_v2_2_^3_^4_v2_.mp3"
"","1203.0750000849366","html-button-response","120","1974366","0.0-17.0-2.0","7361","","<p>Which tone was played second after the cadence?</p>","2","","2","new_stimuli/mp3/melody_v2_2_^3_^4_v2_.mp3"
"","2598.2399999629706","html-button-response","121","1976966","0.0-17.0-3.0","7361","","<p>Which tone was played third after the cadence?</p>","3","","3","new_stimuli/mp3/melody_v2_2_^3_^4_v2_.mp3"
"","775.9000000078231","html-button-response","122","1977743","0.0-17.0-4.0","7361","","<p>Which tone was played fourth after the cadence?</p>","5","","4","new_stimuli/mp3/melody_v2_2_^3_^4_v2_.mp3"
"","8024.4950000196695","html-button-response","123","1985768","0.0-17.0-5.0","7361","","<p>Which tone was played fifth after the cadence?</p>","2","","5","new_stimuli/mp3/melody_v2_2_^3_^4_v2_.mp3"
"","null","audio-keyboard-response","124","1996347","0.0-17.0-0.1","7361","","new_stimuli/mp3/melody_v5_v4_v3_v2_v1_.mp3","","null","",""
"","1812.3800000175834","html-button-response","125","1998160","0.0-17.0-1.1","7361","","<p>Which tone was played first after the cadence?</p>","7","","1","new_stimuli/mp3/melody_v5_v4_v3_v2_v1_.mp3"
"","950.0850001350045","html-button-response","126","1999111","0.0-17.0-2.1","7361","","<p>Which tone was played second after the cadence?</p>","5","","2","new_stimuli/mp3/melody_v5_v4_v3_v2_v1_.mp3"
"","1124.4500000029802","html-button-response","127","2000237","0.0-17.0-3.1","7361","","<p>Which tone was played third after the cadence?</p>","4","","3","new_stimuli/mp3/melody_v5_v4_v3_v2_v1_.mp3"
"","1345.644999993965","html-button-response","128","2001583","0.0-17.0-4.1","7361","","<p>Which tone was played fourth after the cadence?</p>","2","","4","new_stimuli/mp3/melody_v5_v4_v3_v2_v1_.mp3"
"","2010.9649999067187","html-button-response","129","2003595","0.0-17.0-5.1","7361","","<p>Which tone was played fifth after the cadence?</p>","0","","5","new_stimuli/mp3/melody_v5_v4_v3_v2_v1_.mp3"
"","null","audio-keyboard-response","130","2014302","0.0-17.0-0.2","7361","","new_stimuli/mp3/melody_^6_v5_v4_v3_v2_buffer.mp3","","null","",""
"","1283.0149999354035","html-button-response","131","2015586","0.0-17.0-1.2","7361","","<p>Which tone was played first after the cadence?</p>","9","","1","new_stimuli/mp3/melody_^6_v5_v4_v3_v2_buffer.mp3"
"","916.850000154227","html-button-response","132","2016504","0.0-17.0-2.2","7361","","<p>Which tone was played second after the cadence?</p>","7","","2","new_stimuli/mp3/melody_^6_v5_v4_v3_v2_buffer.mp3"
"","2296.610000077635","html-button-response","133","2018802","0.0-17.0-3.2","7361","","<p>Which tone was played third after the cadence?</p>","5","","3","new_stimuli/mp3/melody_^6_v5_v4_v3_v2_buffer.mp3"
"","911.104999948293","html-button-response","134","2019714","0.0-17.0-4.2","7361","","<p>Which tone was played fourth after the cadence?</p>","4","","4","new_stimuli/mp3/melody_^6_v5_v4_v3_v2_buffer.mp3"
"","1353.7500000093132","html-button-response","135","2021069","0.0-17.0-5.2","7361","","<p>Which tone was played fifth after the cadence?</p>","2","","5","new_stimuli/mp3/melody_^6_v5_v4_v3_v2_buffer.mp3"
"","null","audio-keyboard-response","136","2031647","0.0-17.0-0.3","7361","","new_stimuli/mp3/melody_v5_v4_v3_v2_v1 _buffer.mp3","","null","",""
"","1255.3999999072403","html-button-response","137","2032904","0.0-17.0-1.3","7361","","<p>Which tone was played first after the cadence?</p>","7","","1","new_stimuli/mp3/melody_v5_v4_v3_v2_v1 _buffer.mp3"
"","1274.9600000679493","html-button-response","138","2034180","0.0-17.0-2.3","7361","","<p>Which tone was played second after the cadence?</p>","5","","2","new_stimuli/mp3/melody_v5_v4_v3_v2_v1 _buffer.mp3"
"","1385.790000203997","html-button-response","139","2035567","0.0-17.0-3.3","7361","","<p>Which tone was played third after the cadence?</p>","4","","3","new_stimuli/mp3/melody_v5_v4_v3_v2_v1 _buffer.mp3"
"","1266.1150000058115","html-button-response","140","2036834","0.0-17.0-4.3","7361","","<p>Which tone was played fourth after the cadence?</p>","2","","4","new_stimuli/mp3/melody_v5_v4_v3_v2_v1 _buffer.mp3"
"","1584.7100000828505","html-button-response","141","2038420","0.0-17.0-5.3","7361","","<p>Which tone was played fifth after the cadence?</p>","0","","5","new_stimuli/mp3/melody_v5_v4_v3_v2_v1 _buffer.mp3"
"","null","audio-keyboard-response","142","2049364","0.0-17.0-0.4","7361","","new_stimuli/mp3/melody_v5-_v3_3_^4+_v3_.mp3","","null","",""
"","2973.215000005439","html-button-response","143","2052339","0.0-17.0-1.4","7361","","<p>Which tone was played first after the cadence?</p>","6","","1","new_stimuli/mp3/melody_v5-_v3_3_^4+_v3_.mp3"
"","8150.214999914169","html-button-response","144","2060490","0.0-17.0-2.4","7361","","<p>Which tone was played second after the cadence?</p>","4","","2","new_stimuli/mp3/melody_v5-_v3_3_^4+_v3_.mp3"
"","878.7000000011176","html-button-response","145","2061370","0.0-17.0-3.4","7361","","<p>Which tone was played third after the cadence?</p>","4","","3","new_stimuli/mp3/melody_v5-_v3_3_^4+_v3_.mp3"
"","1211.0599998850375","html-button-response","146","2062582","0.0-17.0-4.4","7361","","<p>Which tone was played fourth after the cadence?</p>","6","","4","new_stimuli/mp3/melody_v5-_v3_3_^4+_v3_.mp3"
"","5424.995000008494","html-button-response","147","2068008","0.0-17.0-5.4","7361","","<p>Which tone was played fifth after the cadence?</p>","4","","5","new_stimuli/mp3/melody_v5-_v3_3_^4+_v3_.mp3"
"","null","audio-keyboard-response","148","2078639","0.0-17.0-0.5","7361","","new_stimuli/mp3/melody_v5_^6+_^7_^1_5_.mp3","","null","",""
"","934.685000218451","html-button-response","149","2079575","0.0-17.0-1.5","7361","","<p>Which tone was played first after the cadence?</p>","7","","1","new_stimuli/mp3/melody_v5_^6+_^7_^1_5_.mp3"
"","1504.3099999893457","html-button-response","150","2081080","0.0-17.0-2.5","7361","","<p>Which tone was played second after the cadence?</p>","9","","2","new_stimuli/mp3/melody_v5_^6+_^7_^1_5_.mp3"
"","1266.3900000043213","html-button-response","151","2082348","0.0-17.0-3.5","7361","","<p>Which tone was played third after the cadence?</p>","11","","3","new_stimuli/mp3/melody_v5_^6+_^7_^1_5_.mp3"
"","1226.8449999392033","html-button-response","152","2083576","0.0-17.0-4.5","7361","","<p>Which tone was played fourth after the cadence?</p>","12","","4","new_stimuli/mp3/melody_v5_^6+_^7_^1_5_.mp3"
"","1369.6349998936057","html-button-response","153","2084947","0.0-17.0-5.5","7361","","<p>Which tone was played fifth after the cadence?</p>","7","","5","new_stimuli/mp3/melody_v5_^6+_^7_^1_5_.mp3"
"","null","audio-keyboard-response","154","2095578","0.0-17.0-0.6","7361","","new_stimuli/mp3/melody_^6_v4_v3_^4_^5_.mp3","","null","",""
"","10403.745000017807","html-button-response","155","2105983","0.0-17.0-1.6","7361","","<p>Which tone was played first after the cadence?</p>","9","","1","new_stimuli/mp3/melody_^6_v4_v3_^4_^5_.mp3"
"","10448.8250000868","html-button-response","156","2116433","0.0-17.0-2.6","7361","","<p>Which tone was played second after the cadence?</p>","5","","2","new_stimuli/mp3/melody_^6_v4_v3_^4_^5_.mp3"
"","10964.374999981374","html-button-response","157","2127399","0.0-17.0-3.6","7361","","<p>Which tone was played third after the cadence?</p>","6","","3","new_stimuli/mp3/melody_^6_v4_v3_^4_^5_.mp3"
"","1155.6250001303852","html-button-response","158","2128556","0.0-17.0-4.6","7361","","<p>Which tone was played fourth after the cadence?</p>","5","","4","new_stimuli/mp3/melody_^6_v4_v3_^4_^5_.mp3"
"","1598.7050000112504","html-button-response","159","2130156","0.0-17.0-5.6","7361","","<p>Which tone was played fifth after the cadence?</p>","9","","5","new_stimuli/mp3/melody_^6_v4_v3_^4_^5_.mp3"
"","null","audio-keyboard-response","160","2141106","0.0-17.0-0.7","7361","","new_stimuli/mp3/melody_^5_^6_v5_v4_v3_buffer.mp3","","null","",""
"","3366.474999813363","html-button-response","161","2144474","0.0-17.0-1.7","7361","","<p>Which tone was played first after the cadence?</p>","7","","1","new_stimuli/mp3/melody_^5_^6_v5_v4_v3_buffer.mp3"
"","1218.5549999121577","html-button-response","162","2145694","0.0-17.0-2.7","7361","","<p>Which tone was played second after the cadence?</p>","9","","2","new_stimuli/mp3/melody_^5_^6_v5_v4_v3_buffer.mp3"
"","703.3500000834465","html-button-response","163","2146399","0.0-17.0-3.7","7361","","<p>Which tone was played third after the cadence?</p>","7","","3","new_stimuli/mp3/melody_^5_^6_v5_v4_v3_buffer.mp3"
"","822.6649998687208","html-button-response","164","2147222","0.0-17.0-4.7","7361","","<p>Which tone was played fourth after the cadence?</p>","5","","4","new_stimuli/mp3/melody_^5_^6_v5_v4_v3_buffer.mp3"
"","2201.5549999196082","html-button-response","165","2149425","0.0-17.0-5.7","7361","","<p>Which tone was played fifth after the cadence?</p>","4","","5","new_stimuli/mp3/melody_^5_^6_v5_v4_v3_buffer.mp3"
"[{""page_index"":0,""viewing_time"":82459.63000017218},{""page_index"":1,""viewing_time"":3177.1799998823553},{""page_index"":2,""viewing_time"":2433.034999994561}]","88070.1400001999","instructions","166","2237496","0.0-18.0","7361","","","","","",""
"","null","audio-keyboard-response","167","2249358","0.0-19.0-0.0","7361","","new_stimuli/mp3/melody_v1_^2_v1_v7_^1_^3_v2_.mp3","","null","",""
"","1251.010000007227","html-button-response","168","2250610","0.0-19.0-1.0","7361","","<p>Which tone was played first after the cadence?</p>","0","","1","new_stimuli/mp3/melody_v1_^2_v1_v7_^1_^3_v2_.mp3"
"","782.9350000247359","html-button-response","169","2251395","0.0-19.0-2.0","7361","","<p>Which tone was played second after the cadence?</p>","2","","2","new_stimuli/mp3/melody_v1_^2_v1_v7_^1_^3_v2_.mp3"
"","1084.389999974519","html-button-response","170","2252481","0.0-19.0-3.0","7361","","<p>Which tone was played third after the cadence?</p>","0","","3","new_stimuli/mp3/melody_v1_^2_v1_v7_^1_^3_v2_.mp3"
"","1060.6250001583248","html-button-response","171","2253542","0.0-19.0-4.0","7361","","<p>Which tone was played fourth after the cadence?</p>","11","","4","new_stimuli/mp3/melody_v1_^2_v1_v7_^1_^3_v2_.mp3"
"","3080.5749997962266","html-button-response","172","2256624","0.0-19.0-5.0","7361","","<p>Which tone was played fifth after the cadence?</p>","12","","5","new_stimuli/mp3/melody_v1_^2_v1_v7_^1_^3_v2_.mp3"
"","5182.579999789596","html-button-response","173","2261808","0.0-19.0-6.0","7361","","<p>Which tone was played sixth after the cadence?</p>","4","","6","new_stimuli/mp3/melody_v1_^2_v1_v7_^1_^3_v2_.mp3"
"","2328.5749999340624","html-button-response","174","2264138","0.0-19.0-7.0","7361","","<p>Which tone was played seventh after the cadence?</p>","2","","7","new_stimuli/mp3/melody_v1_^2_v1_v7_^1_^3_v2_.mp3"
"","null","audio-keyboard-response","175","2276102","0.0-19.0-0.1","7361","","new_stimuli/mp3/melody_1_^3_v1_^5_v3_v2_^3_.mp3","","null","",""
"","1777.3299999535084","html-button-response","176","2277881","0.0-19.0-1.1","7361","","<p>Which tone was played first after the cadence?</p>","0","","1","new_stimuli/mp3/melody_1_^3_v1_^5_v3_v2_^3_.mp3"
"","2289.270000066608","html-button-response","177","2280171","0.0-19.0-2.1","7361","","<p>Which tone was played second after the cadence?</p>","4","","2","new_stimuli/mp3/melody_1_^3_v1_^5_v3_v2_^3_.mp3"
"","1916.4299999829382","html-button-response","178","2282089","0.0-19.0-3.1","7361","","<p>Which tone was played third after the cadence?</p>","7","","3","new_stimuli/mp3/melody_1_^3_v1_^5_v3_v2_^3_.mp3"
"","2082.9400001093745","html-button-response","179","2284173","0.0-19.0-4.1","7361","","<p>Which tone was played fourth after the cadence?</p>","4","","4","new_stimuli/mp3/melody_1_^3_v1_^5_v3_v2_^3_.mp3"
"","3620.379999978468","html-button-response","180","2287794","0.0-19.0-5.1","7361","","<p>Which tone was played fifth after the cadence?</p>","2","","5","new_stimuli/mp3/melody_1_^3_v1_^5_v3_v2_^3_.mp3"
"","3009.48500004597","html-button-response","181","2290805","0.0-19.0-6.1","7361","","<p>Which tone was played sixth after the cadence?</p>","4","","6","new_stimuli/mp3/melody_1_^3_v1_^5_v3_v2_^3_.mp3"
"","5900.330000091344","html-button-response","182","2296706","0.0-19.0-7.1","7361","","<p>Which tone was played seventh after the cadence?</p>","2","","7","new_stimuli/mp3/melody_1_^3_v1_^5_v3_v2_^3_.mp3"
"","null","audio-keyboard-response","183","2308407","0.0-19.0-0.2","7361","","new_stimuli/mp3/melody_^4_^5_^6_v5_v4_v3_v2_.mp3","","null","",""
"","1786.2249999307096","html-button-response","184","2310195","0.0-19.0-1.2","7361","","<p>Which tone was played first after the cadence?</p>","5","","1","new_stimuli/mp3/melody_^4_^5_^6_v5_v4_v3_v2_.mp3"
"","879.3449997901917","html-button-response","185","2311075","0.0-19.0-2.2","7361","","<p>Which tone was played second after the cadence?</p>","7","","2","new_stimuli/mp3/melody_^4_^5_^6_v5_v4_v3_v2_.mp3"
"","783.1149999983609","html-button-response","186","2311860","0.0-19.0-3.2","7361","","<p>Which tone was played third after the cadence?</p>","9","","3","new_stimuli/mp3/melody_^4_^5_^6_v5_v4_v3_v2_.mp3"
"","750.8099998813123","html-button-response","187","2312612","0.0-19.0-4.2","7361","","<p>Which tone was played fourth after the cadence?</p>","7","","4","new_stimuli/mp3/melody_^4_^5_^6_v5_v4_v3_v2_.mp3"
"","839.2450001556426","html-button-response","188","2313452","0.0-19.0-5.2","7361","","<p>Which tone was played fifth after the cadence?</p>","5","","5","new_stimuli/mp3/melody_^4_^5_^6_v5_v4_v3_v2_.mp3"
"","1100.6050000432879","html-button-response","189","2314554","0.0-19.0-6.2","7361","","<p>Which tone was played sixth after the cadence?</p>","4","","6","new_stimuli/mp3/melody_^4_^5_^6_v5_v4_v3_v2_.mp3"
"","1163.4599999524653","html-button-response","190","2315718","0.0-19.0-7.2","7361","","<p>Which tone was played seventh after the cadence?</p>","2","","7","new_stimuli/mp3/melody_^4_^5_^6_v5_v4_v3_v2_.mp3"
"","null","audio-keyboard-response","191","2327396","0.0-19.0-0.3","7361","","new_stimuli/mp3/melody_^4_v6-_v5-_^6-_^4_v2-_2-_.mp3","","null","",""
"","10106.11500008963","html-button-response","192","2337503","0.0-19.0-1.3","7361","","<p>Which tone was played first after the cadence?</p>","4","","1","new_stimuli/mp3/melody_^4_v6-_v5-_^6-_^4_v2-_2-_.mp3"
"","9705.4749999661","html-button-response","193","2347210","0.0-19.0-2.3","7361","","<p>Which tone was played second after the cadence?</p>","9","","2","new_stimuli/mp3/melody_^4_v6-_v5-_^6-_^4_v2-_2-_.mp3"
"","9941.675000125542","html-button-response","194","2357154","0.0-19.0-3.3","7361","","<p>Which tone was played third after the cadence?</p>","5","","3","new_stimuli/mp3/melody_^4_v6-_v5-_^6-_^4_v2-_2-_.mp3"
"","11145.375000080094","html-button-response","195","2368300","0.0-19.0-4.3","7361","","<p>Which tone was played fourth after the cadence?</p>","5","","4","new_stimuli/mp3/melody_^4_v6-_v5-_^6-_^4_v2-_2-_.mp3"
"","2588.895000051707","html-button-response","196","2370890","0.0-19.0-5.3","7361","","<p>Which tone was played fifth after the cadence?</p>","4","","5","new_stimuli/mp3/melody_^4_v6-_v5-_^6-_^4_v2-_2-_.mp3"
"","2637.1450000442564","html-button-response","197","2373529","0.0-19.0-6.3","7361","","<p>Which tone was played sixth after the cadence?</p>","9","","6","new_stimuli/mp3/melody_^4_v6-_v5-_^6-_^4_v2-_2-_.mp3"
"","4712.524999864399","html-button-response","198","2378243","0.0-19.0-7.3","7361","","<p>Which tone was played seventh after the cadence?</p>","3","","7","new_stimuli/mp3/melody_^4_v6-_v5-_^6-_^4_v2-_2-_.mp3"
"","null","audio-keyboard-response","199","2390045","0.0-19.0-0.4","7361","","new_stimuli/mp3/melody_^6_v5+_v4_^5+_v3_v1_v7-_.mp3","","null","",""
"","1336.5950000006706","html-button-response","200","2391383","0.0-19.0-1.4","7361","","<p>Which tone was played first after the cadence?</p>","8","","1","new_stimuli/mp3/melody_^6_v5+_v4_^5+_v3_v1_v7-_.mp3"
"","1369.6049998980016","html-button-response","201","2392753","0.0-19.0-2.4","7361","","<p>Which tone was played second after the cadence?</p>","7","","2","new_stimuli/mp3/melody_^6_v5+_v4_^5+_v3_v1_v7-_.mp3"
"","8010.124999796972","html-button-response","202","2400764","0.0-19.0-3.4","7361","","<p>Which tone was played third after the cadence?</p>","5","","3","new_stimuli/mp3/melody_^6_v5+_v4_^5+_v3_v1_v7-_.mp3"
"","1195.680000120774","html-button-response","203","2401961","0.0-19.0-4.4","7361","","<p>Which tone was played fourth after the cadence?</p>","7","","4","new_stimuli/mp3/melody_^6_v5+_v4_^5+_v3_v1_v7-_.mp3"
"","1321.5799999888986","html-button-response","204","2403284","0.0-19.0-5.4","7361","","<p>Which tone was played fifth after the cadence?</p>","5","","5","new_stimuli/mp3/melody_^6_v5+_v4_^5+_v3_v1_v7-_.mp3"
"","2510.920000029728","html-button-response","205","2405796","0.0-19.0-6.4","7361","","<p>Which tone was played sixth after the cadence?</p>","4","","6","new_stimuli/mp3/melody_^6_v5+_v4_^5+_v3_v1_v7-_.mp3"
"","2549.9600002076477","html-button-response","206","2408347","0.0-19.0-7.4","7361","","<p>Which tone was played seventh after the cadence?</p>","2","","7","new_stimuli/mp3/melody_^6_v5+_v4_^5+_v3_v1_v7-_.mp3"
"","null","audio-keyboard-response","207","2419923","0.0-19.0-0.5","7361","","new_stimuli/mp3/melody_^5_^6_v5_v4_v3_v2_v1_buffer.mp3","","null","",""
"","1382.4599999934435","html-button-response","208","2421307","0.0-19.0-1.5","7361","","<p>Which tone was played first after the cadence?</p>","7","","1","new_stimuli/mp3/melody_^5_^6_v5_v4_v3_v2_v1_buffer.mp3"
"","807.6599999330938","html-button-response","209","2422116","0.0-19.0-2.5","7361","","<p>Which tone was played second after the cadence?</p>","9","","2","new_stimuli/mp3/melody_^5_^6_v5_v4_v3_v2_v1_buffer.mp3"
"","1021.0149998310953","html-button-response","210","2423138","0.0-19.0-3.5","7361","","<p>Which tone was played third after the cadence?</p>","7","","3","new_stimuli/mp3/melody_^5_^6_v5_v4_v3_v2_v1_buffer.mp3"
"","870.4450000077486","html-button-response","211","2424010","0.0-19.0-4.5","7361","","<p>Which tone was played fourth after the cadence?</p>","5","","4","new_stimuli/mp3/melody_^5_^6_v5_v4_v3_v2_v1_buffer.mp3"
"","1337.4900000635535","html-button-response","212","2425349","0.0-19.0-5.5","7361","","<p>Which tone was played fifth after the cadence?</p>","4","","5","new_stimuli/mp3/melody_^5_^6_v5_v4_v3_v2_v1_buffer.mp3"
"","1029.1549998801202","html-button-response","213","2426379","0.0-19.0-6.5","7361","","<p>Which tone was played sixth after the cadence?</p>","2","","6","new_stimuli/mp3/melody_^5_^6_v5_v4_v3_v2_v1_buffer.mp3"
"","1179.89999987185","html-button-response","214","2427560","0.0-19.0-7.5","7361","","<p>Which tone was played seventh after the cadence?</p>","0","","7","new_stimuli/mp3/melody_^5_^6_v5_v4_v3_v2_v1_buffer.mp3"
"","null","audio-keyboard-response","215","2439260","0.0-19.0-0.6","7361","","new_stimuli/mp3/melody_^1_v7_v6_v5_v4_v3_v2_buffer.mp3","","null","",""
"","824.06000001356","html-button-response","216","2440086","0.0-19.0-1.6","7361","","<p>Which tone was played first after the cadence?</p>","12","","1","new_stimuli/mp3/melody_^1_v7_v6_v5_v4_v3_v2_buffer.mp3"
"","1385.6550001073629","html-button-response","217","2441473","0.0-19.0-2.6","7361","","<p>Which tone was played second after the cadence?</p>","11","","2","new_stimuli/mp3/melody_^1_v7_v6_v5_v4_v3_v2_buffer.mp3"
"","1027.324999915436","html-button-response","218","2442501","0.0-19.0-3.6","7361","","<p>Which tone was played third after the cadence?</p>","9","","3","new_stimuli/mp3/melody_^1_v7_v6_v5_v4_v3_v2_buffer.mp3"
"","989.7749999072403","html-button-response","219","2443492","0.0-19.0-4.6","7361","","<p>Which tone was played fourth after the cadence?</p>","7","","4","new_stimuli/mp3/melody_^1_v7_v6_v5_v4_v3_v2_buffer.mp3"
"","1076.1800000909716","html-button-response","220","2444569","0.0-19.0-5.6","7361","","<p>Which tone was played fifth after the cadence?</p>","5","","5","new_stimuli/mp3/melody_^1_v7_v6_v5_v4_v3_v2_buffer.mp3"
"","1084.654999896884","html-button-response","221","2445655","0.0-19.0-6.6","7361","","<p>Which tone was played sixth after the cadence?</p>","4","","6","new_stimuli/mp3/melody_^1_v7_v6_v5_v4_v3_v2_buffer.mp3"
"","1131.3849999569356","html-button-response","222","2446787","0.0-19.0-7.6","7361","","<p>Which tone was played seventh after the cadence?</p>","2","","7","new_stimuli/mp3/melody_^1_v7_v6_v5_v4_v3_v2_buffer.mp3"
"[{""page_index"":0,""viewing_time"":6172.495000064373},{""page_index"":1,""viewing_time"":1688.4900000877678},{""page_index"":2,""viewing_time"":2281.8350000306964}]","10143.050000071526","instructions","223","2456931","0.0-20.0","7361","","","","","",""
"","null","audio-keyboard-response","224","2469498","0.0-21.0-0.0","7361","","new_stimuli/mp3/melody_^3_^4_^5 _^6_v5_v4_v3_v2_v1_.mp3","","null","",""
"","3543.250000104308","html-button-response","225","2473043","0.0-21.0-1.0","7361","","<p>Which tone was played first after the cadence?</p>","4","","1","new_stimuli/mp3/melody_^3_^4_^5 _^6_v5_v4_v3_v2_v1_.mp3"
"","546.1649999488145","html-button-response","226","2473590","0.0-21.0-2.0","7361","","<p>Which tone was played second after the cadence?</p>","5","","2","new_stimuli/mp3/melody_^3_^4_^5 _^6_v5_v4_v3_v2_v1_.mp3"
"","656.5199999604374","html-button-response","227","2474248","0.0-21.0-3.0","7361","","<p>Which tone was played third after the cadence?</p>","7","","3","new_stimuli/mp3/melody_^3_^4_^5 _^6_v5_v4_v3_v2_v1_.mp3"
"","838.9749999623746","html-button-response","228","2475088","0.0-21.0-4.0","7361","","<p>Which tone was played fourth after the cadence?</p>","9","","4","new_stimuli/mp3/melody_^3_^4_^5 _^6_v5_v4_v3_v2_v1_.mp3"
"","639.8100000806153","html-button-response","229","2475729","0.0-21.0-5.0","7361","","<p>Which tone was played fifth after the cadence?</p>","7","","5","new_stimuli/mp3/melody_^3_^4_^5 _^6_v5_v4_v3_v2_v1_.mp3"
"","719.5549998432398","html-button-response","230","2476449","0.0-21.0-6.0","7361","","<p>Which tone was played sixth after the cadence?</p>","5","","6","new_stimuli/mp3/melody_^3_^4_^5 _^6_v5_v4_v3_v2_v1_.mp3"
"","816.154999891296","html-button-response","231","2477266","0.0-21.0-7.0","7361","","<p>Which tone was played seventh after the cadence?</p>","4","","7","new_stimuli/mp3/melody_^3_^4_^5 _^6_v5_v4_v3_v2_v1_.mp3"
"","1678.0499999877065","html-button-response","232","2478945","0.0-21.0-8.0","7361","","<p>Which tone was played eight after the cadence?</p>","2","","8","new_stimuli/mp3/melody_^3_^4_^5 _^6_v5_v4_v3_v2_v1_.mp3"
"","1251.5750001184642","html-button-response","233","2480198","0.0-21.0-9.0","7361","","<p>Which tone was played nineth after the cadence?</p>","0","","9","new_stimuli/mp3/melody_^3_^4_^5 _^6_v5_v4_v3_v2_v1_.mp3"
"","null","audio-keyboard-response","234","2492840","0.0-21.0-0.1","7361","","new_stimuli/mp3/melody_v7_v6_v5_^6_v5_v4_^5_^6_v5_.mp3","","null","",""
"","742.3249999992549","html-button-response","235","2493584","0.0-21.0-1.1","7361","","<p>Which tone was played first after the cadence?</p>","11","","1","new_stimuli/mp3/melody_v7_v6_v5_^6_v5_v4_^5_^6_v5_.mp3"
"","2708.210000069812","html-button-response","236","2496293","0.0-21.0-2.1","7361","","<p>Which tone was played second after the cadence?</p>","9","","2","new_stimuli/mp3/melody_v7_v6_v5_^6_v5_v4_^5_^6_v5_.mp3"
"","806.9949999917299","html-button-response","237","2497102","0.0-21.0-3.1","7361","","<p>Which tone was played third after the cadence?</p>","7","","3","new_stimuli/mp3/melody_v7_v6_v5_^6_v5_v4_^5_^6_v5_.mp3"
"","1131.664999993518","html-button-response","238","2498235","0.0-21.0-4.1","7361","","<p>Which tone was played fourth after the cadence?</p>","9","","4","new_stimuli/mp3/melody_v7_v6_v5_^6_v5_v4_^5_^6_v5_.mp3"
"","1163.2250000257045","html-button-response","239","2499399","0.0-21.0-5.1","7361","","<p>Which tone was played fifth after the cadence?</p>","7","","5","new_stimuli/mp3/melody_v7_v6_v5_^6_v5_v4_^5_^6_v5_.mp3"
"","2383.445000043139","html-button-response","240","2501783","0.0-21.0-6.1","7361","","<p>Which tone was played sixth after the cadence?</p>","5","","6","new_stimuli/mp3/melody_v7_v6_v5_^6_v5_v4_^5_^6_v5_.mp3"
"","3929.2500000447035","html-button-response","241","2505714","0.0-21.0-7.1","7361","","<p>Which tone was played seventh after the cadence?</p>","7","","7","new_stimuli/mp3/melody_v7_v6_v5_^6_v5_v4_^5_^6_v5_.mp3"
"","1171.4449999853969","html-button-response","242","2506886","0.0-21.0-8.1","7361","","<p>Which tone was played eight after the cadence?</p>","5","","8","new_stimuli/mp3/melody_v7_v6_v5_^6_v5_v4_^5_^6_v5_.mp3"
"","2415.084999985993","html-button-response","243","2509303","0.0-21.0-9.1","7361","","<p>Which tone was played nineth after the cadence?</p>","4","","9","new_stimuli/mp3/melody_v7_v6_v5_^6_v5_v4_^5_^6_v5_.mp3"
"","null","audio-keyboard-response","244","2521993","0.0-21.0-0.2","7361","","new_stimuli/mp3/melody_^2_^3_^4_^5_^6_v5_v4_v3_v2_buffer.mp3","","null","",""
"","1341.020000167191","html-button-response","245","2523335","0.0-21.0-1.2","7361","","<p>Which tone was played first after the cadence?</p>","2","","1","new_stimuli/mp3/melody_^2_^3_^4_^5_^6_v5_v4_v3_v2_buffer.mp3"
"","847.1150000113994","html-button-response","246","2524184","0.0-21.0-2.2","7361","","<p>Which tone was played second after the cadence?</p>","4","","2","new_stimuli/mp3/melody_^2_^3_^4_^5_^6_v5_v4_v3_v2_buffer.mp3"
"","806.184999877587","html-button-response","247","2524991","0.0-21.0-3.2","7361","","<p>Which tone was played third after the cadence?</p>","5","","3","new_stimuli/mp3/melody_^2_^3_^4_^5_^6_v5_v4_v3_v2_buffer.mp3"
"","673.3150000218302","html-button-response","248","2525666","0.0-21.0-4.2","7361","","<p>Which tone was played fourth after the cadence?</p>","7","","4","new_stimuli/mp3/melody_^2_^3_^4_^5_^6_v5_v4_v3_v2_buffer.mp3"
"","989.5899998955429","html-button-response","249","2526656","0.0-21.0-5.2","7361","","<p>Which tone was played fifth after the cadence?</p>","9","","5","new_stimuli/mp3/melody_^2_^3_^4_^5_^6_v5_v4_v3_v2_buffer.mp3"
"","798.9199999719858","html-button-response","250","2527456","0.0-21.0-6.2","7361","","<p>Which tone was played sixth after the cadence?</p>","7","","6","new_stimuli/mp3/melody_^2_^3_^4_^5_^6_v5_v4_v3_v2_buffer.mp3"
"","822.8949999902397","html-button-response","251","2528280","0.0-21.0-7.2","7361","","<p>Which tone was played seventh after the cadence?</p>","5","","7","new_stimuli/mp3/melody_^2_^3_^4_^5_^6_v5_v4_v3_v2_buffer.mp3"
"","783.2700000144541","html-button-response","252","2529065","0.0-21.0-8.2","7361","","<p>Which tone was played eight after the cadence?</p>","4","","8","new_stimuli/mp3/melody_^2_^3_^4_^5_^6_v5_v4_v3_v2_buffer.mp3"
"","917.7899998612702","html-button-response","253","2529984","0.0-21.0-9.2","7361","","<p>Which tone was played nineth after the cadence?</p>","2","","9","new_stimuli/mp3/melody_^2_^3_^4_^5_^6_v5_v4_v3_v2_buffer.mp3"
"","null","audio-keyboard-response","254","2542625","0.0-21.0-0.3","7361","","new_stimuli/mp3/melody_v5_v4_v6+_^7_^3+_v3_v2_v5_^4_.mp3","","null","",""
"","1303.4400001633912","html-button-response","255","2543929","0.0-21.0-1.3","7361","","<p>Which tone was played first after the cadence?</p>","9","","1","new_stimuli/mp3/melody_v5_v4_v6+_^7_^3+_v3_v2_v5_^4_.mp3"
"","696.8249999918044","html-button-response","256","2544627","0.0-21.0-2.3","7361","","<p>Which tone was played second after the cadence?</p>","7","","2","new_stimuli/mp3/melody_v5_v4_v6+_^7_^3+_v3_v2_v5_^4_.mp3"
"","3358.7299999780953","html-button-response","257","2547987","0.0-21.0-3.3","7361","","<p>Which tone was played third after the cadence?</p>","2","","3","new_stimuli/mp3/melody_v5_v4_v6+_^7_^3+_v3_v2_v5_^4_.mp3"
"","807.0550002157688","html-button-response","258","2548795","0.0-21.0-4.3","7361","","<p>Which tone was played fourth after the cadence?</p>","4","","4","new_stimuli/mp3/melody_v5_v4_v6+_^7_^3+_v3_v2_v5_^4_.mp3"
"","4704.440000001341","html-button-response","259","2553501","0.0-21.0-5.3","7361","","<p>Which tone was played fifth after the cadence?</p>","6","","5","new_stimuli/mp3/melody_v5_v4_v6+_^7_^3+_v3_v2_v5_^4_.mp3"
"","846.8299999367446","html-button-response","260","2554349","0.0-21.0-6.3","7361","","<p>Which tone was played sixth after the cadence?</p>","7","","6","new_stimuli/mp3/melody_v5_v4_v6+_^7_^3+_v3_v2_v5_^4_.mp3"
"","2074.4950000662357","html-button-response","261","2556425","0.0-21.0-7.3","7361","","<p>Which tone was played seventh after the cadence?</p>","8","","7","new_stimuli/mp3/melody_v5_v4_v6+_^7_^3+_v3_v2_v5_^4_.mp3"
"","1852.9099998995662","html-button-response","262","2558279","0.0-21.0-8.3","7361","","<p>Which tone was played eight after the cadence?</p>","6","","8","new_stimuli/mp3/melody_v5_v4_v6+_^7_^3+_v3_v2_v5_^4_.mp3"
"","3239.9150000419468","html-button-response","263","2561520","0.0-21.0-9.3","7361","","<p>Which tone was played nineth after the cadence?</p>","5","","9","new_stimuli/mp3/melody_v5_v4_v6+_^7_^3+_v3_v2_v5_^4_.mp3"
"","null","audio-keyboard-response","264","2574477","0.0-21.0-0.4","7361","","new_stimuli/mp3/melody_^5_^6_v5_v4_v3_v2_v1_^2_^3_buffer.mp3","","null","",""
"","1780.4650000762194","html-button-response","265","2576258","0.0-21.0-1.4","7361","","<p>Which tone was played first after the cadence?</p>","7","","1","new_stimuli/mp3/melody_^5_^6_v5_v4_v3_v2_v1_^2_^3_buffer.mp3"
"","586.3850000314415","html-button-response","266","2576846","0.0-21.0-2.4","7361","","<p>Which tone was played second after the cadence?</p>","9","","2","new_stimuli/mp3/melody_^5_^6_v5_v4_v3_v2_v1_^2_^3_buffer.mp3"
"","719.8449999559671","html-button-response","267","2577567","0.0-21.0-3.4","7361","","<p>Which tone was played third after the cadence?</p>","7","","3","new_stimuli/mp3/melody_^5_^6_v5_v4_v3_v2_v1_^2_^3_buffer.mp3"
"","823.1999999843538","html-button-response","268","2578391","0.0-21.0-4.4","7361","","<p>Which tone was played fourth after the cadence?</p>","5","","4","new_stimuli/mp3/melody_^5_^6_v5_v4_v3_v2_v1_^2_^3_buffer.mp3"
"","854.3300000019372","html-button-response","269","2579246","0.0-21.0-5.4","7361","","<p>Which tone was played fifth after the cadence?</p>","4","","5","new_stimuli/mp3/melody_^5_^6_v5_v4_v3_v2_v1_^2_^3_buffer.mp3"
"","704.5599999837577","html-button-response","270","2579952","0.0-21.0-6.4","7361","","<p>Which tone was played sixth after the cadence?</p>","2","","6","new_stimuli/mp3/melody_^5_^6_v5_v4_v3_v2_v1_^2_^3_buffer.mp3"
"","862.3599999118596","html-button-response","271","2580815","0.0-21.0-7.4","7361","","<p>Which tone was played seventh after the cadence?</p>","0","","7","new_stimuli/mp3/melody_^5_^6_v5_v4_v3_v2_v1_^2_^3_buffer.mp3"
"","1013.0300000309944","html-button-response","272","2581829","0.0-21.0-8.4","7361","","<p>Which tone was played eight after the cadence?</p>","2","","8","new_stimuli/mp3/melody_^5_^6_v5_v4_v3_v2_v1_^2_^3_buffer.mp3"
"","1084.5700001809746","html-button-response","273","2582915","0.0-21.0-9.4","7361","","<p>Which tone was played nineth after the cadence?</p>","4","","9","new_stimuli/mp3/melody_^5_^6_v5_v4_v3_v2_v1_^2_^3_buffer.mp3"
"","null","audio-keyboard-response","274","2595555","0.0-21.0-0.5","7361","","new_stimuli/mp3/melody_^3_^4_v2_v7_^1_^2_^3_3_^4_.mp3","","null","",""
"","2146.739999996498","html-button-response","275","2597703","0.0-21.0-1.5","7361","","<p>Which tone was played first after the cadence?</p>","4","","1","new_stimuli/mp3/melody_^3_^4_v2_v7_^1_^2_^3_3_^4_.mp3"
"","490.7050000037998","html-button-response","276","2598195","0.0-21.0-2.5","7361","","<p>Which tone was played second after the cadence?</p>","5","","2","new_stimuli/mp3/melody_^3_^4_v2_v7_^1_^2_^3_3_^4_.mp3"
"","2391.5950001683086","html-button-response","277","2600588","0.0-21.0-3.5","7361","","<p>Which tone was played third after the cadence?</p>","2","","3","new_stimuli/mp3/melody_^3_^4_v2_v7_^1_^2_^3_3_^4_.mp3"
"","2526.0449999477714","html-button-response","278","2603115","0.0-21.0-4.5","7361","","<p>Which tone was played fourth after the cadence?</p>","0","","4","new_stimuli/mp3/melody_^3_^4_v2_v7_^1_^2_^3_3_^4_.mp3"
"","2638.3249999489635","html-button-response","279","2605755","0.0-21.0-5.5","7361","","<p>Which tone was played fifth after the cadence?</p>","2","","5","new_stimuli/mp3/melody_^3_^4_v2_v7_^1_^2_^3_3_^4_.mp3"
"","640.4850000981241","html-button-response","280","2606396","0.0-21.0-6.5","7361","","<p>Which tone was played sixth after the cadence?</p>","4","","6","new_stimuli/mp3/melody_^3_^4_v2_v7_^1_^2_^3_3_^4_.mp3"
"","1773.5250000841916","html-button-response","281","2608171","0.0-21.0-7.5","7361","","<p>Which tone was played seventh after the cadence?</p>","5","","7","new_stimuli/mp3/melody_^3_^4_v2_v7_^1_^2_^3_3_^4_.mp3"
"","4643.154999939725","html-button-response","282","2612815","0.0-21.0-8.5","7361","","<p>Which tone was played eight after the cadence?</p>","7","","8","new_stimuli/mp3/melody_^3_^4_v2_v7_^1_^2_^3_3_^4_.mp3"
"","2566.2249999586493","html-button-response","283","2615382","0.0-21.0-9.5","7361","","<p>Which tone was played nineth after the cadence?</p>","5","","9","new_stimuli/mp3/melody_^3_^4_v2_v7_^1_^2_^3_3_^4_.mp3"
"","null","audio-keyboard-response","284","2628313","0.0-21.0-0.6","7361","","new_stimuli/mp3/melody_^2_^4_v3_v2_v1_v3_v2+_^3_^5+_.mp3","","null","",""
"","1974.439999787137","html-button-response","285","2630289","0.0-21.0-1.6","7361","","<p>Which tone was played first after the cadence?</p>","2","","1","new_stimuli/mp3/melody_^2_^4_v3_v2_v1_v3_v2+_^3_^5+_.mp3"
"","1529.2899999767542","html-button-response","286","2631819","0.0-21.0-2.6","7361","","<p>Which tone was played second after the cadence?</p>","4","","2","new_stimuli/mp3/melody_^2_^4_v3_v2_v1_v3_v2+_^3_^5+_.mp3"
"","2486.375000094995","html-button-response","287","2634307","0.0-21.0-3.6","7361","","<p>Which tone was played third after the cadence?</p>","4","","3","new_stimuli/mp3/melody_^2_^4_v3_v2_v1_v3_v2+_^3_^5+_.mp3"
"","847.1299998927861","html-button-response","288","2635155","0.0-21.0-4.6","7361","","<p>Which tone was played fourth after the cadence?</p>","2","","4","new_stimuli/mp3/melody_^2_^4_v3_v2_v1_v3_v2+_^3_^5+_.mp3"
"","2922.7400000672787","html-button-response","289","2638078","0.0-21.0-5.6","7361","","<p>Which tone was played fifth after the cadence?</p>","0","","5","new_stimuli/mp3/melody_^2_^4_v3_v2_v1_v3_v2+_^3_^5+_.mp3"
"","2487.250000005588","html-button-response","290","2640567","0.0-21.0-6.6","7361","","<p>Which tone was played sixth after the cadence?</p>","3","","6","new_stimuli/mp3/melody_^2_^4_v3_v2_v1_v3_v2+_^3_^5+_.mp3"
"","4641.610000049695","html-button-response","291","2645210","0.0-21.0-7.6","7361","","<p>Which tone was played seventh after the cadence?</p>","6","","7","new_stimuli/mp3/melody_^2_^4_v3_v2_v1_v3_v2+_^3_^5+_.mp3"
"","3793.8149999827147","html-button-response","292","2649005","0.0-21.0-8.6","7361","","<p>Which tone was played eight after the cadence?</p>","7","","8","new_stimuli/mp3/melody_^2_^4_v3_v2_v1_v3_v2+_^3_^5+_.mp3"
"","7129.495000001043","html-button-response","293","2656135","0.0-21.0-9.6","7361","","<p>Which tone was played nineth after the cadence?</p>","7","","9","new_stimuli/mp3/melody_^2_^4_v3_v2_v1_v3_v2+_^3_^5+_.mp3"
"","41583.154999883845","survey-text","294","2697720","0.0-22.0","7361","{""Q0"":""Grouping/chunking; repetition, tonal cues/relating scale degrees to do""}","","","","",""
"","28742.620000150055","survey-text","295","2726464","0.0-23.0","7361","{""Q0"":""Very excited to see what this turns into! ""}","","","","",""
"","18811.310000019148","survey-text","296","2745276","0.0-24.0","7361","{""Q0"":""Were we allowed to? Whoops! No. ""}","","","","",""
"","6861.735000042245","survey-text","297","2752139","0.0-25.0","7361","{""Q0"":""computer speakers""}","","","","",""
"","3326.9849999342114","survey-text","298","2755467","0.0-26.0","7361","{""Q0"":""female""}","","","","",""
"","3326.9599999766797","survey-text","299","2758795","0.0-27.0","7361","{""Q0"":""yes""}","","","","",""
"[{""page_index"":0,""viewing_time"":4158.174999989569}]","4158.464999869466","instructions","300","2762954","0.0-28.0","7361","","","","","",""
