"view_history","rt","trial_type","trial_index","time_elapsed","internal_node_id","subject","responses","stimulus","button_pressed","key_press","response_sequence","melody"
"[{""page_index"":0,""viewing_time"":155538.6250000447},{""page_index"":1,""viewing_time"":16707.75999967009},{""page_index"":2,""viewing_time"":2705.2750000730157}]","174952.4250002578","instructions","0","175986","0.0-0.0","7622","","","","","",""
"","4105.359999462962","survey-text","1","180095","0.0-1.0","7622","{""Q0"":""30""}","","","","",""
"","9080.780000425875","survey-text","2","189177","0.0-2.0","7622","{""Q0"":""finished terminal degree""}","","","","",""
"","8326.534999534488","survey-text","3","197504","0.0-3.0","7622","{""Q0"":""moveable-do""}","","","","",""
"","3870.1250003650784","survey-text","4","201375","0.0-4.0","7622","{""Q0"":""no""}","","","","",""
"","14317.909999750555","survey-text","5","215694","0.0-5.0","7622","{""Q0"":""60""}","","","","",""
"","5965.394999831915","survey-text","6","221661","0.0-6.0","7622","{""Q0"":""1""}","","","","",""
"[{""page_index"":0,""viewing_time"":3823.8450000062585},{""page_index"":1,""viewing_time"":26436.95000000298},{""page_index"":2,""viewing_time"":2399.315000511706}]","32660.385000519454","instructions","7","254322","0.0-7.0","7622","","","","","",""
"","8293.045000173151","audio-button-response","8","262619","0.0-8.0","7622","","stimuli/long/c-do.mp3","0","","",""
"","7943.420000374317","audio-button-response","9","270564","0.0-9.0","7622","","stimuli/long/a-le.mp3","8","","",""
"[{""page_index"":0,""viewing_time"":7923.094999976456},{""page_index"":1,""viewing_time"":22145.43499983847}]","30068.824999965727","instructions","10","300634","0.0-10.0","7622","","","","","",""
"","13749.51499979943","audio-button-response","11","314386","0.0-11.0-0.0","7622","","stimuli/long/c-fi.mp3","6","","",""
"","14793.245000764728","audio-button-response","12","329181","0.0-11.0-0.1","7622","","stimuli/long/a-sol.mp3","7","","",""
"","null","audio-button-response","13","349185","0.0-11.0-0.2","7622","","stimuli/long/e-fi.mp3","null","","",""
"","8495.834999717772","audio-button-response","14","357683","0.0-11.0-0.3","7622","","stimuli/long/e-le.mp3","8","","",""
"","12279.49499990791","audio-button-response","15","369965","0.0-11.0-0.4","7622","","stimuli/long/e-te.mp3","11","","",""
"","9832.080000080168","audio-button-response","16","379799","0.0-11.0-0.5","7622","","stimuli/long/a-re.mp3","2","","",""
"","13809.009999968112","audio-button-response","17","393611","0.0-11.0-0.6","7622","","stimuli/long/c-re.mp3","5","","",""
"","12602.815000340343","audio-button-response","18","406216","0.0-11.0-0.7","7622","","stimuli/long/c-la.mp3","6","","",""
"","9897.499999962747","audio-button-response","19","416115","0.0-11.0-0.8","7622","","stimuli/long/a-fa.mp3","0","","",""
"","9099.150000140071","audio-button-response","20","425216","0.0-11.0-0.9","7622","","stimuli/long/c-mi.mp3","3","","",""
"","13976.650000549853","audio-button-response","21","439195","0.0-11.0-0.10","7622","","stimuli/long/e-sol.mp3","9","","",""
"","8277.315000072122","audio-button-response","22","447475","0.0-11.0-0.11","7622","","stimuli/long/a-do.mp3","0","","",""
"","null","audio-button-response","23","467480","0.0-11.0-0.12","7622","","stimuli/long/a-la.mp3","null","","",""
"","11321.355000138283","audio-button-response","24","478804","0.0-11.0-0.13","7622","","stimuli/long/c-sol.mp3","4","","",""
"","10454.60999943316","audio-button-response","25","489261","0.0-11.0-0.14","7622","","stimuli/long/c-le.mp3","1","","",""
"","9006.96999952197","audio-button-response","26","498269","0.0-11.0-0.15","7622","","stimuli/long/e-me.mp3","8","","",""
"","12884.164999239147","audio-button-response","27","511156","0.0-11.0-0.16","7622","","stimuli/long/a-me.mp3","2","","",""
"","9220.305000431836","audio-button-response","28","520378","0.0-11.0-0.17","7622","","stimuli/long/e-ti.mp3","11","","",""
"","8328.325000591576","audio-button-response","29","528708","0.0-11.0-0.18","7622","","stimuli/long/c-do8.mp3","0","","",""
"","11834.145000204444","audio-button-response","30","540545","0.0-11.0-0.19","7622","","stimuli/long/c-fa.mp3","4","","",""
"","11814.079999923706","audio-button-response","31","552362","0.0-11.0-0.20","7622","","stimuli/long/e-do.mp3","0","","",""
"","11561.31500005722","audio-button-response","32","563926","0.0-11.0-0.21","7622","","stimuli/long/e-fa.mp3","4","","",""
"","10647.140000015497","audio-button-response","33","574575","0.0-11.0-0.22","7622","","stimuli/long/a-ti.mp3","5","","",""
"","8819.574999623","audio-button-response","34","583396","0.0-11.0-0.23","7622","","stimuli/long/c-do.mp3","0","","",""
"","11522.095000371337","audio-button-response","35","594920","0.0-11.0-0.24","7622","","stimuli/long/c-ti.mp3","11","","",""
"","13003.344999626279","audio-button-response","36","607926","0.0-11.0-0.25","7622","","stimuli/long/a-te.mp3","8","","",""
"","12419.719999656081","audio-button-response","37","620347","0.0-11.0-0.26","7622","","stimuli/long/e-ra.mp3","8","","",""
"","8960.015000775456","audio-button-response","38","629309","0.0-11.0-0.27","7622","","stimuli/long/a-ra.mp3","1","","",""
"","11247.359999455512","audio-button-response","39","640558","0.0-11.0-0.28","7622","","stimuli/long/e-la.mp3","10","","",""
"","10182.489999569952","audio-button-response","40","650743","0.0-11.0-0.29","7622","","stimuli/long/a-mi.mp3","2","","",""
"","12450.86000021547","audio-button-response","41","663196","0.0-11.0-0.30","7622","","stimuli/long/c-ra.mp3","6","","",""
"","13558.400000445545","audio-button-response","42","676756","0.0-11.0-0.31","7622","","stimuli/long/c-me.mp3","7","","",""
"","8401.279999874532","audio-button-response","43","685159","0.0-11.0-0.32","7622","","stimuli/long/a-do8.mp3","0","","",""
"","11794.92500051856","audio-button-response","44","696956","0.0-11.0-0.33","7622","","stimuli/long/e-re.mp3","3","","",""
"","9905.035000294447","audio-button-response","45","706863","0.0-11.0-0.34","7622","","stimuli/long/a-fi.mp3","6","","",""
"","8713.984999805689","audio-button-response","46","715579","0.0-11.0-0.35","7622","","stimuli/long/a-le.mp3","8","","",""
"","8996.980000287294","audio-button-response","47","724579","0.0-11.0-0.36","7622","","stimuli/long/e-mi.mp3","4","","",""
"","8842.594999819994","audio-button-response","48","733424","0.0-11.0-0.37","7622","","stimuli/long/e-do8.mp3","12","","",""
"[{""page_index"":0,""viewing_time"":15101.100000552833},{""page_index"":1,""viewing_time"":1719.2049995064735}]","16820.580000057817","instructions","49","750245","0.0-12.0","7622","","","","","",""
"","null","audio-keyboard-response","50","759409","0.0-13.0-0.0","7622","","new_stimuli/mp3/melody_^2_v7-_.mp3","","null","",""
"","3646.1450001224875","html-button-response","51","763058","0.0-13.0-1.0","7622","","<p>Which tone was played first after the cadence?</p><p>Please respond as quickly and as accurately as possible!</p>","3","","1","new_stimuli/mp3/melody_^2_v7-_.mp3"
"","2136.0250003635883","html-button-response","52","765195","0.0-13.0-2.0","7622","","<p>Which tone was played second after the cadence?</p><p>Please respond as quickly and as accurately as possible!</p>","0","","2","new_stimuli/mp3/melody_^2_v7-_.mp3"
"","null","audio-keyboard-response","53","774489","0.0-13.0-0.1","7622","","new_stimuli/mp3/melody_3_^6_buffer.mp3","","null","",""
"","5934.1799998655915","html-button-response","54","780425","0.0-13.0-1.1","7622","","<p>Which tone was played first after the cadence?</p><p>Please respond as quickly and as accurately as possible!</p>","4","","1","new_stimuli/mp3/melody_3_^6_buffer.mp3"
"","1691.189999692142","html-button-response","55","782119","0.0-13.0-2.1","7622","","<p>Which tone was played second after the cadence?</p><p>Please respond as quickly and as accurately as possible!</p>","7","","2","new_stimuli/mp3/melody_3_^6_buffer.mp3"
"","null","audio-keyboard-response","56","791559","0.0-13.0-0.2","7622","","new_stimuli/mp3/melody_v4_v3_buffer.mp3","","null","",""
"","1255.940000526607","html-button-response","57","792818","0.0-13.0-1.2","7622","","<p>Which tone was played first after the cadence?</p><p>Please respond as quickly and as accurately as possible!</p>","5","","1","new_stimuli/mp3/melody_v4_v3_buffer.mp3"
"","939.5250007510185","html-button-response","58","793759","0.0-13.0-2.2","7622","","<p>Which tone was played second after the cadence?</p><p>Please respond as quickly and as accurately as possible!</p>","4","","2","new_stimuli/mp3/melody_v4_v3_buffer.mp3"
"","null","audio-keyboard-response","59","803218","0.0-13.0-0.3","7622","","new_stimuli/mp3/melody_^3_v4+_buffer.mp3","","null","",""
"","1484.88499969244","html-button-response","60","804706","0.0-13.0-1.3","7622","","<p>Which tone was played first after the cadence?</p><p>Please respond as quickly and as accurately as possible!</p>","7","","1","new_stimuli/mp3/melody_^3_v4+_buffer.mp3"
"","1287.5749999657273","html-button-response","61","805995","0.0-13.0-2.3","7622","","<p>Which tone was played second after the cadence?</p><p>Please respond as quickly and as accurately as possible!</p>","9","","2","new_stimuli/mp3/melody_^3_v4+_buffer.mp3"
"","null","audio-keyboard-response","62","815158","0.0-13.0-0.4","7622","","new_stimuli/mp3/melody_^5_^1+_.mp3","","null","",""
"","5386.994999833405","html-button-response","63","820547","0.0-13.0-1.4","7622","","<p>Which tone was played first after the cadence?</p><p>Please respond as quickly and as accurately as possible!</p>","1","","1","new_stimuli/mp3/melody_^5_^1+_.mp3"
"","1719.8599996045232","html-button-response","64","822269","0.0-13.0-2.4","7622","","<p>Which tone was played second after the cadence?</p><p>Please respond as quickly and as accurately as possible!</p>","6","","2","new_stimuli/mp3/melody_^5_^1+_.mp3"
"","null","audio-keyboard-response","65","831728","0.0-13.0-0.5","7622","","new_stimuli/mp3/melody_v7_v3_buffer.mp3","","null","",""
"","2414.6549999713898","html-button-response","66","834145","0.0-13.0-1.5","7622","","<p>Which tone was played first after the cadence?</p><p>Please respond as quickly and as accurately as possible!</p>","7","","1","new_stimuli/mp3/melody_v7_v3_buffer.mp3"
"","2331.009999848902","html-button-response","67","836477","0.0-13.0-2.5","7622","","<p>Which tone was played second after the cadence?</p><p>Please respond as quickly and as accurately as possible!</p>","0","","2","new_stimuli/mp3/melody_v7_v3_buffer.mp3"
"","null","audio-keyboard-response","68","845678","0.0-13.0-0.6","7622","","new_stimuli/mp3/melody_v3_v2_buffer.mp3","","null","",""
"","2261.2700005993247","html-button-response","69","847941","0.0-13.0-1.6","7622","","<p>Which tone was played first after the cadence?</p><p>Please respond as quickly and as accurately as possible!</p>","4","","1","new_stimuli/mp3/melody_v3_v2_buffer.mp3"
"","1047.7249994874","html-button-response","70","848990","0.0-13.0-2.6","7622","","<p>Which tone was played second after the cadence?</p><p>Please respond as quickly and as accurately as possible!</p>","2","","2","new_stimuli/mp3/melody_v3_v2_buffer.mp3"
"","null","audio-keyboard-response","71","858158","0.0-13.0-0.7","7622","","new_stimuli/mp3/melody_v5_v1+_.mp3","","null","",""
"","13245.170000009239","html-button-response","72","871405","0.0-13.0-1.7","7622","","<p>Which tone was played first after the cadence?</p><p>Please respond as quickly and as accurately as possible!</p>","11","","1","new_stimuli/mp3/melody_v5_v1+_.mp3"
"","1305.7850003242493","html-button-response","73","872713","0.0-13.0-2.7","7622","","<p>Which tone was played second after the cadence?</p><p>Please respond as quickly and as accurately as possible!</p>","6","","2","new_stimuli/mp3/melody_v5_v1+_.mp3"
"","null","audio-keyboard-response","74","881779","0.0-13.0-0.8","7622","","new_stimuli/mp3/melody_v2_v1_.mp3","","null","",""
"","1429.925000295043","html-button-response","75","883211","0.0-13.0-1.8","7622","","<p>Which tone was played first after the cadence?</p><p>Please respond as quickly and as accurately as possible!</p>","2","","1","new_stimuli/mp3/melody_v2_v1_.mp3"
"","1250.0149998813868","html-button-response","76","884462","0.0-13.0-2.8","7622","","<p>Which tone was played second after the cadence?</p><p>Please respond as quickly and as accurately as possible!</p>","0","","2","new_stimuli/mp3/melody_v2_v1_.mp3"
"","null","audio-keyboard-response","77","893479","0.0-13.0-0.9","7622","","new_stimuli/mp3/melody_^1_^2+_.mp3","","null","",""
"","8697.820000350475","html-button-response","78","902179","0.0-13.0-1.9","7622","","<p>Which tone was played first after the cadence?</p><p>Please respond as quickly and as accurately as possible!</p>","0","","1","new_stimuli/mp3/melody_^1_^2+_.mp3"
"","1121.2649997323751","html-button-response","79","903304","0.0-13.0-2.9","7622","","<p>Which tone was played second after the cadence?</p><p>Please respond as quickly and as accurately as possible!</p>","3","","2","new_stimuli/mp3/melody_^1_^2+_.mp3"
"[{""page_index"":0,""viewing_time"":27328.774999827147},{""page_index"":1,""viewing_time"":5154.134999960661},{""page_index"":2,""viewing_time"":2097.640000283718}]","34580.83499968052","instructions","80","937885","0.0-14.0","7622","","","","","",""
"","null","audio-keyboard-response","81","947592","0.0-15.0-0.0","7622","","new_stimuli/mp3/melody_v4_v3_v2_buffer.mp3","","null","",""
"","1617.7749997004867","html-button-response","82","949211","0.0-15.0-1.0","7622","","<p>Which tone was played first after the cadence?</p><p>Please respond as quickly and as accurately as possible!</p>","5","","1","new_stimuli/mp3/melody_v4_v3_v2_buffer.mp3"
"","1394.8900001123548","html-button-response","83","950608","0.0-15.0-2.0","7622","","<p>Which tone was played second after the cadence?</p><p>Please respond as quickly and as accurately as possible!</p>","4","","2","new_stimuli/mp3/melody_v4_v3_v2_buffer.mp3"
"","1016.3500001654029","html-button-response","84","951625","0.0-15.0-3.0","7622","","<p>Which tone was played third after the cadence?</p><p>Please respond as quickly and as accurately as possible!</p>","2","","3","new_stimuli/mp3/melody_v4_v3_v2_buffer.mp3"
"","null","audio-keyboard-response","85","961522","0.0-15.0-0.1","7622","","new_stimuli/mp3/melody_^1_v6_v5+_.mp3","","null","",""
"","13156.260000541806","html-button-response","86","974680","0.0-15.0-1.1","7622","","<p>Which tone was played first after the cadence?</p><p>Please respond as quickly and as accurately as possible!</p>","7","","1","new_stimuli/mp3/melody_^1_v6_v5+_.mp3"
"","2729.6700002625585","html-button-response","87","977411","0.0-15.0-2.1","7622","","<p>Which tone was played second after the cadence?</p><p>Please respond as quickly and as accurately as possible!</p>","1","","2","new_stimuli/mp3/melody_^1_v6_v5+_.mp3"
"","1167.1099998056889","html-button-response","88","978579","0.0-15.0-3.1","7622","","<p>Which tone was played third after the cadence?</p><p>Please respond as quickly and as accurately as possible!</p>","0","","3","new_stimuli/mp3/melody_^1_v6_v5+_.mp3"
"","null","audio-keyboard-response","89","988552","0.0-15.0-0.2","7622","","new_stimuli/mp3/melody_v2_v5_^3_buffer.mp3","","null","",""
"","11105.464999563992","html-button-response","90","999659","0.0-15.0-1.2","7622","","<p>Which tone was played first after the cadence?</p><p>Please respond as quickly and as accurately as possible!</p>","4","","1","new_stimuli/mp3/melody_v2_v5_^3_buffer.mp3"
"","4444.965000264347","html-button-response","91","1004105","0.0-15.0-2.2","7622","","<p>Which tone was played second after the cadence?</p><p>Please respond as quickly and as accurately as possible!</p>","9","","2","new_stimuli/mp3/melody_v2_v5_^3_buffer.mp3"
"","2609.2299995943904","html-button-response","92","1006716","0.0-15.0-3.2","7622","","<p>Which tone was played third after the cadence?</p><p>Please respond as quickly and as accurately as possible!</p>","2","","3","new_stimuli/mp3/melody_v2_v5_^3_buffer.mp3"
"","null","audio-keyboard-response","93","1016352","0.0-15.0-0.3","7622","","new_stimuli/mp3/melody_6_^1_v5_.mp3","","null","",""
"","9332.585000433028","html-button-response","94","1025686","0.0-15.0-1.3","7622","","<p>Which tone was played first after the cadence?</p><p>Please respond as quickly and as accurately as possible!</p>","4","","1","new_stimuli/mp3/melody_6_^1_v5_.mp3"
"","1947.4450005218387","html-button-response","95","1027635","0.0-15.0-2.3","7622","","<p>Which tone was played second after the cadence?</p><p>Please respond as quickly and as accurately as possible!</p>","7","","2","new_stimuli/mp3/melody_6_^1_v5_.mp3"
"","1706.9850005209446","html-button-response","96","1029343","0.0-15.0-3.3","7622","","<p>Which tone was played third after the cadence?</p><p>Please respond as quickly and as accurately as possible!</p>","2","","3","new_stimuli/mp3/melody_6_^1_v5_.mp3"
"","null","audio-keyboard-response","97","1038852","0.0-15.0-0.4","7622","","new_stimuli/mp3/melody_1_v1+_^2_.mp3","","null","",""
"","1495.129999704659","html-button-response","98","1040348","0.0-15.0-1.4","7622","","<p>Which tone was played first after the cadence?</p><p>Please respond as quickly and as accurately as possible!</p>","0","","1","new_stimuli/mp3/melody_1_v1+_^2_.mp3"
"","787.6200005412102","html-button-response","99","1041137","0.0-15.0-2.4","7622","","<p>Which tone was played second after the cadence?</p><p>Please respond as quickly and as accurately as possible!</p>","1","","2","new_stimuli/mp3/melody_1_v1+_^2_.mp3"
"","968.1649999693036","html-button-response","100","1042106","0.0-15.0-3.4","7622","","<p>Which tone was played third after the cadence?</p><p>Please respond as quickly and as accurately as possible!</p>","2","","3","new_stimuli/mp3/melody_1_v1+_^2_.mp3"
"","null","audio-keyboard-response","101","1051672","0.0-15.0-0.5","7622","","new_stimuli/mp3/melody_v3_v2_v1_.mp3","","null","",""
"","1966.7750000953674","html-button-response","102","1053641","0.0-15.0-1.5","7622","","<p>Which tone was played first after the cadence?</p><p>Please respond as quickly and as accurately as possible!</p>","4","","1","new_stimuli/mp3/melody_v3_v2_v1_.mp3"
"","937.0349999517202","html-button-response","103","1054579","0.0-15.0-2.5","7622","","<p>Which tone was played second after the cadence?</p><p>Please respond as quickly and as accurately as possible!</p>","2","","2","new_stimuli/mp3/melody_v3_v2_v1_.mp3"
"","1139.0050007030368","html-button-response","104","1055720","0.0-15.0-3.5","7622","","<p>Which tone was played third after the cadence?</p><p>Please respond as quickly and as accurately as possible!</p>","0","","3","new_stimuli/mp3/melody_v3_v2_v1_.mp3"
"","null","audio-keyboard-response","105","1065282","0.0-15.0-0.6","7622","","new_stimuli/mp3/melody_v1_v7-_^7_.mp3","","null","",""
"","5817.180000245571","html-button-response","106","1071101","0.0-15.0-1.6","7622","","<p>Which tone was played first after the cadence?</p><p>Please respond as quickly and as accurately as possible!</p>","7","","1","new_stimuli/mp3/melody_v1_v7-_^7_.mp3"
"","907.0449993014336","html-button-response","107","1072009","0.0-15.0-2.6","7622","","<p>Which tone was played second after the cadence?</p><p>Please respond as quickly and as accurately as possible!</p>","5","","2","new_stimuli/mp3/melody_v1_v7-_^7_.mp3"
"","800.004999153316","html-button-response","108","1072810","0.0-15.0-3.6","7622","","<p>Which tone was played third after the cadence?</p><p>Please respond as quickly and as accurately as possible!</p>","6","","3","new_stimuli/mp3/melody_v1_v7-_^7_.mp3"
"","null","audio-keyboard-response","109","1082391","0.0-15.0-0.7","7622","","new_stimuli/mp3/melody_v1_v7-_7-_buffer.mp3","","null","",""
"","9046.28000035882","html-button-response","110","1091439","0.0-15.0-1.7","7622","","<p>Which tone was played first after the cadence?</p><p>Please respond as quickly and as accurately as possible!</p>","5","","1","new_stimuli/mp3/melody_v1_v7-_7-_buffer.mp3"
"","1187.0900001376867","html-button-response","111","1092627","0.0-15.0-2.7","7622","","<p>Which tone was played second after the cadence?</p><p>Please respond as quickly and as accurately as possible!</p>","3","","2","new_stimuli/mp3/melody_v1_v7-_7-_buffer.mp3"
"","456.0400005429983","html-button-response","112","1093084","0.0-15.0-3.7","7622","","<p>Which tone was played third after the cadence?</p><p>Please respond as quickly and as accurately as possible!</p>","3","","3","new_stimuli/mp3/melody_v1_v7-_7-_buffer.mp3"
"","null","audio-keyboard-response","113","1103041","0.0-15.0-0.8","7622","","new_stimuli/mp3/melody_v5_v4_v3_buffer.mp3","","null","",""
"","1983.219999819994","html-button-response","114","1105026","0.0-15.0-1.8","7622","","<p>Which tone was played first after the cadence?</p><p>Please respond as quickly and as accurately as possible!</p>","7","","1","new_stimuli/mp3/melody_v5_v4_v3_buffer.mp3"
"","1396.149999462068","html-button-response","115","1106423","0.0-15.0-2.8","7622","","<p>Which tone was played second after the cadence?</p><p>Please respond as quickly and as accurately as possible!</p>","5","","2","new_stimuli/mp3/melody_v5_v4_v3_buffer.mp3"
"","866.7699992656708","html-button-response","116","1107291","0.0-15.0-3.8","7622","","<p>Which tone was played third after the cadence?</p><p>Please respond as quickly and as accurately as possible!</p>","4","","3","new_stimuli/mp3/melody_v5_v4_v3_buffer.mp3"
"[{""page_index"":0,""viewing_time"":83392.74000003934},{""page_index"":1,""viewing_time"":1822.1650002524257},{""page_index"":2,""viewing_time"":1437.1050000190735}]","86652.29499991983","instructions","117","1193944","0.0-16.0","7622","","","","","",""
"","null","audio-keyboard-response","118","1204532","0.0-17.0-0.0","7622","","new_stimuli/mp3/melody_v5_v4_v3_v2_v1_.mp3","","null","",""
"","1498.1100000441074","html-button-response","119","1206032","0.0-17.0-1.0","7622","","<p>Which tone was played first after the cadence?</p><p>Please respond as quickly and as accurately as possible!</p>","7","","1","new_stimuli/mp3/melody_v5_v4_v3_v2_v1_.mp3"
"","981.0499995946884","html-button-response","120","1207020","0.0-17.0-2.0","7622","","<p>Which tone was played second after the cadence?</p><p>Please respond as quickly and as accurately as possible!</p>","5","","2","new_stimuli/mp3/melody_v5_v4_v3_v2_v1_.mp3"
"","866.6300000622869","html-button-response","121","1207888","0.0-17.0-3.0","7622","","<p>Which tone was played third after the cadence?</p><p>Please respond as quickly and as accurately as possible!</p>","4","","3","new_stimuli/mp3/melody_v5_v4_v3_v2_v1_.mp3"
"","937.5949995592237","html-button-response","122","1208827","0.0-17.0-4.0","7622","","<p>Which tone was played fourth after the cadence?</p><p>Please respond as quickly and as accurately as possible!</p>","2","","4","new_stimuli/mp3/melody_v5_v4_v3_v2_v1_.mp3"
"","1029.5750005170703","html-button-response","123","1209858","0.0-17.0-5.0","7622","","<p>Which tone was played fifth after the cadence?</p><p>Please respond as quickly and as accurately as possible!</p>","0","","5","new_stimuli/mp3/melody_v5_v4_v3_v2_v1_.mp3"
"","null","audio-keyboard-response","124","1220800","0.0-17.0-0.1","7622","","new_stimuli/mp3/melody_v5-_v3_3_^4+_v3_.mp3","","null","",""
"","5371.909999288619","html-button-response","125","1226173","0.0-17.0-1.1","7622","","<p>Which tone was played first after the cadence?</p><p>Please respond as quickly and as accurately as possible!</p>","8","","1","new_stimuli/mp3/melody_v5-_v3_3_^4+_v3_.mp3"
"","876.0600006207824","html-button-response","126","1227050","0.0-17.0-2.1","7622","","<p>Which tone was played second after the cadence?</p><p>Please respond as quickly and as accurately as possible!</p>","7","","2","new_stimuli/mp3/melody_v5-_v3_3_^4+_v3_.mp3"
"","612.9749994724989","html-button-response","127","1227666","0.0-17.0-3.1","7622","","<p>Which tone was played third after the cadence?</p><p>Please respond as quickly and as accurately as possible!</p>","7","","3","new_stimuli/mp3/melody_v5-_v3_3_^4+_v3_.mp3"
"","1167.650000192225","html-button-response","128","1228835","0.0-17.0-4.1","7622","","<p>Which tone was played fourth after the cadence?</p><p>Please respond as quickly and as accurately as possible!</p>","8","","4","new_stimuli/mp3/melody_v5-_v3_3_^4+_v3_.mp3"
"","1037.074999883771","html-button-response","129","1229874","0.0-17.0-5.1","7622","","<p>Which tone was played fifth after the cadence?</p><p>Please respond as quickly and as accurately as possible!</p>","7","","5","new_stimuli/mp3/melody_v5-_v3_3_^4+_v3_.mp3"
"","null","audio-keyboard-response","130","1240830","0.0-17.0-0.2","7622","","new_stimuli/mp3/melody_^5_^6_v5_v4_v3_buffer.mp3","","null","",""
"","1433.3800002932549","html-button-response","131","1242265","0.0-17.0-1.2","7622","","<p>Which tone was played first after the cadence?</p><p>Please respond as quickly and as accurately as possible!</p>","7","","1","new_stimuli/mp3/melody_^5_^6_v5_v4_v3_buffer.mp3"
"","1176.264999434352","html-button-response","132","1243443","0.0-17.0-2.2","7622","","<p>Which tone was played second after the cadence?</p><p>Please respond as quickly and as accurately as possible!</p>","9","","2","new_stimuli/mp3/melody_^5_^6_v5_v4_v3_buffer.mp3"
"","927.305000834167","html-button-response","133","1244371","0.0-17.0-3.2","7622","","<p>Which tone was played third after the cadence?</p><p>Please respond as quickly and as accurately as possible!</p>","7","","3","new_stimuli/mp3/melody_^5_^6_v5_v4_v3_buffer.mp3"
"","1017.3350004479289","html-button-response","134","1245390","0.0-17.0-4.2","7622","","<p>Which tone was played fourth after the cadence?</p><p>Please respond as quickly and as accurately as possible!</p>","5","","4","new_stimuli/mp3/melody_^5_^6_v5_v4_v3_buffer.mp3"
"","827.5499995797873","html-button-response","135","1246219","0.0-17.0-5.2","7622","","<p>Which tone was played fifth after the cadence?</p><p>Please respond as quickly and as accurately as possible!</p>","4","","5","new_stimuli/mp3/melody_^5_^6_v5_v4_v3_buffer.mp3"
"","null","audio-keyboard-response","136","1256811","0.0-17.0-0.3","7622","","new_stimuli/mp3/melody_v5_v4_v3_v2_v1 _buffer.mp3","","null","",""
"","1665.795000270009","html-button-response","137","1258480","0.0-17.0-1.3","7622","","<p>Which tone was played first after the cadence?</p><p>Please respond as quickly and as accurately as possible!</p>","7","","1","new_stimuli/mp3/melody_v5_v4_v3_v2_v1 _buffer.mp3"
"","998.4099995344877","html-button-response","138","1259480","0.0-17.0-2.3","7622","","<p>Which tone was played second after the cadence?</p><p>Please respond as quickly and as accurately as possible!</p>","5","","2","new_stimuli/mp3/melody_v5_v4_v3_v2_v1 _buffer.mp3"
"","827.1050006151199","html-button-response","139","1260308","0.0-17.0-3.3","7622","","<p>Which tone was played third after the cadence?</p><p>Please respond as quickly and as accurately as possible!</p>","4","","3","new_stimuli/mp3/melody_v5_v4_v3_v2_v1 _buffer.mp3"
"","917.0749997720122","html-button-response","140","1261226","0.0-17.0-4.3","7622","","<p>Which tone was played fourth after the cadence?</p><p>Please respond as quickly and as accurately as possible!</p>","2","","4","new_stimuli/mp3/melody_v5_v4_v3_v2_v1 _buffer.mp3"
"","1157.6899997889996","html-button-response","141","1262385","0.0-17.0-5.3","7622","","<p>Which tone was played fifth after the cadence?</p><p>Please respond as quickly and as accurately as possible!</p>","0","","5","new_stimuli/mp3/melody_v5_v4_v3_v2_v1 _buffer.mp3"
"","null","audio-keyboard-response","142","1273099","0.0-17.0-0.4","7622","","new_stimuli/mp3/melody_^6_v5_v4_v3_v2_buffer.mp3","","null","",""
"","3587.014999240637","html-button-response","143","1276688","0.0-17.0-1.4","7622","","<p>Which tone was played first after the cadence?</p><p>Please respond as quickly and as accurately as possible!</p>","9","","1","new_stimuli/mp3/melody_^6_v5_v4_v3_v2_buffer.mp3"
"","1224.914999678731","html-button-response","144","1277914","0.0-17.0-2.4","7622","","<p>Which tone was played second after the cadence?</p><p>Please respond as quickly and as accurately as possible!</p>","7","","2","new_stimuli/mp3/melody_^6_v5_v4_v3_v2_buffer.mp3"
"","939.4100001081824","html-button-response","145","1278854","0.0-17.0-3.4","7622","","<p>Which tone was played third after the cadence?</p><p>Please respond as quickly and as accurately as possible!</p>","5","","3","new_stimuli/mp3/melody_^6_v5_v4_v3_v2_buffer.mp3"
"","886.3250007852912","html-button-response","146","1279742","0.0-17.0-4.4","7622","","<p>Which tone was played fourth after the cadence?</p><p>Please respond as quickly and as accurately as possible!</p>","4","","4","new_stimuli/mp3/melody_^6_v5_v4_v3_v2_buffer.mp3"
"","1287.754999473691","html-button-response","147","1281033","0.0-17.0-5.4","7622","","<p>Which tone was played fifth after the cadence?</p><p>Please respond as quickly and as accurately as possible!</p>","2","","5","new_stimuli/mp3/melody_^6_v5_v4_v3_v2_buffer.mp3"
"","null","audio-keyboard-response","148","1291662","0.0-17.0-0.5","7622","","new_stimuli/mp3/melody_v5_^6+_^7_^1_5_.mp3","","null","",""
"","1678.60500048846","html-button-response","149","1293342","0.0-17.0-1.5","7622","","<p>Which tone was played first after the cadence?</p><p>Please respond as quickly and as accurately as possible!</p>","7","","1","new_stimuli/mp3/melody_v5_^6+_^7_^1_5_.mp3"
"","1167.1350002288818","html-button-response","150","1294511","0.0-17.0-2.5","7622","","<p>Which tone was played second after the cadence?</p><p>Please respond as quickly and as accurately as possible!</p>","9","","2","new_stimuli/mp3/melody_v5_^6+_^7_^1_5_.mp3"
"","1017.7600001916289","html-button-response","151","1295530","0.0-17.0-3.5","7622","","<p>Which tone was played third after the cadence?</p><p>Please respond as quickly and as accurately as possible!</p>","11","","3","new_stimuli/mp3/melody_v5_^6+_^7_^1_5_.mp3"
"","1238.4150000289083","html-button-response","152","1296769","0.0-17.0-4.5","7622","","<p>Which tone was played fourth after the cadence?</p><p>Please respond as quickly and as accurately as possible!</p>","12","","4","new_stimuli/mp3/melody_v5_^6+_^7_^1_5_.mp3"
"","1701.3050001114607","html-button-response","153","1298472","0.0-17.0-5.5","7622","","<p>Which tone was played fifth after the cadence?</p><p>Please respond as quickly and as accurately as possible!</p>","7","","5","new_stimuli/mp3/melody_v5_^6+_^7_^1_5_.mp3"
"","null","audio-keyboard-response","154","1309053","0.0-17.0-0.6","7622","","new_stimuli/mp3/melody_v2_2_^3_^4_v2_.mp3","","null","",""
"","6604.7049993649125","html-button-response","155","1315659","0.0-17.0-1.6","7622","","<p>Which tone was played first after the cadence?</p><p>Please respond as quickly and as accurately as possible!</p>","2","","1","new_stimuli/mp3/melody_v2_2_^3_^4_v2_.mp3"
"","1062.0900001376867","html-button-response","156","1316723","0.0-17.0-2.6","7622","","<p>Which tone was played second after the cadence?</p><p>Please respond as quickly and as accurately as possible!</p>","2","","2","new_stimuli/mp3/melody_v2_2_^3_^4_v2_.mp3"
"","6689.170000143349","html-button-response","157","1323413","0.0-17.0-3.6","7622","","<p>Which tone was played third after the cadence?</p><p>Please respond as quickly and as accurately as possible!</p>","4","","3","new_stimuli/mp3/melody_v2_2_^3_^4_v2_.mp3"
"","977.1699998527765","html-button-response","158","1324392","0.0-17.0-4.6","7622","","<p>Which tone was played fourth after the cadence?</p><p>Please respond as quickly and as accurately as possible!</p>","5","","4","new_stimuli/mp3/melody_v2_2_^3_^4_v2_.mp3"
"","1638.6649999767542","html-button-response","159","1326032","0.0-17.0-5.6","7622","","<p>Which tone was played fifth after the cadence?</p><p>Please respond as quickly and as accurately as possible!</p>","2","","5","new_stimuli/mp3/melody_v2_2_^3_^4_v2_.mp3"
"","null","audio-keyboard-response","160","1336663","0.0-17.0-0.7","7622","","new_stimuli/mp3/melody_^6_v4_v3_^4_^5_.mp3","","null","",""
"","16505.584999918938","html-button-response","161","1353170","0.0-17.0-1.7","7622","","<p>Which tone was played first after the cadence?</p><p>Please respond as quickly and as accurately as possible!</p>","7","","1","new_stimuli/mp3/melody_^6_v4_v3_^4_^5_.mp3"
"","1510.839999653399","html-button-response","162","1354683","0.0-17.0-2.7","7622","","<p>Which tone was played second after the cadence?</p><p>Please respond as quickly and as accurately as possible!</p>","5","","2","new_stimuli/mp3/melody_^6_v4_v3_^4_^5_.mp3"
"","402.1049998700619","html-button-response","163","1355087","0.0-17.0-3.7","7622","","<p>Which tone was played third after the cadence?</p><p>Please respond as quickly and as accurately as possible!</p>","5","","3","new_stimuli/mp3/melody_^6_v4_v3_^4_^5_.mp3"
"","3295.244999229908","html-button-response","164","1358383","0.0-17.0-4.7","7622","","<p>Which tone was played fourth after the cadence?</p><p>Please respond as quickly and as accurately as possible!</p>","2","","4","new_stimuli/mp3/melody_^6_v4_v3_^4_^5_.mp3"
"","3659.095000475645","html-button-response","165","1362044","0.0-17.0-5.7","7622","","<p>Which tone was played fifth after the cadence?</p><p>Please respond as quickly and as accurately as possible!</p>","7","","5","new_stimuli/mp3/melody_^6_v4_v3_^4_^5_.mp3"
"[{""page_index"":0,""viewing_time"":4122.445000335574},{""page_index"":1,""viewing_time"":3763.784999959171},{""page_index"":2,""viewing_time"":1354.9799993634224}]","9241.42500013113","instructions","166","1371286","0.0-18.0","7622","","","","","",""
"","null","audio-keyboard-response","167","1382852","0.0-19.0-0.0","7622","","new_stimuli/mp3/melody_^5_^6_v5_v4_v3_v2_v1_buffer.mp3","","null","",""
"","1432.5800007209182","html-button-response","168","1384288","0.0-19.0-1.0","7622","","<p>Which tone was played first after the cadence?</p><p>Please respond as quickly and as accurately as possible!</p>","7","","1","new_stimuli/mp3/melody_^5_^6_v5_v4_v3_v2_v1_buffer.mp3"
"","900.1949997618794","html-button-response","169","1385192","0.0-19.0-2.0","7622","","<p>Which tone was played second after the cadence?</p><p>Please respond as quickly and as accurately as possible!</p>","9","","2","new_stimuli/mp3/melody_^5_^6_v5_v4_v3_v2_v1_buffer.mp3"
"","1050.5500007420778","html-button-response","170","1386247","0.0-19.0-3.0","7622","","<p>Which tone was played third after the cadence?</p><p>Please respond as quickly and as accurately as possible!</p>","7","","3","new_stimuli/mp3/melody_^5_^6_v5_v4_v3_v2_v1_buffer.mp3"
"","1000.4700003191829","html-button-response","171","1387259","0.0-19.0-4.0","7622","","<p>Which tone was played fourth after the cadence?</p><p>Please respond as quickly and as accurately as possible!</p>","5","","4","new_stimuli/mp3/melody_^5_^6_v5_v4_v3_v2_v1_buffer.mp3"
"","721.5799996629357","html-button-response","172","1387984","0.0-19.0-5.0","7622","","<p>Which tone was played fifth after the cadence?</p><p>Please respond as quickly and as accurately as possible!</p>","4","","5","new_stimuli/mp3/melody_^5_^6_v5_v4_v3_v2_v1_buffer.mp3"
"","1016.330000013113","html-button-response","173","1389002","0.0-19.0-6.0","7622","","<p>Which tone was played sixth after the cadence?</p><p>Please respond as quickly and as accurately as possible!</p>","2","","6","new_stimuli/mp3/melody_^5_^6_v5_v4_v3_v2_v1_buffer.mp3"
"","948.3599998056889","html-button-response","174","1389952","0.0-19.0-7.0","7622","","<p>Which tone was played seventh after the cadence?</p><p>Please respond as quickly and as accurately as possible!</p>","0","","7","new_stimuli/mp3/melody_^5_^6_v5_v4_v3_v2_v1_buffer.mp3"
"","null","audio-keyboard-response","175","1401602","0.0-19.0-0.1","7622","","new_stimuli/mp3/melody_^6_v5+_v4_^5+_v3_v1_v7-_.mp3","","null","",""
"","4616.584999486804","html-button-response","176","1406220","0.0-19.0-1.1","7622","","<p>Which tone was played first after the cadence?</p><p>Please respond as quickly and as accurately as possible!</p>","8","","1","new_stimuli/mp3/melody_^6_v5+_v4_^5+_v3_v1_v7-_.mp3"
"","1126.3350006192923","html-button-response","177","1407347","0.0-19.0-2.1","7622","","<p>Which tone was played second after the cadence?</p><p>Please respond as quickly and as accurately as possible!</p>","7","","2","new_stimuli/mp3/melody_^6_v5+_v4_^5+_v3_v1_v7-_.mp3"
"","5731.540000066161","html-button-response","178","1413079","0.0-19.0-3.1","7622","","<p>Which tone was played third after the cadence?</p><p>Please respond as quickly and as accurately as possible!</p>","4","","3","new_stimuli/mp3/melody_^6_v5+_v4_^5+_v3_v1_v7-_.mp3"
"","1319.310000166297","html-button-response","179","1414400","0.0-19.0-4.1","7622","","<p>Which tone was played fourth after the cadence?</p><p>Please respond as quickly and as accurately as possible!</p>","8","","4","new_stimuli/mp3/melody_^6_v5+_v4_^5+_v3_v1_v7-_.mp3"
"","1215.1100002229214","html-button-response","180","1415617","0.0-19.0-5.1","7622","","<p>Which tone was played fifth after the cadence?</p><p>Please respond as quickly and as accurately as possible!</p>","7","","5","new_stimuli/mp3/melody_^6_v5+_v4_^5+_v3_v1_v7-_.mp3"
"","5707.560000009835","html-button-response","181","1421325","0.0-19.0-6.1","7622","","<p>Which tone was played sixth after the cadence?</p><p>Please respond as quickly and as accurately as possible!</p>","3","","6","new_stimuli/mp3/melody_^6_v5+_v4_^5+_v3_v1_v7-_.mp3"
"","1116.499999538064","html-button-response","182","1422444","0.0-19.0-7.1","7622","","<p>Which tone was played seventh after the cadence?</p><p>Please respond as quickly and as accurately as possible!</p>","1","","7","new_stimuli/mp3/melody_^6_v5+_v4_^5+_v3_v1_v7-_.mp3"
"","null","audio-keyboard-response","183","1434151","0.0-19.0-0.2","7622","","new_stimuli/mp3/melody_^1_v7_v6_v5_v4_v3_v2_buffer.mp3","","null","",""
"","1738.6549999937415","html-button-response","184","1435891","0.0-19.0-1.2","7622","","<p>Which tone was played first after the cadence?</p><p>Please respond as quickly and as accurately as possible!</p>","12","","1","new_stimuli/mp3/melody_^1_v7_v6_v5_v4_v3_v2_buffer.mp3"
"","975.9600004181266","html-button-response","185","1436869","0.0-19.0-2.2","7622","","<p>Which tone was played second after the cadence?</p><p>Please respond as quickly and as accurately as possible!</p>","11","","2","new_stimuli/mp3/melody_^1_v7_v6_v5_v4_v3_v2_buffer.mp3"
"","937.7949992194772","html-button-response","186","1437808","0.0-19.0-3.2","7622","","<p>Which tone was played third after the cadence?</p><p>Please respond as quickly and as accurately as possible!</p>","9","","3","new_stimuli/mp3/melody_^1_v7_v6_v5_v4_v3_v2_buffer.mp3"
"","957.5849995017052","html-button-response","187","1438767","0.0-19.0-4.2","7622","","<p>Which tone was played fourth after the cadence?</p><p>Please respond as quickly and as accurately as possible!</p>","7","","4","new_stimuli/mp3/melody_^1_v7_v6_v5_v4_v3_v2_buffer.mp3"
"","1067.6850005984306","html-button-response","188","1439836","0.0-19.0-5.2","7622","","<p>Which tone was played fifth after the cadence?</p><p>Please respond as quickly and as accurately as possible!</p>","5","","5","new_stimuli/mp3/melody_^1_v7_v6_v5_v4_v3_v2_buffer.mp3"
"","970.1100001111627","html-button-response","189","1440807","0.0-19.0-6.2","7622","","<p>Which tone was played sixth after the cadence?</p><p>Please respond as quickly and as accurately as possible!</p>","4","","6","new_stimuli/mp3/melody_^1_v7_v6_v5_v4_v3_v2_buffer.mp3"
"","1094.760000705719","html-button-response","190","1441903","0.0-19.0-7.2","7622","","<p>Which tone was played seventh after the cadence?</p><p>Please respond as quickly and as accurately as possible!</p>","2","","7","new_stimuli/mp3/melody_^1_v7_v6_v5_v4_v3_v2_buffer.mp3"
"","null","audio-keyboard-response","191","1453582","0.0-19.0-0.3","7622","","new_stimuli/mp3/melody_^4_v6-_v5-_^6-_^4_v2-_2-_.mp3","","null","",""
"","11964.030000381172","html-button-response","192","1465547","0.0-19.0-1.3","7622","","<p>Which tone was played first after the cadence?</p><p>Please respond as quickly and as accurately as possible!</p>","8","","1","new_stimuli/mp3/melody_^4_v6-_v5-_^6-_^4_v2-_2-_.mp3"
"","5213.545000180602","html-button-response","193","1470763","0.0-19.0-2.3","7622","","<p>Which tone was played second after the cadence?</p><p>Please respond as quickly and as accurately as possible!</p>","3","","2","new_stimuli/mp3/melody_^4_v6-_v5-_^6-_^4_v2-_2-_.mp3"
"","1726.494999602437","html-button-response","194","1472491","0.0-19.0-3.3","7622","","<p>Which tone was played third after the cadence?</p><p>Please respond as quickly and as accurately as possible!</p>","7","","3","new_stimuli/mp3/melody_^4_v6-_v5-_^6-_^4_v2-_2-_.mp3"
"","6206.545000895858","html-button-response","195","1478697","0.0-19.0-4.3","7622","","<p>Which tone was played fourth after the cadence?</p><p>Please respond as quickly and as accurately as possible!</p>","3","","4","new_stimuli/mp3/melody_^4_v6-_v5-_^6-_^4_v2-_2-_.mp3"
"","6831.919999793172","html-button-response","196","1485531","0.0-19.0-5.3","7622","","<p>Which tone was played fifth after the cadence?</p><p>Please respond as quickly and as accurately as possible!</p>","4","","5","new_stimuli/mp3/melody_^4_v6-_v5-_^6-_^4_v2-_2-_.mp3"
"","1238.7800002470613","html-button-response","197","1486771","0.0-19.0-6.3","7622","","<p>Which tone was played sixth after the cadence?</p><p>Please respond as quickly and as accurately as possible!</p>","0","","6","new_stimuli/mp3/melody_^4_v6-_v5-_^6-_^4_v2-_2-_.mp3"
"","668.8200002536178","html-button-response","198","1487442","0.0-19.0-7.3","7622","","<p>Which tone was played seventh after the cadence?</p><p>Please respond as quickly and as accurately as possible!</p>","0","","7","new_stimuli/mp3/melody_^4_v6-_v5-_^6-_^4_v2-_2-_.mp3"
"","null","audio-keyboard-response","199","1499138","0.0-19.0-0.4","7622","","new_stimuli/mp3/melody_^4_^5_^6_v5_v4_v3_v2_.mp3","","null","",""
"","8888.389999978244","html-button-response","200","1508028","0.0-19.0-1.4","7622","","<p>Which tone was played first after the cadence?</p><p>Please respond as quickly and as accurately as possible!</p>","4","","1","new_stimuli/mp3/melody_^4_^5_^6_v5_v4_v3_v2_.mp3"
"","1526.3449996709824","html-button-response","201","1509557","0.0-19.0-2.4","7622","","<p>Which tone was played second after the cadence?</p><p>Please respond as quickly and as accurately as possible!</p>","5","","2","new_stimuli/mp3/melody_^4_^5_^6_v5_v4_v3_v2_.mp3"
"","1213.2700001820922","html-button-response","202","1510783","0.0-19.0-3.4","7622","","<p>Which tone was played third after the cadence?</p><p>Please respond as quickly and as accurately as possible!</p>","7","","3","new_stimuli/mp3/melody_^4_^5_^6_v5_v4_v3_v2_.mp3"
"","1328.5649996250868","html-button-response","203","1512113","0.0-19.0-4.4","7622","","<p>Which tone was played fourth after the cadence?</p><p>Please respond as quickly and as accurately as possible!</p>","5","","4","new_stimuli/mp3/melody_^4_^5_^6_v5_v4_v3_v2_.mp3"
"","915.9200005233288","html-button-response","204","1513030","0.0-19.0-5.4","7622","","<p>Which tone was played fifth after the cadence?</p><p>Please respond as quickly and as accurately as possible!</p>","4","","5","new_stimuli/mp3/melody_^4_^5_^6_v5_v4_v3_v2_.mp3"
"","2146.750000305474","html-button-response","205","1515178","0.0-19.0-6.4","7622","","<p>Which tone was played sixth after the cadence?</p><p>Please respond as quickly and as accurately as possible!</p>","2","","6","new_stimuli/mp3/melody_^4_^5_^6_v5_v4_v3_v2_.mp3"
"","2539.84999936074","html-button-response","206","1517720","0.0-19.0-7.4","7622","","<p>Which tone was played seventh after the cadence?</p><p>Please respond as quickly and as accurately as possible!</p>","2","","7","new_stimuli/mp3/melody_^4_^5_^6_v5_v4_v3_v2_.mp3"
"","null","audio-keyboard-response","207","1529429","0.0-19.0-0.5","7622","","new_stimuli/mp3/melody_v1_^2_v1_v7_^1_^3_v2_.mp3","","null","",""
"","3704.874999821186","html-button-response","208","1533136","0.0-19.0-1.5","7622","","<p>Which tone was played first after the cadence?</p><p>Please respond as quickly and as accurately as possible!</p>","0","","1","new_stimuli/mp3/melody_v1_^2_v1_v7_^1_^3_v2_.mp3"
"","1155.6599996984005","html-button-response","209","1534294","0.0-19.0-2.5","7622","","<p>Which tone was played second after the cadence?</p><p>Please respond as quickly and as accurately as possible!</p>","2","","2","new_stimuli/mp3/melody_v1_^2_v1_v7_^1_^3_v2_.mp3"
"","1050.8050005882978","html-button-response","210","1535347","0.0-19.0-3.5","7622","","<p>Which tone was played third after the cadence?</p><p>Please respond as quickly and as accurately as possible!</p>","0","","3","new_stimuli/mp3/melody_v1_^2_v1_v7_^1_^3_v2_.mp3"
"","3062.1699998155236","html-button-response","211","1538412","0.0-19.0-4.5","7622","","<p>Which tone was played fourth after the cadence?</p><p>Please respond as quickly and as accurately as possible!</p>","11","","4","new_stimuli/mp3/melody_v1_^2_v1_v7_^1_^3_v2_.mp3"
"","1658.6699998006225","html-button-response","212","1540076","0.0-19.0-5.5","7622","","<p>Which tone was played fifth after the cadence?</p><p>Please respond as quickly and as accurately as possible!</p>","0","","5","new_stimuli/mp3/melody_v1_^2_v1_v7_^1_^3_v2_.mp3"
"","1255.099999718368","html-button-response","213","1541333","0.0-19.0-6.5","7622","","<p>Which tone was played sixth after the cadence?</p><p>Please respond as quickly and as accurately as possible!</p>","4","","6","new_stimuli/mp3/melody_v1_^2_v1_v7_^1_^3_v2_.mp3"
"","1348.0600006878376","html-button-response","214","1542683","0.0-19.0-7.5","7622","","<p>Which tone was played seventh after the cadence?</p><p>Please respond as quickly and as accurately as possible!</p>","0","","7","new_stimuli/mp3/melody_v1_^2_v1_v7_^1_^3_v2_.mp3"
"","null","audio-keyboard-response","215","1554652","0.0-19.0-0.6","7622","","new_stimuli/mp3/melody_1_^3_v1_^5_v3_v2_^3_.mp3","","null","",""
"","1913.8650000095367","html-button-response","216","1556569","0.0-19.0-1.6","7622","","<p>Which tone was played first after the cadence?</p><p>Please respond as quickly and as accurately as possible!</p>","0","","1","new_stimuli/mp3/melody_1_^3_v1_^5_v3_v2_^3_.mp3"
"","1777.6449993252754","html-button-response","217","1558348","0.0-19.0-2.6","7622","","<p>Which tone was played second after the cadence?</p><p>Please respond as quickly and as accurately as possible!</p>","4","","2","new_stimuli/mp3/melody_1_^3_v1_^5_v3_v2_^3_.mp3"
"","1416.7050002142787","html-button-response","218","1559766","0.0-19.0-3.6","7622","","<p>Which tone was played third after the cadence?</p><p>Please respond as quickly and as accurately as possible!</p>","0","","3","new_stimuli/mp3/melody_1_^3_v1_^5_v3_v2_^3_.mp3"
"","5100.9299997240305","html-button-response","219","1564869","0.0-19.0-4.6","7622","","<p>Which tone was played fourth after the cadence?</p><p>Please respond as quickly and as accurately as possible!</p>","5","","4","new_stimuli/mp3/melody_1_^3_v1_^5_v3_v2_^3_.mp3"
"","1040.8399999141693","html-button-response","220","1565911","0.0-19.0-5.6","7622","","<p>Which tone was played fifth after the cadence?</p><p>Please respond as quickly and as accurately as possible!</p>","4","","5","new_stimuli/mp3/melody_1_^3_v1_^5_v3_v2_^3_.mp3"
"","1009.4200000166893","html-button-response","221","1566922","0.0-19.0-6.6","7622","","<p>Which tone was played sixth after the cadence?</p><p>Please respond as quickly and as accurately as possible!</p>","2","","6","new_stimuli/mp3/melody_1_^3_v1_^5_v3_v2_^3_.mp3"
"","893.5050005093217","html-button-response","222","1567817","0.0-19.0-7.6","7622","","<p>Which tone was played seventh after the cadence?</p><p>Please respond as quickly and as accurately as possible!</p>","4","","7","new_stimuli/mp3/melody_1_^3_v1_^5_v3_v2_^3_.mp3"
"[{""page_index"":0,""viewing_time"":50957.430000416934},{""page_index"":1,""viewing_time"":4281.65000025183},{""page_index"":2,""viewing_time"":1846.539999358356}]","57085.93500033021","instructions","223","1624904","0.0-20.0","7622","","","","","",""
"","null","audio-keyboard-response","224","1637530","0.0-21.0-0.0","7622","","new_stimuli/mp3/melody_^3_^4_^5 _^6_v5_v4_v3_v2_v1_.mp3","","null","",""
"","2018.3049999177456","html-button-response","225","1639550","0.0-21.0-1.0","7622","","<p>Which tone was played first after the cadence?</p><p>Please respond as quickly and as accurately as possible!</p>","4","","1","new_stimuli/mp3/melody_^3_^4_^5 _^6_v5_v4_v3_v2_v1_.mp3"
"","879.4900001958013","html-button-response","226","1640434","0.0-21.0-2.0","7622","","<p>Which tone was played second after the cadence?</p><p>Please respond as quickly and as accurately as possible!</p>","5","","2","new_stimuli/mp3/melody_^3_^4_^5 _^6_v5_v4_v3_v2_v1_.mp3"
"","1049.9149998649955","html-button-response","227","1641487","0.0-21.0-3.0","7622","","<p>Which tone was played third after the cadence?</p><p>Please respond as quickly and as accurately as possible!</p>","7","","3","new_stimuli/mp3/melody_^3_^4_^5 _^6_v5_v4_v3_v2_v1_.mp3"
"","3447.235000319779","html-button-response","228","1644936","0.0-21.0-4.0","7622","","<p>Which tone was played fourth after the cadence?</p><p>Please respond as quickly and as accurately as possible!</p>","9","","4","new_stimuli/mp3/melody_^3_^4_^5 _^6_v5_v4_v3_v2_v1_.mp3"
"","832.2550002485514","html-button-response","229","1645770","0.0-21.0-5.0","7622","","<p>Which tone was played fifth after the cadence?</p><p>Please respond as quickly and as accurately as possible!</p>","7","","5","new_stimuli/mp3/melody_^3_^4_^5 _^6_v5_v4_v3_v2_v1_.mp3"
"","861.7000002413988","html-button-response","230","1646633","0.0-21.0-6.0","7622","","<p>Which tone was played sixth after the cadence?</p><p>Please respond as quickly and as accurately as possible!</p>","5","","6","new_stimuli/mp3/melody_^3_^4_^5 _^6_v5_v4_v3_v2_v1_.mp3"
"","652.8799999505281","html-button-response","231","1647287","0.0-21.0-7.0","7622","","<p>Which tone was played seventh after the cadence?</p><p>Please respond as quickly and as accurately as possible!</p>","4","","7","new_stimuli/mp3/melody_^3_^4_^5 _^6_v5_v4_v3_v2_v1_.mp3"
"","1741.5199996903539","html-button-response","232","1649029","0.0-21.0-8.0","7622","","<p>Which tone was played eight after the cadence?</p><p>Please respond as quickly and as accurately as possible!</p>","2","","8","new_stimuli/mp3/melody_^3_^4_^5 _^6_v5_v4_v3_v2_v1_.mp3"
"","1023.05500023067","html-button-response","233","1650054","0.0-21.0-9.0","7622","","<p>Which tone was played nineth after the cadence?</p><p>Please respond as quickly and as accurately as possible!</p>","0","","9","new_stimuli/mp3/melody_^3_^4_^5 _^6_v5_v4_v3_v2_v1_.mp3"
"","null","audio-keyboard-response","234","1662700","0.0-21.0-0.1","7622","","new_stimuli/mp3/melody_v5_v4_v6+_^7_^3+_v3_v2_v5_^4_.mp3","","null","",""
"","8245.090000331402","html-button-response","235","1670946","0.0-21.0-1.1","7622","","<p>Which tone was played first after the cadence?</p><p>Please respond as quickly and as accurately as possible!</p>","7","","1","new_stimuli/mp3/melody_v5_v4_v6+_^7_^3+_v3_v2_v5_^4_.mp3"
"","1441.4750002324581","html-button-response","236","1672391","0.0-21.0-2.1","7622","","<p>Which tone was played second after the cadence?</p><p>Please respond as quickly and as accurately as possible!</p>","5","","2","new_stimuli/mp3/melody_v5_v4_v6+_^7_^3+_v3_v2_v5_^4_.mp3"
"","1062.3949998989701","html-button-response","237","1673454","0.0-21.0-3.1","7622","","<p>Which tone was played third after the cadence?</p><p>Please respond as quickly and as accurately as possible!</p>","4","","3","new_stimuli/mp3/melody_v5_v4_v6+_^7_^3+_v3_v2_v5_^4_.mp3"
"","7889.894999563694","html-button-response","238","1681345","0.0-21.0-4.1","7622","","<p>Which tone was played fourth after the cadence?</p><p>Please respond as quickly and as accurately as possible!</p>","8","","4","new_stimuli/mp3/melody_v5_v4_v6+_^7_^3+_v3_v2_v5_^4_.mp3"
"","2229.065000079572","html-button-response","239","1683575","0.0-21.0-5.1","7622","","<p>Which tone was played fifth after the cadence?</p><p>Please respond as quickly and as accurately as possible!</p>","4","","5","new_stimuli/mp3/melody_v5_v4_v6+_^7_^3+_v3_v2_v5_^4_.mp3"
"","1272.8450000286102","html-button-response","240","1684849","0.0-21.0-6.1","7622","","<p>Which tone was played sixth after the cadence?</p><p>Please respond as quickly and as accurately as possible!</p>","2","","6","new_stimuli/mp3/melody_v5_v4_v6+_^7_^3+_v3_v2_v5_^4_.mp3"
"","733.2349997013807","html-button-response","241","1685584","0.0-21.0-7.1","7622","","<p>Which tone was played seventh after the cadence?</p><p>Please respond as quickly and as accurately as possible!</p>","1","","7","new_stimuli/mp3/melody_v5_v4_v6+_^7_^3+_v3_v2_v5_^4_.mp3"
"","3474.97000079602","html-button-response","242","1689060","0.0-21.0-8.1","7622","","<p>Which tone was played eight after the cadence?</p><p>Please respond as quickly and as accurately as possible!</p>","9","","8","new_stimuli/mp3/melody_v5_v4_v6+_^7_^3+_v3_v2_v5_^4_.mp3"
"","828.1100001186132","html-button-response","243","1689890","0.0-21.0-9.1","7622","","<p>Which tone was played nineth after the cadence?</p><p>Please respond as quickly and as accurately as possible!</p>","11","","9","new_stimuli/mp3/melody_v5_v4_v6+_^7_^3+_v3_v2_v5_^4_.mp3"
"","null","audio-keyboard-response","244","1702850","0.0-21.0-0.2","7622","","new_stimuli/mp3/melody_^5_^6_v5_v4_v3_v2_v1_^2_^3_buffer.mp3","","null","",""
"","1078.5250002518296","html-button-response","245","1703932","0.0-21.0-1.2","7622","","<p>Which tone was played first after the cadence?</p><p>Please respond as quickly and as accurately as possible!</p>","7","","1","new_stimuli/mp3/melody_^5_^6_v5_v4_v3_v2_v1_^2_^3_buffer.mp3"
"","815.1749996468425","html-button-response","246","1704749","0.0-21.0-2.2","7622","","<p>Which tone was played second after the cadence?</p><p>Please respond as quickly and as accurately as possible!</p>","9","","2","new_stimuli/mp3/melody_^5_^6_v5_v4_v3_v2_v1_^2_^3_buffer.mp3"
"","907.3399994522333","html-button-response","247","1705658","0.0-21.0-3.2","7622","","<p>Which tone was played third after the cadence?</p><p>Please respond as quickly and as accurately as possible!</p>","7","","3","new_stimuli/mp3/melody_^5_^6_v5_v4_v3_v2_v1_^2_^3_buffer.mp3"
"","883.0399997532368","html-button-response","248","1706542","0.0-21.0-4.2","7622","","<p>Which tone was played fourth after the cadence?</p><p>Please respond as quickly and as accurately as possible!</p>","5","","4","new_stimuli/mp3/melody_^5_^6_v5_v4_v3_v2_v1_^2_^3_buffer.mp3"
"","752.6249997317791","html-button-response","249","1707296","0.0-21.0-5.2","7622","","<p>Which tone was played fifth after the cadence?</p><p>Please respond as quickly and as accurately as possible!</p>","4","","5","new_stimuli/mp3/melody_^5_^6_v5_v4_v3_v2_v1_^2_^3_buffer.mp3"
"","741.8299997225404","html-button-response","250","1708039","0.0-21.0-6.2","7622","","<p>Which tone was played sixth after the cadence?</p><p>Please respond as quickly and as accurately as possible!</p>","2","","6","new_stimuli/mp3/melody_^5_^6_v5_v4_v3_v2_v1_^2_^3_buffer.mp3"
"","923.7500000745058","html-button-response","251","1708964","0.0-21.0-7.2","7622","","<p>Which tone was played seventh after the cadence?</p><p>Please respond as quickly and as accurately as possible!</p>","0","","7","new_stimuli/mp3/melody_^5_^6_v5_v4_v3_v2_v1_^2_^3_buffer.mp3"
"","737.6450002193451","html-button-response","252","1709703","0.0-21.0-8.2","7622","","<p>Which tone was played eight after the cadence?</p><p>Please respond as quickly and as accurately as possible!</p>","2","","8","new_stimuli/mp3/melody_^5_^6_v5_v4_v3_v2_v1_^2_^3_buffer.mp3"
"","812.0999997481704","html-button-response","253","1710516","0.0-21.0-9.2","7622","","<p>Which tone was played nineth after the cadence?</p><p>Please respond as quickly and as accurately as possible!</p>","4","","9","new_stimuli/mp3/melody_^5_^6_v5_v4_v3_v2_v1_^2_^3_buffer.mp3"
"","null","audio-keyboard-response","254","1723209","0.0-21.0-0.3","7622","","new_stimuli/mp3/melody_^2_^3_^4_^5_^6_v5_v4_v3_v2_buffer.mp3","","null","",""
"","1385.5850007385015","html-button-response","255","1724596","0.0-21.0-1.3","7622","","<p>Which tone was played first after the cadence?</p><p>Please respond as quickly and as accurately as possible!</p>","0","","1","new_stimuli/mp3/melody_^2_^3_^4_^5_^6_v5_v4_v3_v2_buffer.mp3"
"","1003.0500004068017","html-button-response","256","1725601","0.0-21.0-2.3","7622","","<p>Which tone was played second after the cadence?</p><p>Please respond as quickly and as accurately as possible!</p>","2","","2","new_stimuli/mp3/melody_^2_^3_^4_^5_^6_v5_v4_v3_v2_buffer.mp3"
"","883.6849993094802","html-button-response","257","1726486","0.0-21.0-3.3","7622","","<p>Which tone was played third after the cadence?</p><p>Please respond as quickly and as accurately as possible!</p>","3","","3","new_stimuli/mp3/melody_^2_^3_^4_^5_^6_v5_v4_v3_v2_buffer.mp3"
"","766.7449992150068","html-button-response","258","1727254","0.0-21.0-4.3","7622","","<p>Which tone was played fourth after the cadence?</p><p>Please respond as quickly and as accurately as possible!</p>","5","","4","new_stimuli/mp3/melody_^2_^3_^4_^5_^6_v5_v4_v3_v2_buffer.mp3"
"","943.9649991691113","html-button-response","259","1728199","0.0-21.0-5.3","7622","","<p>Which tone was played fifth after the cadence?</p><p>Please respond as quickly and as accurately as possible!</p>","7","","5","new_stimuli/mp3/melody_^2_^3_^4_^5_^6_v5_v4_v3_v2_buffer.mp3"
"","896.7200005427003","html-button-response","260","1729097","0.0-21.0-6.3","7622","","<p>Which tone was played sixth after the cadence?</p><p>Please respond as quickly and as accurately as possible!</p>","5","","6","new_stimuli/mp3/melody_^2_^3_^4_^5_^6_v5_v4_v3_v2_buffer.mp3"
"","2472.2600001841784","html-button-response","261","1731571","0.0-21.0-7.3","7622","","<p>Which tone was played seventh after the cadence?</p><p>Please respond as quickly and as accurately as possible!</p>","3","","7","new_stimuli/mp3/melody_^2_^3_^4_^5_^6_v5_v4_v3_v2_buffer.mp3"
"","762.9850003868341","html-button-response","262","1732335","0.0-21.0-8.3","7622","","<p>Which tone was played eight after the cadence?</p><p>Please respond as quickly and as accurately as possible!</p>","2","","8","new_stimuli/mp3/melody_^2_^3_^4_^5_^6_v5_v4_v3_v2_buffer.mp3"
"","1063.480000011623","html-button-response","263","1733400","0.0-21.0-9.3","7622","","<p>Which tone was played nineth after the cadence?</p><p>Please respond as quickly and as accurately as possible!</p>","0","","9","new_stimuli/mp3/melody_^2_^3_^4_^5_^6_v5_v4_v3_v2_buffer.mp3"
"","null","audio-keyboard-response","264","1746050","0.0-21.0-0.4","7622","","new_stimuli/mp3/melody_^3_^4_v2_v7_^1_^2_^3_3_^4_.mp3","","null","",""
"","5828.119999729097","html-button-response","265","1751881","0.0-21.0-1.4","7622","","<p>Which tone was played first after the cadence?</p><p>Please respond as quickly and as accurately as possible!</p>","4","","1","new_stimuli/mp3/melody_^3_^4_v2_v7_^1_^2_^3_3_^4_.mp3"
"","781.2899993732572","html-button-response","266","1752664","0.0-21.0-2.4","7622","","<p>Which tone was played second after the cadence?</p><p>Please respond as quickly and as accurately as possible!</p>","5","","2","new_stimuli/mp3/melody_^3_^4_v2_v7_^1_^2_^3_3_^4_.mp3"
"","1008.5150003433228","html-button-response","267","1753674","0.0-21.0-3.4","7622","","<p>Which tone was played third after the cadence?</p><p>Please respond as quickly and as accurately as possible!</p>","4","","3","new_stimuli/mp3/melody_^3_^4_v2_v7_^1_^2_^3_3_^4_.mp3"
"","5040.160000324249","html-button-response","268","1758715","0.0-21.0-4.4","7622","","<p>Which tone was played fourth after the cadence?</p><p>Please respond as quickly and as accurately as possible!</p>","7","","4","new_stimuli/mp3/melody_^3_^4_v2_v7_^1_^2_^3_3_^4_.mp3"
"","2175.7950000464916","html-button-response","269","1760893","0.0-21.0-5.4","7622","","<p>Which tone was played fifth after the cadence?</p><p>Please respond as quickly and as accurately as possible!</p>","9","","5","new_stimuli/mp3/melody_^3_^4_v2_v7_^1_^2_^3_3_^4_.mp3"
"","893.0700002238154","html-button-response","270","1761787","0.0-21.0-6.4","7622","","<p>Which tone was played sixth after the cadence?</p><p>Please respond as quickly and as accurately as possible!</p>","11","","6","new_stimuli/mp3/melody_^3_^4_v2_v7_^1_^2_^3_3_^4_.mp3"
"","1062.4500000849366","html-button-response","271","1762851","0.0-21.0-7.4","7622","","<p>Which tone was played seventh after the cadence?</p><p>Please respond as quickly and as accurately as possible!</p>","12","","7","new_stimuli/mp3/melody_^3_^4_v2_v7_^1_^2_^3_3_^4_.mp3"
"","1297.7749994024634","html-button-response","272","1764150","0.0-21.0-8.4","7622","","<p>Which tone was played eight after the cadence?</p><p>Please respond as quickly and as accurately as possible!</p>","12","","8","new_stimuli/mp3/melody_^3_^4_v2_v7_^1_^2_^3_3_^4_.mp3"
"","2051.600000821054","html-button-response","273","1766203","0.0-21.0-9.4","7622","","<p>Which tone was played nineth after the cadence?</p><p>Please respond as quickly and as accurately as possible!</p>","3","","9","new_stimuli/mp3/melody_^3_^4_v2_v7_^1_^2_^3_3_^4_.mp3"
"","null","audio-keyboard-response","274","1778849","0.0-21.0-0.5","7622","","new_stimuli/mp3/melody_v7_v6_v5_^6_v5_v4_^5_^6_v5_.mp3","","null","",""
"","4410.619999282062","html-button-response","275","1783263","0.0-21.0-1.5","7622","","<p>Which tone was played first after the cadence?</p><p>Please respond as quickly and as accurately as possible!</p>","12","","1","new_stimuli/mp3/melody_v7_v6_v5_^6_v5_v4_^5_^6_v5_.mp3"
"","704.4449998065829","html-button-response","276","1783969","0.0-21.0-2.5","7622","","<p>Which tone was played second after the cadence?</p><p>Please respond as quickly and as accurately as possible!</p>","11","","2","new_stimuli/mp3/melody_v7_v6_v5_^6_v5_v4_^5_^6_v5_.mp3"
"","951.8800005316734","html-button-response","277","1784922","0.0-21.0-3.5","7622","","<p>Which tone was played third after the cadence?</p><p>Please respond as quickly and as accurately as possible!</p>","9","","3","new_stimuli/mp3/melody_v7_v6_v5_^6_v5_v4_^5_^6_v5_.mp3"
"","833.4949994459748","html-button-response","278","1785757","0.0-21.0-4.5","7622","","<p>Which tone was played fourth after the cadence?</p><p>Please respond as quickly and as accurately as possible!</p>","7","","4","new_stimuli/mp3/melody_v7_v6_v5_^6_v5_v4_^5_^6_v5_.mp3"
"","1986.280000768602","html-button-response","279","1787744","0.0-21.0-5.5","7622","","<p>Which tone was played fifth after the cadence?</p><p>Please respond as quickly and as accurately as possible!</p>","9","","5","new_stimuli/mp3/melody_v7_v6_v5_^6_v5_v4_^5_^6_v5_.mp3"
"","892.2899998724461","html-button-response","280","1788637","0.0-21.0-6.5","7622","","<p>Which tone was played sixth after the cadence?</p><p>Please respond as quickly and as accurately as possible!</p>","11","","6","new_stimuli/mp3/melody_v7_v6_v5_^6_v5_v4_^5_^6_v5_.mp3"
"","817.7600000053644","html-button-response","281","1789456","0.0-21.0-7.5","7622","","<p>Which tone was played seventh after the cadence?</p><p>Please respond as quickly and as accurately as possible!</p>","9","","7","new_stimuli/mp3/melody_v7_v6_v5_^6_v5_v4_^5_^6_v5_.mp3"
"","938.2800003513694","html-button-response","282","1790396","0.0-21.0-8.5","7622","","<p>Which tone was played eight after the cadence?</p><p>Please respond as quickly and as accurately as possible!</p>","9","","8","new_stimuli/mp3/melody_v7_v6_v5_^6_v5_v4_^5_^6_v5_.mp3"
"","1332.4950002133846","html-button-response","283","1791730","0.0-21.0-9.5","7622","","<p>Which tone was played nineth after the cadence?</p><p>Please respond as quickly and as accurately as possible!</p>","12","","9","new_stimuli/mp3/melody_v7_v6_v5_^6_v5_v4_^5_^6_v5_.mp3"
"","null","audio-keyboard-response","284","1804660","0.0-21.0-0.6","7622","","new_stimuli/mp3/melody_^2_^4_v3_v2_v1_v3_v2+_^3_^5+_.mp3","","null","",""
"","2852.7199998497963","html-button-response","285","1807514","0.0-21.0-1.6","7622","","<p>Which tone was played first after the cadence?</p><p>Please respond as quickly and as accurately as possible!</p>","0","","1","new_stimuli/mp3/melody_^2_^4_v3_v2_v1_v3_v2+_^3_^5+_.mp3"
"","1933.3049999549985","html-button-response","286","1809449","0.0-21.0-2.6","7622","","<p>Which tone was played second after the cadence?</p><p>Please respond as quickly and as accurately as possible!</p>","5","","2","new_stimuli/mp3/melody_^2_^4_v3_v2_v1_v3_v2+_^3_^5+_.mp3"
"","702.2949997335672","html-button-response","287","1810152","0.0-21.0-3.6","7622","","<p>Which tone was played third after the cadence?</p><p>Please respond as quickly and as accurately as possible!</p>","4","","3","new_stimuli/mp3/melody_^2_^4_v3_v2_v1_v3_v2+_^3_^5+_.mp3"
"","1552.4649992585182","html-button-response","288","1811706","0.0-21.0-4.6","7622","","<p>Which tone was played fourth after the cadence?</p><p>Please respond as quickly and as accurately as possible!</p>","2","","4","new_stimuli/mp3/melody_^2_^4_v3_v2_v1_v3_v2+_^3_^5+_.mp3"
"","1301.7300004139543","html-button-response","289","1813009","0.0-21.0-5.6","7622","","<p>Which tone was played fifth after the cadence?</p><p>Please respond as quickly and as accurately as possible!</p>","0","","5","new_stimuli/mp3/melody_^2_^4_v3_v2_v1_v3_v2+_^3_^5+_.mp3"
"","2876.0200003162026","html-button-response","290","1815886","0.0-21.0-6.6","7622","","<p>Which tone was played sixth after the cadence?</p><p>Please respond as quickly and as accurately as possible!</p>","1","","6","new_stimuli/mp3/melody_^2_^4_v3_v2_v1_v3_v2+_^3_^5+_.mp3"
"","1192.4200002104044","html-button-response","291","1817079","0.0-21.0-7.6","7622","","<p>Which tone was played seventh after the cadence?</p><p>Please respond as quickly and as accurately as possible!</p>","3","","7","new_stimuli/mp3/melody_^2_^4_v3_v2_v1_v3_v2+_^3_^5+_.mp3"
"","269.3449994549155","html-button-response","292","1817350","0.0-21.0-8.6","7622","","<p>Which tone was played eight after the cadence?</p><p>Please respond as quickly and as accurately as possible!</p>","3","","8","new_stimuli/mp3/melody_^2_^4_v3_v2_v1_v3_v2+_^3_^5+_.mp3"
"","1151.9799996167421","html-button-response","293","1818503","0.0-21.0-9.6","7622","","<p>Which tone was played nineth after the cadence?</p><p>Please respond as quickly and as accurately as possible!</p>","6","","9","new_stimuli/mp3/melody_^2_^4_v3_v2_v1_v3_v2+_^3_^5+_.mp3"
"","40127.22499947995","survey-text","294","1858631","0.0-22.0","7622","{""Q0"":""singing, using headphones, matching sequences to known patterns""}","","","","",""
"","53177.624999545515","survey-text","295","1911811","0.0-23.0","7622","{""Q0"":""""}","","","","",""
"","12519.994999282062","survey-text","296","1924332","0.0-24.0","7622","{""Q0"":""no""}","","","","",""
"","6461.579999886453","survey-text","297","1930795","0.0-25.0","7622","{""Q0"":""headphones""}","","","","",""
"","3354.509999975562","survey-text","298","1934150","0.0-26.0","7622","{""Q0"":""male""}","","","","",""
"","3746.4999994263053","survey-text","299","1937898","0.0-27.0","7622","{""Q0"":""yes""}","","","","",""
"[{""page_index"":0,""viewing_time"":7149.935000576079}]","7150.170000270009","instructions","300","1945048","0.0-28.0","7622","","","","","",""
