"view_history","rt","trial_type","trial_index","time_elapsed","internal_node_id","subject","responses","stimulus","button_pressed","key_press","response_sequence","melody"
"[{""page_index"":0,""viewing_time"":1590.555000002496},{""page_index"":1,""viewing_time"":5623.1250000419095},{""page_index"":2,""viewing_time"":2233.7099999422207}]","9449.150000000373","instructions","0","9646","0.0-0.0","77740","","","","","",""
"","3515.735000022687","survey-text","1","13167","0.0-1.0","77740","{""Q0"":""39""}","","","","",""
"","6572.805000003427","survey-text","2","19744","0.0-2.0","77740","{""Q0"":""Ph.D.""}","","","","",""
"","3369.3399999756366","survey-text","3","23115","0.0-3.0","77740","{""Q0"":""moveable""}","","","","",""
"","2174.4500000495464","survey-text","4","25292","0.0-4.0","77740","{""Q0"":""no""}","","","","",""
"","48036.07499995269","survey-text","5","73331","0.0-5.0","77740","{""Q0"":""took 3, taught over 30""}","","","","",""
"","42806.25000002328","survey-text","6","116140","0.0-6.0","77740","{""Q0"":""11""}","","","","",""
"[{""page_index"":0,""viewing_time"":1713.8399999821559},{""page_index"":1,""viewing_time"":1715.5999999959022},{""page_index"":2,""viewing_time"":1311.1750000389293}]","4741.165000014007","instructions","7","120882","0.0-7.0","77740","","","","","",""
"","7389.424999943003","audio-button-response","8","128280","0.0-8.0","77740","","stimuli/long/c-do.mp3","0","","",""
"","7213.179999962449","audio-button-response","9","135497","0.0-9.0","77740","","stimuli/long/a-le.mp3","8","","",""
"[{""page_index"":0,""viewing_time"":1867.6950000226498},{""page_index"":1,""viewing_time"":11489.019999979064}]","13357.279999996535","instructions","10","148855","0.0-10.0","77740","","","","","",""
"","6929.300000076182","audio-button-response","11","155789","0.0-11.0-0.0","77740","","stimuli/long/e-do.mp3","0","","",""
"","7562.724999967031","audio-button-response","12","163356","0.0-11.0-0.1","77740","","stimuli/long/c-sol.mp3","7","","",""
"","10639.16500005871","audio-button-response","13","174000","0.0-11.0-0.2","77740","","stimuli/long/e-te.mp3","10","","",""
"","9594.370000064373","audio-button-response","14","183598","0.0-11.0-0.3","77740","","stimuli/long/e-mi.mp3","4","","",""
"","8305.980000062846","audio-button-response","15","191907","0.0-11.0-0.4","77740","","stimuli/long/c-me.mp3","3","","",""
"","7621.429999941029","audio-button-response","16","199534","0.0-11.0-0.5","77740","","stimuli/long/e-re.mp3","2","","",""
"","8139.379999949597","audio-button-response","17","207675","0.0-11.0-0.6","77740","","stimuli/long/e-fi.mp3","6","","",""
"","8471.435000072233","audio-button-response","18","216148","0.0-11.0-0.7","77740","","stimuli/long/a-sol.mp3","7","","",""
"","7743.970000068657","audio-button-response","19","223894","0.0-11.0-0.8","77740","","stimuli/long/e-ti.mp3","11","","",""
"","7550.000000046566","audio-button-response","20","231445","0.0-11.0-0.9","77740","","stimuli/long/a-ra.mp3","1","","",""
"","9181.585000013001","audio-button-response","21","240629","0.0-11.0-0.10","77740","","stimuli/long/c-ra.mp3","1","","",""
"","10300.66499998793","audio-button-response","22","250932","0.0-11.0-0.11","77740","","stimuli/long/a-te.mp3","10","","",""
"","null","audio-button-response","23","270939","0.0-11.0-0.12","77740","","stimuli/long/a-me.mp3","null","","",""
"","8468.424999970011","audio-button-response","24","279409","0.0-11.0-0.13","77740","","stimuli/long/a-mi.mp3","4","","",""
"","13349.305000039749","audio-button-response","25","292760","0.0-11.0-0.14","77740","","stimuli/long/e-le.mp3","8","","",""
"","8367.680000024848","audio-button-response","26","301129","0.0-11.0-0.15","77740","","stimuli/long/c-fa.mp3","5","","",""
"","7718.495000037365","audio-button-response","27","308849","0.0-11.0-0.16","77740","","stimuli/long/a-do8.mp3","0","","",""
"","8177.535000024363","audio-button-response","28","317029","0.0-11.0-0.17","77740","","stimuli/long/e-do8.mp3","12","","",""
"","9581.445000017993","audio-button-response","29","326612","0.0-11.0-0.18","77740","","stimuli/long/c-la.mp3","9","","",""
"","13181.080000009388","audio-button-response","30","339795","0.0-11.0-0.19","77740","","stimuli/long/a-le.mp3","8","","",""
"","8610.334999975748","audio-button-response","31","348407","0.0-11.0-0.20","77740","","stimuli/long/c-fi.mp3","6","","",""
"","10249.260000069626","audio-button-response","32","358658","0.0-11.0-0.21","77740","","stimuli/long/a-fa.mp3","5","","",""
"","7671.210000058636","audio-button-response","33","366330","0.0-11.0-0.22","77740","","stimuli/long/e-sol.mp3","7","","",""
"","10715.364999952726","audio-button-response","34","377048","0.0-11.0-0.23","77740","","stimuli/long/e-me.mp3","3","","",""
"","7343.179999967106","audio-button-response","35","384392","0.0-11.0-0.24","77740","","stimuli/long/c-mi.mp3","4","","",""
"","8999.30000002496","audio-button-response","36","393393","0.0-11.0-0.25","77740","","stimuli/long/e-fa.mp3","5","","",""
"","7614.839999936521","audio-button-response","37","401010","0.0-11.0-0.26","77740","","stimuli/long/c-ti.mp3","5","","",""
"","9391.59000001382","audio-button-response","38","410403","0.0-11.0-0.27","77740","","stimuli/long/e-ra.mp3","1","","",""
"","7367.38999991212","audio-button-response","39","417772","0.0-11.0-0.28","77740","","stimuli/long/a-do.mp3","0","","",""
"","9801.384999998845","audio-button-response","40","427575","0.0-11.0-0.29","77740","","stimuli/long/a-la.mp3","9","","",""
"","9037.435000063851","audio-button-response","41","436614","0.0-11.0-0.30","77740","","stimuli/long/a-ti.mp3","11","","",""
"","7302.904999931343","audio-button-response","42","443919","0.0-11.0-0.31","77740","","stimuli/long/c-do.mp3","0","","",""
"","15652.584999916144","audio-button-response","43","459573","0.0-11.0-0.32","77740","","stimuli/long/a-re.mp3","2","","",""
"","10601.625000010245","audio-button-response","44","470176","0.0-11.0-0.33","77740","","stimuli/long/c-le.mp3","8","","",""
"","7813.085000030696","audio-button-response","45","477991","0.0-11.0-0.34","77740","","stimuli/long/c-re.mp3","2","","",""
"","10981.789999990724","audio-button-response","46","488975","0.0-11.0-0.35","77740","","stimuli/long/a-fi.mp3","6","","",""
"","7769.009999930859","audio-button-response","47","496747","0.0-11.0-0.36","77740","","stimuli/long/c-do8.mp3","12","","",""
"","9836.224999977276","audio-button-response","48","506585","0.0-11.0-0.37","77740","","stimuli/long/e-la.mp3","9","","",""
"[{""page_index"":0,""viewing_time"":5559.509999933653},{""page_index"":1,""viewing_time"":2075.7650000741705}]","7635.505000012927","instructions","49","514221","0.0-12.0","77740","","","","","",""
"","null","audio-keyboard-response","50","523655","0.0-13.0-0.0","77740","","new_stimuli/mp3/melody_v4_v3_buffer.mp3","","null","",""
"","2667.46000002604","html-button-response","51","526324","0.0-13.0-1.0","77740","","<p>Which tone was played first after the cadence?</p><p>Please respond as quickly and as accurately as possible!</p>","5","","1","new_stimuli/mp3/melody_v4_v3_buffer.mp3"
"","1034.7449999535456","html-button-response","52","527360","0.0-13.0-2.0","77740","","<p>Which tone was played second after the cadence?</p><p>Please respond as quickly and as accurately as possible!</p>","4","","2","new_stimuli/mp3/melody_v4_v3_buffer.mp3"
"","null","audio-keyboard-response","53","536531","0.0-13.0-0.1","77740","","new_stimuli/mp3/melody_v5_v1+_.mp3","","null","",""
"","1129.6149999834597","html-button-response","54","537662","0.0-13.0-1.1","77740","","<p>Which tone was played first after the cadence?</p><p>Please respond as quickly and as accurately as possible!</p>","7","","1","new_stimuli/mp3/melody_v5_v1+_.mp3"
"","1617.2249999362975","html-button-response","55","539280","0.0-13.0-2.1","77740","","<p>Which tone was played second after the cadence?</p><p>Please respond as quickly and as accurately as possible!</p>","1","","2","new_stimuli/mp3/melody_v5_v1+_.mp3"
"","null","audio-keyboard-response","56","548733","0.0-13.0-0.2","77740","","new_stimuli/mp3/melody_v7_v3_buffer.mp3","","null","",""
"","7320.89500001166","html-button-response","57","556056","0.0-13.0-1.2","77740","","<p>Which tone was played first after the cadence?</p><p>Please respond as quickly and as accurately as possible!</p>","11","","1","new_stimuli/mp3/melody_v7_v3_buffer.mp3"
"","2087.015000055544","html-button-response","58","558144","0.0-13.0-2.2","77740","","<p>Which tone was played second after the cadence?</p><p>Please respond as quickly and as accurately as possible!</p>","4","","2","new_stimuli/mp3/melody_v7_v3_buffer.mp3"
"","null","audio-keyboard-response","59","567339","0.0-13.0-0.3","77740","","new_stimuli/mp3/melody_v3_v2_buffer.mp3","","null","",""
"","845.4649999039248","html-button-response","60","568186","0.0-13.0-1.3","77740","","<p>Which tone was played first after the cadence?</p><p>Please respond as quickly and as accurately as possible!</p>","4","","1","new_stimuli/mp3/melody_v3_v2_buffer.mp3"
"","663.0349999759346","html-button-response","61","568850","0.0-13.0-2.3","77740","","<p>Which tone was played second after the cadence?</p><p>Please respond as quickly and as accurately as possible!</p>","2","","2","new_stimuli/mp3/melody_v3_v2_buffer.mp3"
"","null","audio-keyboard-response","62","577916","0.0-13.0-0.4","77740","","new_stimuli/mp3/melody_v2_v1_.mp3","","null","",""
"","750.0500000314787","html-button-response","63","578667","0.0-13.0-1.4","77740","","<p>Which tone was played first after the cadence?</p><p>Please respond as quickly and as accurately as possible!</p>","2","","1","new_stimuli/mp3/melody_v2_v1_.mp3"
"","573.7100000260398","html-button-response","64","579242","0.0-13.0-2.4","77740","","<p>Which tone was played second after the cadence?</p><p>Please respond as quickly and as accurately as possible!</p>","0","","2","new_stimuli/mp3/melody_v2_v1_.mp3"
"","null","audio-keyboard-response","65","588411","0.0-13.0-0.5","77740","","new_stimuli/mp3/melody_^5_^1+_.mp3","","null","",""
"","1872.205000021495","html-button-response","66","590286","0.0-13.0-1.5","77740","","<p>Which tone was played first after the cadence?</p><p>Please respond as quickly and as accurately as possible!</p>","7","","1","new_stimuli/mp3/melody_^5_^1+_.mp3"
"","1633.960000006482","html-button-response","67","591921","0.0-13.0-2.5","77740","","<p>Which tone was played second after the cadence?</p><p>Please respond as quickly and as accurately as possible!</p>","1","","2","new_stimuli/mp3/melody_^5_^1+_.mp3"
"","null","audio-keyboard-response","68","601090","0.0-13.0-0.6","77740","","new_stimuli/mp3/melody_^2_v7-_.mp3","","null","",""
"","1029.5650000916794","html-button-response","69","602121","0.0-13.0-1.6","77740","","<p>Which tone was played first after the cadence?</p><p>Please respond as quickly and as accurately as possible!</p>","2","","1","new_stimuli/mp3/melody_^2_v7-_.mp3"
"","1131.749999942258","html-button-response","70","603254","0.0-13.0-2.6","77740","","<p>Which tone was played second after the cadence?</p><p>Please respond as quickly and as accurately as possible!</p>","10","","2","new_stimuli/mp3/melody_^2_v7-_.mp3"
"","null","audio-keyboard-response","71","612265","0.0-13.0-0.7","77740","","new_stimuli/mp3/melody_^1_^2+_.mp3","","null","",""
"","724.8949999921024","html-button-response","72","612991","0.0-13.0-1.7","77740","","<p>Which tone was played first after the cadence?</p><p>Please respond as quickly and as accurately as possible!</p>","0","","1","new_stimuli/mp3/melody_^1_^2+_.mp3"
"","700.5099999951199","html-button-response","73","613695","0.0-13.0-2.7","77740","","<p>Which tone was played second after the cadence?</p><p>Please respond as quickly and as accurately as possible!</p>","3","","2","new_stimuli/mp3/melody_^1_^2+_.mp3"
"","null","audio-keyboard-response","74","623150","0.0-13.0-0.8","77740","","new_stimuli/mp3/melody_^3_v4+_buffer.mp3","","null","",""
"","3550.470000016503","html-button-response","75","626701","0.0-13.0-1.8","77740","","<p>Which tone was played first after the cadence?</p><p>Please respond as quickly and as accurately as possible!</p>","4","","1","new_stimuli/mp3/melody_^3_v4+_buffer.mp3"
"","775.9799999184906","html-button-response","76","627479","0.0-13.0-2.8","77740","","<p>Which tone was played second after the cadence?</p><p>Please respond as quickly and as accurately as possible!</p>","6","","2","new_stimuli/mp3/melody_^3_v4+_buffer.mp3"
"","null","audio-keyboard-response","77","636774","0.0-13.0-0.9","77740","","new_stimuli/mp3/melody_3_^6_buffer.mp3","","null","",""
"","1252.3049999726936","html-button-response","78","638028","0.0-13.0-1.9","77740","","<p>Which tone was played first after the cadence?</p><p>Please respond as quickly and as accurately as possible!</p>","4","","1","new_stimuli/mp3/melody_3_^6_buffer.mp3"
"","1462.7899999031797","html-button-response","79","639493","0.0-13.0-2.9","77740","","<p>Which tone was played second after the cadence?</p><p>Please respond as quickly and as accurately as possible!</p>","9","","2","new_stimuli/mp3/melody_3_^6_buffer.mp3"
"[{""page_index"":0,""viewing_time"":1942.4500000895932},{""page_index"":1,""viewing_time"":808.5250000003725},{""page_index"":2,""viewing_time"":558.1600000150502}]","3309.385000029579","instructions","80","642803","0.0-14.0","77740","","","","","",""
"","null","audio-keyboard-response","81","652779","0.0-15.0-0.0","77740","","new_stimuli/mp3/melody_v2_v5_^3_buffer.mp3","","null","",""
"","821.2050000438467","html-button-response","82","653602","0.0-15.0-1.0","77740","","<p>Which tone was played first after the cadence?</p><p>Please respond as quickly and as accurately as possible!</p>","2","","1","new_stimuli/mp3/melody_v2_v5_^3_buffer.mp3"
"","931.5199999837205","html-button-response","83","654534","0.0-15.0-2.0","77740","","<p>Which tone was played second after the cadence?</p><p>Please respond as quickly and as accurately as possible!</p>","7","","2","new_stimuli/mp3/melody_v2_v5_^3_buffer.mp3"
"","709.4250000081956","html-button-response","84","655245","0.0-15.0-3.0","77740","","<p>Which tone was played third after the cadence?</p><p>Please respond as quickly and as accurately as possible!</p>","4","","3","new_stimuli/mp3/melody_v2_v5_^3_buffer.mp3"
"","null","audio-keyboard-response","85","664883","0.0-15.0-0.1","77740","","new_stimuli/mp3/melody_6_^1_v5_.mp3","","null","",""
"","1067.134999902919","html-button-response","86","665951","0.0-15.0-1.1","77740","","<p>Which tone was played first after the cadence?</p><p>Please respond as quickly and as accurately as possible!</p>","9","","1","new_stimuli/mp3/melody_6_^1_v5_.mp3"
"","816.7499999981374","html-button-response","87","666770","0.0-15.0-2.1","77740","","<p>Which tone was played second after the cadence?</p><p>Please respond as quickly and as accurately as possible!</p>","12","","2","new_stimuli/mp3/melody_6_^1_v5_.mp3"
"","806.7549999104813","html-button-response","88","667578","0.0-15.0-3.1","77740","","<p>Which tone was played third after the cadence?</p><p>Please respond as quickly and as accurately as possible!</p>","7","","3","new_stimuli/mp3/melody_6_^1_v5_.mp3"
"","null","audio-keyboard-response","89","677532","0.0-15.0-0.2","77740","","new_stimuli/mp3/melody_v5_v4_v3_buffer.mp3","","null","",""
"","925.1350000267848","html-button-response","90","678459","0.0-15.0-1.2","77740","","<p>Which tone was played first after the cadence?</p><p>Please respond as quickly and as accurately as possible!</p>","7","","1","new_stimuli/mp3/melody_v5_v4_v3_buffer.mp3"
"","905.4799999576062","html-button-response","91","679365","0.0-15.0-2.2","77740","","<p>Which tone was played second after the cadence?</p><p>Please respond as quickly and as accurately as possible!</p>","5","","2","new_stimuli/mp3/melody_v5_v4_v3_buffer.mp3"
"","452.2800000850111","html-button-response","92","679819","0.0-15.0-3.2","77740","","<p>Which tone was played third after the cadence?</p><p>Please respond as quickly and as accurately as possible!</p>","4","","3","new_stimuli/mp3/melody_v5_v4_v3_buffer.mp3"
"","null","audio-keyboard-response","93","689322","0.0-15.0-0.3","77740","","new_stimuli/mp3/melody_1_v1+_^2_.mp3","","null","",""
"","699.4000000413507","html-button-response","94","690023","0.0-15.0-1.3","77740","","<p>Which tone was played first after the cadence?</p><p>Please respond as quickly and as accurately as possible!</p>","0","","1","new_stimuli/mp3/melody_1_v1+_^2_.mp3"
"","484.9849999882281","html-button-response","95","690509","0.0-15.0-2.3","77740","","<p>Which tone was played second after the cadence?</p><p>Please respond as quickly and as accurately as possible!</p>","1","","2","new_stimuli/mp3/melody_1_v1+_^2_.mp3"
"","403.10500003397465","html-button-response","96","690913","0.0-15.0-3.3","77740","","<p>Which tone was played third after the cadence?</p><p>Please respond as quickly and as accurately as possible!</p>","2","","3","new_stimuli/mp3/melody_1_v1+_^2_.mp3"
"","null","audio-keyboard-response","97","700503","0.0-15.0-0.4","77740","","new_stimuli/mp3/melody_v1_v7-_7-_buffer.mp3","","null","",""
"","805.2449999377131","html-button-response","98","701310","0.0-15.0-1.4","77740","","<p>Which tone was played first after the cadence?</p><p>Please respond as quickly and as accurately as possible!</p>","12","","1","new_stimuli/mp3/melody_v1_v7-_7-_buffer.mp3"
"","930.3399999625981","html-button-response","99","702241","0.0-15.0-2.4","77740","","<p>Which tone was played second after the cadence?</p><p>Please respond as quickly and as accurately as possible!</p>","10","","2","new_stimuli/mp3/melody_v1_v7-_7-_buffer.mp3"
"","435.62000000383705","html-button-response","100","702678","0.0-15.0-3.4","77740","","<p>Which tone was played third after the cadence?</p><p>Please respond as quickly and as accurately as possible!</p>","10","","3","new_stimuli/mp3/melody_v1_v7-_7-_buffer.mp3"
"","null","audio-keyboard-response","101","712236","0.0-15.0-0.5","77740","","new_stimuli/mp3/melody_v1_v7-_^7_.mp3","","null","",""
"","810.3500000433996","html-button-response","102","713047","0.0-15.0-1.5","77740","","<p>Which tone was played first after the cadence?</p><p>Please respond as quickly and as accurately as possible!</p>","12","","1","new_stimuli/mp3/melody_v1_v7-_^7_.mp3"
"","1019.0549999242648","html-button-response","103","714067","0.0-15.0-2.5","77740","","<p>Which tone was played second after the cadence?</p><p>Please respond as quickly and as accurately as possible!</p>","10","","2","new_stimuli/mp3/melody_v1_v7-_^7_.mp3"
"","435.50999998115003","html-button-response","104","714504","0.0-15.0-3.5","77740","","<p>Which tone was played third after the cadence?</p><p>Please respond as quickly and as accurately as possible!</p>","11","","3","new_stimuli/mp3/melody_v1_v7-_^7_.mp3"
"","null","audio-keyboard-response","105","724061","0.0-15.0-0.6","77740","","new_stimuli/mp3/melody_v3_v2_v1_.mp3","","null","",""
"","1008.144999970682","html-button-response","106","725070","0.0-15.0-1.6","77740","","<p>Which tone was played first after the cadence?</p><p>Please respond as quickly and as accurately as possible!</p>","3","","1","new_stimuli/mp3/melody_v3_v2_v1_.mp3"
"","2677.200000034645","html-button-response","107","727748","0.0-15.0-2.6","77740","","<p>Which tone was played second after the cadence?</p><p>Please respond as quickly and as accurately as possible!</p>","2","","2","new_stimuli/mp3/melody_v3_v2_v1_.mp3"
"","1261.7999999783933","html-button-response","108","729011","0.0-15.0-3.6","77740","","<p>Which tone was played third after the cadence?</p><p>Please respond as quickly and as accurately as possible!</p>","0","","3","new_stimuli/mp3/melody_v3_v2_v1_.mp3"
"","null","audio-keyboard-response","109","738910","0.0-15.0-0.7","77740","","new_stimuli/mp3/melody_^1_v6_v5+_.mp3","","null","",""
"","3064.3099999288097","html-button-response","110","741976","0.0-15.0-1.7","77740","","<p>Which tone was played first after the cadence?</p><p>Please respond as quickly and as accurately as possible!</p>","12","","1","new_stimuli/mp3/melody_^1_v6_v5+_.mp3"
"","816.2249999586493","html-button-response","111","742793","0.0-15.0-2.7","77740","","<p>Which tone was played second after the cadence?</p><p>Please respond as quickly and as accurately as possible!</p>","9","","2","new_stimuli/mp3/melody_^1_v6_v5+_.mp3"
"","670.5599999986589","html-button-response","112","743465","0.0-15.0-3.7","77740","","<p>Which tone was played third after the cadence?</p><p>Please respond as quickly and as accurately as possible!</p>","8","","3","new_stimuli/mp3/melody_^1_v6_v5+_.mp3"
"","null","audio-keyboard-response","113","753167","0.0-15.0-0.8","77740","","new_stimuli/mp3/melody_v4_v3_v2_buffer.mp3","","null","",""
"","881.7600000184029","html-button-response","114","754051","0.0-15.0-1.8","77740","","<p>Which tone was played first after the cadence?</p><p>Please respond as quickly and as accurately as possible!</p>","5","","1","new_stimuli/mp3/melody_v4_v3_v2_buffer.mp3"
"","808.4899999666959","html-button-response","115","754861","0.0-15.0-2.8","77740","","<p>Which tone was played second after the cadence?</p><p>Please respond as quickly and as accurately as possible!</p>","4","","2","new_stimuli/mp3/melody_v4_v3_v2_buffer.mp3"
"","872.7850000141189","html-button-response","116","755735","0.0-15.0-3.8","77740","","<p>Which tone was played third after the cadence?</p><p>Please respond as quickly and as accurately as possible!</p>","2","","3","new_stimuli/mp3/melody_v4_v3_v2_buffer.mp3"
"[{""page_index"":0,""viewing_time"":2912.6849999884143},{""page_index"":1,""viewing_time"":2192.2450000420213},{""page_index"":2,""viewing_time"":1286.7349999723956}]","6391.919999965467","instructions","117","762131","0.0-16.0","77740","","","","","",""
"","null","audio-keyboard-response","118","772769","0.0-17.0-0.0","77740","","new_stimuli/mp3/melody_^6_v4_v3_^4_^5_.mp3","","null","",""
"","1311.1199999693781","html-button-response","119","774082","0.0-17.0-1.0","77740","","<p>Which tone was played first after the cadence?</p><p>Please respond as quickly and as accurately as possible!</p>","9","","1","new_stimuli/mp3/melody_^6_v4_v3_^4_^5_.mp3"
"","921.100000035949","html-button-response","120","775004","0.0-17.0-2.0","77740","","<p>Which tone was played second after the cadence?</p><p>Please respond as quickly and as accurately as possible!</p>","5","","2","new_stimuli/mp3/melody_^6_v4_v3_^4_^5_.mp3"
"","553.8749999832362","html-button-response","121","775560","0.0-17.0-3.0","77740","","<p>Which tone was played third after the cadence?</p><p>Please respond as quickly and as accurately as possible!</p>","4","","3","new_stimuli/mp3/melody_^6_v4_v3_^4_^5_.mp3"
"","346.6499999631196","html-button-response","122","775907","0.0-17.0-4.0","77740","","<p>Which tone was played fourth after the cadence?</p><p>Please respond as quickly and as accurately as possible!</p>","5","","4","new_stimuli/mp3/melody_^6_v4_v3_^4_^5_.mp3"
"","687.2349999612197","html-button-response","123","776596","0.0-17.0-5.0","77740","","<p>Which tone was played fifth after the cadence?</p><p>Please respond as quickly and as accurately as possible!</p>","7","","5","new_stimuli/mp3/melody_^6_v4_v3_^4_^5_.mp3"
"","null","audio-keyboard-response","124","787545","0.0-17.0-0.1","77740","","new_stimuli/mp3/melody_v5-_v3_3_^4+_v3_.mp3","","null","",""
"","1033.460000064224","html-button-response","125","788580","0.0-17.0-1.1","77740","","<p>Which tone was played first after the cadence?</p><p>Please respond as quickly and as accurately as possible!</p>","6","","1","new_stimuli/mp3/melody_v5-_v3_3_^4+_v3_.mp3"
"","671.0149999707937","html-button-response","126","789252","0.0-17.0-2.1","77740","","<p>Which tone was played second after the cadence?</p><p>Please respond as quickly and as accurately as possible!</p>","4","","2","new_stimuli/mp3/melody_v5-_v3_3_^4+_v3_.mp3"
"","395.18499991390854","html-button-response","127","789649","0.0-17.0-3.1","77740","","<p>Which tone was played third after the cadence?</p><p>Please respond as quickly and as accurately as possible!</p>","4","","3","new_stimuli/mp3/melody_v5-_v3_3_^4+_v3_.mp3"
"","623.1599999591708","html-button-response","128","790273","0.0-17.0-4.1","77740","","<p>Which tone was played fourth after the cadence?</p><p>Please respond as quickly and as accurately as possible!</p>","6","","4","new_stimuli/mp3/melody_v5-_v3_3_^4+_v3_.mp3"
"","540.2750000357628","html-button-response","129","790814","0.0-17.0-5.1","77740","","<p>Which tone was played fifth after the cadence?</p><p>Please respond as quickly and as accurately as possible!</p>","4","","5","new_stimuli/mp3/melody_v5-_v3_3_^4+_v3_.mp3"
"","null","audio-keyboard-response","130","801449","0.0-17.0-0.2","77740","","new_stimuli/mp3/melody_v5_^6+_^7_^1_5_.mp3","","null","",""
"","1182.1699999272823","html-button-response","131","802633","0.0-17.0-1.2","77740","","<p>Which tone was played first after the cadence?</p><p>Please respond as quickly and as accurately as possible!</p>","7","","1","new_stimuli/mp3/melody_v5_^6+_^7_^1_5_.mp3"
"","848.7949999980628","html-button-response","132","803483","0.0-17.0-2.2","77740","","<p>Which tone was played second after the cadence?</p><p>Please respond as quickly and as accurately as possible!</p>","9","","2","new_stimuli/mp3/melody_v5_^6+_^7_^1_5_.mp3"
"","647.7999999187887","html-button-response","133","804132","0.0-17.0-3.2","77740","","<p>Which tone was played third after the cadence?</p><p>Please respond as quickly and as accurately as possible!</p>","11","","3","new_stimuli/mp3/melody_v5_^6+_^7_^1_5_.mp3"
"","508.2300000358373","html-button-response","134","804641","0.0-17.0-4.2","77740","","<p>Which tone was played fourth after the cadence?</p><p>Please respond as quickly and as accurately as possible!</p>","12","","4","new_stimuli/mp3/melody_v5_^6+_^7_^1_5_.mp3"
"","702.6499999919906","html-button-response","135","805345","0.0-17.0-5.2","77740","","<p>Which tone was played fifth after the cadence?</p><p>Please respond as quickly and as accurately as possible!</p>","7","","5","new_stimuli/mp3/melody_v5_^6+_^7_^1_5_.mp3"
"","null","audio-keyboard-response","136","816056","0.0-17.0-0.3","77740","","new_stimuli/mp3/melody_^6_v5_v4_v3_v2_buffer.mp3","","null","",""
"","934.305000002496","html-button-response","137","816991","0.0-17.0-1.3","77740","","<p>Which tone was played first after the cadence?</p><p>Please respond as quickly and as accurately as possible!</p>","9","","1","new_stimuli/mp3/melody_^6_v5_v4_v3_v2_buffer.mp3"
"","678.624999942258","html-button-response","138","817671","0.0-17.0-2.3","77740","","<p>Which tone was played second after the cadence?</p><p>Please respond as quickly and as accurately as possible!</p>","7","","2","new_stimuli/mp3/melody_^6_v5_v4_v3_v2_buffer.mp3"
"","665.7049999339506","html-button-response","139","818339","0.0-17.0-3.3","77740","","<p>Which tone was played third after the cadence?</p><p>Please respond as quickly and as accurately as possible!</p>","5","","3","new_stimuli/mp3/melody_^6_v5_v4_v3_v2_buffer.mp3"
"","647.2300000023097","html-button-response","140","818987","0.0-17.0-4.3","77740","","<p>Which tone was played fourth after the cadence?</p><p>Please respond as quickly and as accurately as possible!</p>","4","","4","new_stimuli/mp3/melody_^6_v5_v4_v3_v2_buffer.mp3"
"","645.2199999475852","html-button-response","141","819633","0.0-17.0-5.3","77740","","<p>Which tone was played fifth after the cadence?</p><p>Please respond as quickly and as accurately as possible!</p>","2","","5","new_stimuli/mp3/melody_^6_v5_v4_v3_v2_buffer.mp3"
"","null","audio-keyboard-response","142","830215","0.0-17.0-0.4","77740","","new_stimuli/mp3/melody_v5_v4_v3_v2_v1_.mp3","","null","",""
"","910.8199999900535","html-button-response","143","831127","0.0-17.0-1.4","77740","","<p>Which tone was played first after the cadence?</p><p>Please respond as quickly and as accurately as possible!</p>","7","","1","new_stimuli/mp3/melody_v5_v4_v3_v2_v1_.mp3"
"","540.9900000086054","html-button-response","144","831669","0.0-17.0-2.4","77740","","<p>Which tone was played second after the cadence?</p><p>Please respond as quickly and as accurately as possible!</p>","5","","2","new_stimuli/mp3/melody_v5_v4_v3_v2_v1_.mp3"
"","588.164999964647","html-button-response","145","832260","0.0-17.0-3.4","77740","","<p>Which tone was played third after the cadence?</p><p>Please respond as quickly and as accurately as possible!</p>","4","","3","new_stimuli/mp3/melody_v5_v4_v3_v2_v1_.mp3"
"","585.6399999465793","html-button-response","146","832846","0.0-17.0-4.4","77740","","<p>Which tone was played fourth after the cadence?</p><p>Please respond as quickly and as accurately as possible!</p>","2","","4","new_stimuli/mp3/melody_v5_v4_v3_v2_v1_.mp3"
"","678.9300000527874","html-button-response","147","833526","0.0-17.0-5.4","77740","","<p>Which tone was played fifth after the cadence?</p><p>Please respond as quickly and as accurately as possible!</p>","0","","5","new_stimuli/mp3/melody_v5_v4_v3_v2_v1_.mp3"
"","null","audio-keyboard-response","148","844472","0.0-17.0-0.5","77740","","new_stimuli/mp3/melody_^5_^6_v5_v4_v3_buffer.mp3","","null","",""
"","1210.785000002943","html-button-response","149","845684","0.0-17.0-1.5","77740","","<p>Which tone was played first after the cadence?</p><p>Please respond as quickly and as accurately as possible!</p>","7","","1","new_stimuli/mp3/melody_^5_^6_v5_v4_v3_buffer.mp3"
"","602.7599999215454","html-button-response","150","846288","0.0-17.0-2.5","77740","","<p>Which tone was played second after the cadence?</p><p>Please respond as quickly and as accurately as possible!</p>","9","","2","new_stimuli/mp3/melody_^5_^6_v5_v4_v3_buffer.mp3"
"","645.6750000361353","html-button-response","151","846935","0.0-17.0-3.5","77740","","<p>Which tone was played third after the cadence?</p><p>Please respond as quickly and as accurately as possible!</p>","7","","3","new_stimuli/mp3/melody_^5_^6_v5_v4_v3_buffer.mp3"
"","678.6699999356642","html-button-response","152","847614","0.0-17.0-4.5","77740","","<p>Which tone was played fourth after the cadence?</p><p>Please respond as quickly and as accurately as possible!</p>","5","","4","new_stimuli/mp3/melody_^5_^6_v5_v4_v3_buffer.mp3"
"","654.5049999840558","html-button-response","153","848270","0.0-17.0-5.5","77740","","<p>Which tone was played fifth after the cadence?</p><p>Please respond as quickly and as accurately as possible!</p>","4","","5","new_stimuli/mp3/melody_^5_^6_v5_v4_v3_buffer.mp3"
"","null","audio-keyboard-response","154","858851","0.0-17.0-0.6","77740","","new_stimuli/mp3/melody_v5_v4_v3_v2_v1 _buffer.mp3","","null","",""
"","943.6899999855086","html-button-response","155","859796","0.0-17.0-1.6","77740","","<p>Which tone was played first after the cadence?</p><p>Please respond as quickly and as accurately as possible!</p>","7","","1","new_stimuli/mp3/melody_v5_v4_v3_v2_v1 _buffer.mp3"
"","638.4899999247864","html-button-response","156","860436","0.0-17.0-2.6","77740","","<p>Which tone was played second after the cadence?</p><p>Please respond as quickly and as accurately as possible!</p>","5","","2","new_stimuli/mp3/melody_v5_v4_v3_v2_v1 _buffer.mp3"
"","569.275000016205","html-button-response","157","861006","0.0-17.0-3.6","77740","","<p>Which tone was played third after the cadence?</p><p>Please respond as quickly and as accurately as possible!</p>","4","","3","new_stimuli/mp3/melody_v5_v4_v3_v2_v1 _buffer.mp3"
"","565.7349999528378","html-button-response","158","861573","0.0-17.0-4.6","77740","","<p>Which tone was played fourth after the cadence?</p><p>Please respond as quickly and as accurately as possible!</p>","2","","4","new_stimuli/mp3/melody_v5_v4_v3_v2_v1 _buffer.mp3"
"","540.9299999009818","html-button-response","159","862115","0.0-17.0-5.6","77740","","<p>Which tone was played fifth after the cadence?</p><p>Please respond as quickly and as accurately as possible!</p>","0","","5","new_stimuli/mp3/melody_v5_v4_v3_v2_v1 _buffer.mp3"
"","null","audio-keyboard-response","160","872697","0.0-17.0-0.7","77740","","new_stimuli/mp3/melody_v2_2_^3_^4_v2_.mp3","","null","",""
"","1111.975000007078","html-button-response","161","873810","0.0-17.0-1.7","77740","","<p>Which tone was played first after the cadence?</p><p>Please respond as quickly and as accurately as possible!</p>","2","","1","new_stimuli/mp3/melody_v2_2_^3_^4_v2_.mp3"
"","492.6399999530986","html-button-response","162","874304","0.0-17.0-2.7","77740","","<p>Which tone was played second after the cadence?</p><p>Please respond as quickly and as accurately as possible!</p>","2","","2","new_stimuli/mp3/melody_v2_2_^3_^4_v2_.mp3"
"","659.0749999741092","html-button-response","163","874964","0.0-17.0-3.7","77740","","<p>Which tone was played third after the cadence?</p><p>Please respond as quickly and as accurately as possible!</p>","4","","3","new_stimuli/mp3/melody_v2_2_^3_^4_v2_.mp3"
"","444.26999997813255","html-button-response","164","875409","0.0-17.0-4.7","77740","","<p>Which tone was played fourth after the cadence?</p><p>Please respond as quickly and as accurately as possible!</p>","5","","4","new_stimuli/mp3/melody_v2_2_^3_^4_v2_.mp3"
"","629.2149999644607","html-button-response","165","876040","0.0-17.0-5.7","77740","","<p>Which tone was played fifth after the cadence?</p><p>Please respond as quickly and as accurately as possible!</p>","2","","5","new_stimuli/mp3/melody_v2_2_^3_^4_v2_.mp3"
"[{""page_index"":0,""viewing_time"":2208.6750000016764},{""page_index"":1,""viewing_time"":1085.1849999744445},{""page_index"":2,""viewing_time"":877.9600000707433}]","4172.035000054166","instructions","166","880212","0.0-18.0","77740","","","","","",""
"","null","audio-keyboard-response","167","891912","0.0-19.0-0.0","77740","","new_stimuli/mp3/melody_^1_v7_v6_v5_v4_v3_v2_buffer.mp3","","null","",""
"","882.9000000841916","html-button-response","168","892796","0.0-19.0-1.0","77740","","<p>Which tone was played first after the cadence?</p><p>Please respond as quickly and as accurately as possible!</p>","12","","1","new_stimuli/mp3/melody_^1_v7_v6_v5_v4_v3_v2_buffer.mp3"
"","678.0449999496341","html-button-response","169","893475","0.0-19.0-2.0","77740","","<p>Which tone was played second after the cadence?</p><p>Please respond as quickly and as accurately as possible!</p>","11","","2","new_stimuli/mp3/melody_^1_v7_v6_v5_v4_v3_v2_buffer.mp3"
"","852.904999977909","html-button-response","170","894329","0.0-19.0-3.0","77740","","<p>Which tone was played third after the cadence?</p><p>Please respond as quickly and as accurately as possible!</p>","9","","3","new_stimuli/mp3/melody_^1_v7_v6_v5_v4_v3_v2_buffer.mp3"
"","670.9349999437109","html-button-response","171","895001","0.0-19.0-4.0","77740","","<p>Which tone was played fourth after the cadence?</p><p>Please respond as quickly and as accurately as possible!</p>","7","","4","new_stimuli/mp3/melody_^1_v7_v6_v5_v4_v3_v2_buffer.mp3"
"","994.3500000517815","html-button-response","172","895997","0.0-19.0-5.0","77740","","<p>Which tone was played fifth after the cadence?</p><p>Please respond as quickly and as accurately as possible!</p>","5","","5","new_stimuli/mp3/melody_^1_v7_v6_v5_v4_v3_v2_buffer.mp3"
"","606.1299999710172","html-button-response","173","896604","0.0-19.0-6.0","77740","","<p>Which tone was played sixth after the cadence?</p><p>Please respond as quickly and as accurately as possible!</p>","4","","6","new_stimuli/mp3/melody_^1_v7_v6_v5_v4_v3_v2_buffer.mp3"
"","872.8300000075251","html-button-response","174","897478","0.0-19.0-7.0","77740","","<p>Which tone was played seventh after the cadence?</p><p>Please respond as quickly and as accurately as possible!</p>","2","","7","new_stimuli/mp3/melody_^1_v7_v6_v5_v4_v3_v2_buffer.mp3"
"","null","audio-keyboard-response","175","909124","0.0-19.0-0.1","77740","","new_stimuli/mp3/melody_^6_v5+_v4_^5+_v3_v1_v7-_.mp3","","null","",""
"","1286.1699999775738","html-button-response","176","910412","0.0-19.0-1.1","77740","","<p>Which tone was played first after the cadence?</p><p>Please respond as quickly and as accurately as possible!</p>","9","","1","new_stimuli/mp3/melody_^6_v5+_v4_^5+_v3_v1_v7-_.mp3"
"","701.824999996461","html-button-response","177","911116","0.0-19.0-2.1","77740","","<p>Which tone was played second after the cadence?</p><p>Please respond as quickly and as accurately as possible!</p>","8","","2","new_stimuli/mp3/melody_^6_v5+_v4_^5+_v3_v1_v7-_.mp3"
"","8439.110000035726","html-button-response","178","919557","0.0-19.0-3.1","77740","","<p>Which tone was played third after the cadence?</p><p>Please respond as quickly and as accurately as possible!</p>","5","","3","new_stimuli/mp3/melody_^6_v5+_v4_^5+_v3_v1_v7-_.mp3"
"","793.0199999827892","html-button-response","179","920352","0.0-19.0-4.1","77740","","<p>Which tone was played fourth after the cadence?</p><p>Please respond as quickly and as accurately as possible!</p>","8","","4","new_stimuli/mp3/melody_^6_v5+_v4_^5+_v3_v1_v7-_.mp3"
"","5821.895000059158","html-button-response","180","926175","0.0-19.0-5.1","77740","","<p>Which tone was played fifth after the cadence?</p><p>Please respond as quickly and as accurately as possible!</p>","4","","5","new_stimuli/mp3/melody_^6_v5+_v4_^5+_v3_v1_v7-_.mp3"
"","3633.1100000534207","html-button-response","181","929809","0.0-19.0-6.1","77740","","<p>Which tone was played sixth after the cadence?</p><p>Please respond as quickly and as accurately as possible!</p>","0","","6","new_stimuli/mp3/melody_^6_v5+_v4_^5+_v3_v1_v7-_.mp3"
"","1771.2600000668317","html-button-response","182","931581","0.0-19.0-7.1","77740","","<p>Which tone was played seventh after the cadence?</p><p>Please respond as quickly and as accurately as possible!</p>","10","","7","new_stimuli/mp3/melody_^6_v5+_v4_^5+_v3_v1_v7-_.mp3"
"","null","audio-keyboard-response","183","943154","0.0-19.0-0.2","77740","","new_stimuli/mp3/melody_^5_^6_v5_v4_v3_v2_v1_buffer.mp3","","null","",""
"","1577.9750000219792","html-button-response","184","944733","0.0-19.0-1.2","77740","","<p>Which tone was played first after the cadence?</p><p>Please respond as quickly and as accurately as possible!</p>","7","","1","new_stimuli/mp3/melody_^5_^6_v5_v4_v3_v2_v1_buffer.mp3"
"","622.4650000222027","html-button-response","185","945357","0.0-19.0-2.2","77740","","<p>Which tone was played second after the cadence?</p><p>Please respond as quickly and as accurately as possible!</p>","9","","2","new_stimuli/mp3/melody_^5_^6_v5_v4_v3_v2_v1_buffer.mp3"
"","573.6500000348315","html-button-response","186","945932","0.0-19.0-3.2","77740","","<p>Which tone was played third after the cadence?</p><p>Please respond as quickly and as accurately as possible!</p>","7","","3","new_stimuli/mp3/melody_^5_^6_v5_v4_v3_v2_v1_buffer.mp3"
"","641.8650000123307","html-button-response","187","946575","0.0-19.0-4.2","77740","","<p>Which tone was played fourth after the cadence?</p><p>Please respond as quickly and as accurately as possible!</p>","5","","4","new_stimuli/mp3/melody_^5_^6_v5_v4_v3_v2_v1_buffer.mp3"
"","492.8099999669939","html-button-response","188","947068","0.0-19.0-5.2","77740","","<p>Which tone was played fifth after the cadence?</p><p>Please respond as quickly and as accurately as possible!</p>","4","","5","new_stimuli/mp3/melody_^5_^6_v5_v4_v3_v2_v1_buffer.mp3"
"","549.1799999726936","html-button-response","189","947619","0.0-19.0-6.2","77740","","<p>Which tone was played sixth after the cadence?</p><p>Please respond as quickly and as accurately as possible!</p>","2","","6","new_stimuli/mp3/melody_^5_^6_v5_v4_v3_v2_v1_buffer.mp3"
"","1011.009999900125","html-button-response","190","948631","0.0-19.0-7.2","77740","","<p>Which tone was played seventh after the cadence?</p><p>Please respond as quickly and as accurately as possible!</p>","0","","7","new_stimuli/mp3/melody_^5_^6_v5_v4_v3_v2_v1_buffer.mp3"
"","null","audio-keyboard-response","191","960593","0.0-19.0-0.3","77740","","new_stimuli/mp3/melody_1_^3_v1_^5_v3_v2_^3_.mp3","","null","",""
"","1378.1200000084937","html-button-response","192","961972","0.0-19.0-1.3","77740","","<p>Which tone was played first after the cadence?</p><p>Please respond as quickly and as accurately as possible!</p>","0","","1","new_stimuli/mp3/melody_1_^3_v1_^5_v3_v2_^3_.mp3"
"","1141.010000021197","html-button-response","193","963114","0.0-19.0-2.3","77740","","<p>Which tone was played second after the cadence?</p><p>Please respond as quickly and as accurately as possible!</p>","4","","2","new_stimuli/mp3/melody_1_^3_v1_^5_v3_v2_^3_.mp3"
"","929.3150000739843","html-button-response","194","964045","0.0-19.0-3.3","77740","","<p>Which tone was played third after the cadence?</p><p>Please respond as quickly and as accurately as possible!</p>","0","","3","new_stimuli/mp3/melody_1_^3_v1_^5_v3_v2_^3_.mp3"
"","1468.5749999480322","html-button-response","195","965514","0.0-19.0-4.3","77740","","<p>Which tone was played fourth after the cadence?</p><p>Please respond as quickly and as accurately as possible!</p>","7","","4","new_stimuli/mp3/melody_1_^3_v1_^5_v3_v2_^3_.mp3"
"","840.0949999922886","html-button-response","196","966355","0.0-19.0-5.3","77740","","<p>Which tone was played fifth after the cadence?</p><p>Please respond as quickly and as accurately as possible!</p>","4","","5","new_stimuli/mp3/melody_1_^3_v1_^5_v3_v2_^3_.mp3"
"","631.6400000359863","html-button-response","197","966988","0.0-19.0-6.3","77740","","<p>Which tone was played sixth after the cadence?</p><p>Please respond as quickly and as accurately as possible!</p>","2","","6","new_stimuli/mp3/melody_1_^3_v1_^5_v3_v2_^3_.mp3"
"","540.0900000240654","html-button-response","198","967529","0.0-19.0-7.3","77740","","<p>Which tone was played seventh after the cadence?</p><p>Please respond as quickly and as accurately as possible!</p>","4","","7","new_stimuli/mp3/melody_1_^3_v1_^5_v3_v2_^3_.mp3"
"","null","audio-keyboard-response","199","979210","0.0-19.0-0.4","77740","","new_stimuli/mp3/melody_^4_v6-_v5-_^6-_^4_v2-_2-_.mp3","","null","",""
"","4417.550000012852","html-button-response","200","983628","0.0-19.0-1.4","77740","","<p>Which tone was played first after the cadence?</p><p>Please respond as quickly and as accurately as possible!</p>","5","","1","new_stimuli/mp3/melody_^4_v6-_v5-_^6-_^4_v2-_2-_.mp3"
"","16964.13500001654","html-button-response","201","1000595","0.0-19.0-2.4","77740","","<p>Which tone was played second after the cadence?</p><p>Please respond as quickly and as accurately as possible!</p>","8","","2","new_stimuli/mp3/melody_^4_v6-_v5-_^6-_^4_v2-_2-_.mp3"
"","912.8450000425801","html-button-response","202","1001509","0.0-19.0-3.4","77740","","<p>Which tone was played third after the cadence?</p><p>Please respond as quickly and as accurately as possible!</p>","7","","3","new_stimuli/mp3/melody_^4_v6-_v5-_^6-_^4_v2-_2-_.mp3"
"","800.7900000084192","html-button-response","203","1002311","0.0-19.0-4.4","77740","","<p>Which tone was played fourth after the cadence?</p><p>Please respond as quickly and as accurately as possible!</p>","8","","4","new_stimuli/mp3/melody_^4_v6-_v5-_^6-_^4_v2-_2-_.mp3"
"","848.1250000186265","html-button-response","204","1003160","0.0-19.0-5.4","77740","","<p>Which tone was played fifth after the cadence?</p><p>Please respond as quickly and as accurately as possible!</p>","5","","5","new_stimuli/mp3/melody_^4_v6-_v5-_^6-_^4_v2-_2-_.mp3"
"","844.5000000065193","html-button-response","205","1004005","0.0-19.0-6.4","77740","","<p>Which tone was played sixth after the cadence?</p><p>Please respond as quickly and as accurately as possible!</p>","1","","6","new_stimuli/mp3/melody_^4_v6-_v5-_^6-_^4_v2-_2-_.mp3"
"","654.4899999862537","html-button-response","206","1004661","0.0-19.0-7.4","77740","","<p>Which tone was played seventh after the cadence?</p><p>Please respond as quickly and as accurately as possible!</p>","1","","7","new_stimuli/mp3/melody_^4_v6-_v5-_^6-_^4_v2-_2-_.mp3"
"","null","audio-keyboard-response","207","1016363","0.0-19.0-0.5","77740","","new_stimuli/mp3/melody_^4_^5_^6_v5_v4_v3_v2_.mp3","","null","",""
"","1222.940000006929","html-button-response","208","1017587","0.0-19.0-1.5","77740","","<p>Which tone was played first after the cadence?</p><p>Please respond as quickly and as accurately as possible!</p>","5","","1","new_stimuli/mp3/melody_^4_^5_^6_v5_v4_v3_v2_.mp3"
"","620.7949999952689","html-button-response","209","1018210","0.0-19.0-2.5","77740","","<p>Which tone was played second after the cadence?</p><p>Please respond as quickly and as accurately as possible!</p>","7","","2","new_stimuli/mp3/melody_^4_^5_^6_v5_v4_v3_v2_.mp3"
"","638.9849999686703","html-button-response","210","1018850","0.0-19.0-3.5","77740","","<p>Which tone was played third after the cadence?</p><p>Please respond as quickly and as accurately as possible!</p>","9","","3","new_stimuli/mp3/melody_^4_^5_^6_v5_v4_v3_v2_.mp3"
"","580.9599999338388","html-button-response","211","1019432","0.0-19.0-4.5","77740","","<p>Which tone was played fourth after the cadence?</p><p>Please respond as quickly and as accurately as possible!</p>","7","","4","new_stimuli/mp3/melody_^4_^5_^6_v5_v4_v3_v2_.mp3"
"","674.6050000656396","html-button-response","212","1020108","0.0-19.0-5.5","77740","","<p>Which tone was played fifth after the cadence?</p><p>Please respond as quickly and as accurately as possible!</p>","5","","5","new_stimuli/mp3/melody_^4_^5_^6_v5_v4_v3_v2_.mp3"
"","581.7650000099093","html-button-response","213","1020691","0.0-19.0-6.5","77740","","<p>Which tone was played sixth after the cadence?</p><p>Please respond as quickly and as accurately as possible!</p>","4","","6","new_stimuli/mp3/melody_^4_^5_^6_v5_v4_v3_v2_.mp3"
"","588.880000053905","html-button-response","214","1021281","0.0-19.0-7.5","77740","","<p>Which tone was played seventh after the cadence?</p><p>Please respond as quickly and as accurately as possible!</p>","2","","7","new_stimuli/mp3/melody_^4_^5_^6_v5_v4_v3_v2_.mp3"
"","null","audio-keyboard-response","215","1032983","0.0-19.0-0.6","77740","","new_stimuli/mp3/melody_v1_^2_v1_v7_^1_^3_v2_.mp3","","null","",""
"","753.6899999249727","html-button-response","216","1033738","0.0-19.0-1.6","77740","","<p>Which tone was played first after the cadence?</p><p>Please respond as quickly and as accurately as possible!</p>","0","","1","new_stimuli/mp3/melody_v1_^2_v1_v7_^1_^3_v2_.mp3"
"","695.9700000006706","html-button-response","217","1034435","0.0-19.0-2.6","77740","","<p>Which tone was played second after the cadence?</p><p>Please respond as quickly and as accurately as possible!</p>","2","","2","new_stimuli/mp3/melody_v1_^2_v1_v7_^1_^3_v2_.mp3"
"","790.6349999830127","html-button-response","218","1035227","0.0-19.0-3.6","77740","","<p>Which tone was played third after the cadence?</p><p>Please respond as quickly and as accurately as possible!</p>","0","","3","new_stimuli/mp3/melody_v1_^2_v1_v7_^1_^3_v2_.mp3"
"","953.2800000160933","html-button-response","219","1036181","0.0-19.0-4.6","77740","","<p>Which tone was played fourth after the cadence?</p><p>Please respond as quickly and as accurately as possible!</p>","11","","4","new_stimuli/mp3/melody_v1_^2_v1_v7_^1_^3_v2_.mp3"
"","2131.364999921061","html-button-response","220","1038314","0.0-19.0-5.6","77740","","<p>Which tone was played fifth after the cadence?</p><p>Please respond as quickly and as accurately as possible!</p>","0","","5","new_stimuli/mp3/melody_v1_^2_v1_v7_^1_^3_v2_.mp3"
"","1205.3150000283495","html-button-response","221","1039520","0.0-19.0-6.6","77740","","<p>Which tone was played sixth after the cadence?</p><p>Please respond as quickly and as accurately as possible!</p>","4","","6","new_stimuli/mp3/melody_v1_^2_v1_v7_^1_^3_v2_.mp3"
"","1293.4400000376627","html-button-response","222","1040815","0.0-19.0-7.6","77740","","<p>Which tone was played seventh after the cadence?</p><p>Please respond as quickly and as accurately as possible!</p>","2","","7","new_stimuli/mp3/melody_v1_^2_v1_v7_^1_^3_v2_.mp3"
"[{""page_index"":0,""viewing_time"":2317.8850000258535},{""page_index"":1,""viewing_time"":1391.9600000372157},{""page_index"":2,""viewing_time"":3633.490000036545}]","7343.600000021979","instructions","223","1048159","0.0-20.0","77740","","","","","",""
"","null","audio-keyboard-response","224","1060854","0.0-21.0-0.0","77740","","new_stimuli/mp3/melody_^2_^3_^4_^5_^6_v5_v4_v3_v2_buffer.mp3","","null","",""
"","1322.929999907501","html-button-response","225","1062178","0.0-21.0-1.0","77740","","<p>Which tone was played first after the cadence?</p><p>Please respond as quickly and as accurately as possible!</p>","2","","1","new_stimuli/mp3/melody_^2_^3_^4_^5_^6_v5_v4_v3_v2_buffer.mp3"
"","941.8549999827519","html-button-response","226","1063120","0.0-21.0-2.0","77740","","<p>Which tone was played second after the cadence?</p><p>Please respond as quickly and as accurately as possible!</p>","4","","2","new_stimuli/mp3/melody_^2_^3_^4_^5_^6_v5_v4_v3_v2_buffer.mp3"
"","1018.6149999499321","html-button-response","227","1064140","0.0-21.0-3.0","77740","","<p>Which tone was played third after the cadence?</p><p>Please respond as quickly and as accurately as possible!</p>","5","","3","new_stimuli/mp3/melody_^2_^3_^4_^5_^6_v5_v4_v3_v2_buffer.mp3"
"","663.5299999034032","html-button-response","228","1064805","0.0-21.0-4.0","77740","","<p>Which tone was played fourth after the cadence?</p><p>Please respond as quickly and as accurately as possible!</p>","7","","4","new_stimuli/mp3/melody_^2_^3_^4_^5_^6_v5_v4_v3_v2_buffer.mp3"
"","646.9700000016019","html-button-response","229","1065453","0.0-21.0-5.0","77740","","<p>Which tone was played fifth after the cadence?</p><p>Please respond as quickly and as accurately as possible!</p>","9","","5","new_stimuli/mp3/melody_^2_^3_^4_^5_^6_v5_v4_v3_v2_buffer.mp3"
"","735.0050000241026","html-button-response","230","1066189","0.0-21.0-6.0","77740","","<p>Which tone was played sixth after the cadence?</p><p>Please respond as quickly and as accurately as possible!</p>","7","","6","new_stimuli/mp3/melody_^2_^3_^4_^5_^6_v5_v4_v3_v2_buffer.mp3"
"","892.8950000554323","html-button-response","231","1067083","0.0-21.0-7.0","77740","","<p>Which tone was played seventh after the cadence?</p><p>Please respond as quickly and as accurately as possible!</p>","5","","7","new_stimuli/mp3/melody_^2_^3_^4_^5_^6_v5_v4_v3_v2_buffer.mp3"
"","589.6499999798834","html-button-response","232","1067673","0.0-21.0-8.0","77740","","<p>Which tone was played eight after the cadence?</p><p>Please respond as quickly and as accurately as possible!</p>","4","","8","new_stimuli/mp3/melody_^2_^3_^4_^5_^6_v5_v4_v3_v2_buffer.mp3"
"","564.7600000957027","html-button-response","233","1068239","0.0-21.0-9.0","77740","","<p>Which tone was played nineth after the cadence?</p><p>Please respond as quickly and as accurately as possible!</p>","2","","9","new_stimuli/mp3/melody_^2_^3_^4_^5_^6_v5_v4_v3_v2_buffer.mp3"
"","null","audio-keyboard-response","234","1081195","0.0-21.0-0.1","77740","","new_stimuli/mp3/melody_^5_^6_v5_v4_v3_v2_v1_^2_^3_buffer.mp3","","null","",""
"","1162.8350000828505","html-button-response","235","1082359","0.0-21.0-1.1","77740","","<p>Which tone was played first after the cadence?</p><p>Please respond as quickly and as accurately as possible!</p>","7","","1","new_stimuli/mp3/melody_^5_^6_v5_v4_v3_v2_v1_^2_^3_buffer.mp3"
"","865.3550000162795","html-button-response","236","1083225","0.0-21.0-2.1","77740","","<p>Which tone was played second after the cadence?</p><p>Please respond as quickly and as accurately as possible!</p>","9","","2","new_stimuli/mp3/melody_^5_^6_v5_v4_v3_v2_v1_^2_^3_buffer.mp3"
"","747.2400000551715","html-button-response","237","1083974","0.0-21.0-3.1","77740","","<p>Which tone was played third after the cadence?</p><p>Please respond as quickly and as accurately as possible!</p>","7","","3","new_stimuli/mp3/melody_^5_^6_v5_v4_v3_v2_v1_^2_^3_buffer.mp3"
"","685.2850000141189","html-button-response","238","1084661","0.0-21.0-4.1","77740","","<p>Which tone was played fourth after the cadence?</p><p>Please respond as quickly and as accurately as possible!</p>","5","","4","new_stimuli/mp3/melody_^5_^6_v5_v4_v3_v2_v1_^2_^3_buffer.mp3"
"","597.7649999549612","html-button-response","239","1085260","0.0-21.0-5.1","77740","","<p>Which tone was played fifth after the cadence?</p><p>Please respond as quickly and as accurately as possible!</p>","4","","5","new_stimuli/mp3/melody_^5_^6_v5_v4_v3_v2_v1_^2_^3_buffer.mp3"
"","622.2400000551715","html-button-response","240","1085884","0.0-21.0-6.1","77740","","<p>Which tone was played sixth after the cadence?</p><p>Please respond as quickly and as accurately as possible!</p>","2","","6","new_stimuli/mp3/melody_^5_^6_v5_v4_v3_v2_v1_^2_^3_buffer.mp3"
"","710.5250000022352","html-button-response","241","1086595","0.0-21.0-7.1","77740","","<p>Which tone was played seventh after the cadence?</p><p>Please respond as quickly and as accurately as possible!</p>","0","","7","new_stimuli/mp3/melody_^5_^6_v5_v4_v3_v2_v1_^2_^3_buffer.mp3"
"","711.8300000438467","html-button-response","242","1087308","0.0-21.0-8.1","77740","","<p>Which tone was played eight after the cadence?</p><p>Please respond as quickly and as accurately as possible!</p>","2","","8","new_stimuli/mp3/melody_^5_^6_v5_v4_v3_v2_v1_^2_^3_buffer.mp3"
"","618.3399999281392","html-button-response","243","1087927","0.0-21.0-9.1","77740","","<p>Which tone was played nineth after the cadence?</p><p>Please respond as quickly and as accurately as possible!</p>","4","","9","new_stimuli/mp3/melody_^5_^6_v5_v4_v3_v2_v1_^2_^3_buffer.mp3"
"","null","audio-keyboard-response","244","1100491","0.0-21.0-0.2","77740","","new_stimuli/mp3/melody_^3_^4_^5 _^6_v5_v4_v3_v2_v1_.mp3","","null","",""
"","1334.0499999467283","html-button-response","245","1101827","0.0-21.0-1.2","77740","","<p>Which tone was played first after the cadence?</p><p>Please respond as quickly and as accurately as possible!</p>","4","","1","new_stimuli/mp3/melody_^3_^4_^5 _^6_v5_v4_v3_v2_v1_.mp3"
"","630.1799999782816","html-button-response","246","1102458","0.0-21.0-2.2","77740","","<p>Which tone was played second after the cadence?</p><p>Please respond as quickly and as accurately as possible!</p>","5","","2","new_stimuli/mp3/melody_^3_^4_^5 _^6_v5_v4_v3_v2_v1_.mp3"
"","702.7099999831989","html-button-response","247","1103162","0.0-21.0-3.2","77740","","<p>Which tone was played third after the cadence?</p><p>Please respond as quickly and as accurately as possible!</p>","7","","3","new_stimuli/mp3/melody_^3_^4_^5 _^6_v5_v4_v3_v2_v1_.mp3"
"","1892.6699999719858","html-button-response","248","1105056","0.0-21.0-4.2","77740","","<p>Which tone was played fourth after the cadence?</p><p>Please respond as quickly and as accurately as possible!</p>","9","","4","new_stimuli/mp3/melody_^3_^4_^5 _^6_v5_v4_v3_v2_v1_.mp3"
"","768.030000035651","html-button-response","249","1105825","0.0-21.0-5.2","77740","","<p>Which tone was played fifth after the cadence?</p><p>Please respond as quickly and as accurately as possible!</p>","7","","5","new_stimuli/mp3/melody_^3_^4_^5 _^6_v5_v4_v3_v2_v1_.mp3"
"","804.439999978058","html-button-response","250","1106630","0.0-21.0-6.2","77740","","<p>Which tone was played sixth after the cadence?</p><p>Please respond as quickly and as accurately as possible!</p>","5","","6","new_stimuli/mp3/melody_^3_^4_^5 _^6_v5_v4_v3_v2_v1_.mp3"
"","499.7900000307709","html-button-response","251","1107131","0.0-21.0-7.2","77740","","<p>Which tone was played seventh after the cadence?</p><p>Please respond as quickly and as accurately as possible!</p>","4","","7","new_stimuli/mp3/melody_^3_^4_^5 _^6_v5_v4_v3_v2_v1_.mp3"
"","1569.054999970831","html-button-response","252","1108701","0.0-21.0-8.2","77740","","<p>Which tone was played eight after the cadence?</p><p>Please respond as quickly and as accurately as possible!</p>","2","","8","new_stimuli/mp3/melody_^3_^4_^5 _^6_v5_v4_v3_v2_v1_.mp3"
"","679.6399999875575","html-button-response","253","1109382","0.0-21.0-9.2","77740","","<p>Which tone was played nineth after the cadence?</p><p>Please respond as quickly and as accurately as possible!</p>","0","","9","new_stimuli/mp3/melody_^3_^4_^5 _^6_v5_v4_v3_v2_v1_.mp3"
"","null","audio-keyboard-response","254","1122023","0.0-21.0-0.3","77740","","new_stimuli/mp3/melody_v5_v4_v6+_^7_^3+_v3_v2_v5_^4_.mp3","","null","",""
"","12551.790000055917","html-button-response","255","1134576","0.0-21.0-1.3","77740","","<p>Which tone was played first after the cadence?</p><p>Please respond as quickly and as accurately as possible!</p>","7","","1","new_stimuli/mp3/melody_v5_v4_v6+_^7_^3+_v3_v2_v5_^4_.mp3"
"","1964.9450000142679","html-button-response","256","1136543","0.0-21.0-2.3","77740","","<p>Which tone was played second after the cadence?</p><p>Please respond as quickly and as accurately as possible!</p>","5","","2","new_stimuli/mp3/melody_v5_v4_v6+_^7_^3+_v3_v2_v5_^4_.mp3"
"","1592.9149999283254","html-button-response","257","1138137","0.0-21.0-3.3","77740","","<p>Which tone was played third after the cadence?</p><p>Please respond as quickly and as accurately as possible!</p>","9","","3","new_stimuli/mp3/melody_v5_v4_v6+_^7_^3+_v3_v2_v5_^4_.mp3"
"","1059.0549999615178","html-button-response","258","1139197","0.0-21.0-4.3","77740","","<p>Which tone was played fourth after the cadence?</p><p>Please respond as quickly and as accurately as possible!</p>","11","","4","new_stimuli/mp3/melody_v5_v4_v6+_^7_^3+_v3_v2_v5_^4_.mp3"
"","1730.379999964498","html-button-response","259","1140928","0.0-21.0-5.3","77740","","<p>Which tone was played fifth after the cadence?</p><p>Please respond as quickly and as accurately as possible!</p>","3","","5","new_stimuli/mp3/melody_v5_v4_v6+_^7_^3+_v3_v2_v5_^4_.mp3"
"","1762.6000000163913","html-button-response","260","1142692","0.0-21.0-6.3","77740","","<p>Which tone was played sixth after the cadence?</p><p>Please respond as quickly and as accurately as possible!</p>","2","","6","new_stimuli/mp3/melody_v5_v4_v6+_^7_^3+_v3_v2_v5_^4_.mp3"
"","2127.2099999478087","html-button-response","261","1144821","0.0-21.0-7.3","77740","","<p>Which tone was played seventh after the cadence?</p><p>Please respond as quickly and as accurately as possible!</p>","7","","7","new_stimuli/mp3/melody_v5_v4_v6+_^7_^3+_v3_v2_v5_^4_.mp3"
"","1662.1099999174476","html-button-response","262","1146484","0.0-21.0-8.3","77740","","<p>Which tone was played eight after the cadence?</p><p>Please respond as quickly and as accurately as possible!</p>","9","","8","new_stimuli/mp3/melody_v5_v4_v6+_^7_^3+_v3_v2_v5_^4_.mp3"
"","1722.6399999344721","html-button-response","263","1148208","0.0-21.0-9.3","77740","","<p>Which tone was played nineth after the cadence?</p><p>Please respond as quickly and as accurately as possible!</p>","5","","9","new_stimuli/mp3/melody_v5_v4_v6+_^7_^3+_v3_v2_v5_^4_.mp3"
"","null","audio-keyboard-response","264","1160848","0.0-21.0-0.4","77740","","new_stimuli/mp3/melody_v7_v6_v5_^6_v5_v4_^5_^6_v5_.mp3","","null","",""
"","10615.890000015497","html-button-response","265","1171465","0.0-21.0-1.4","77740","","<p>Which tone was played first after the cadence?</p><p>Please respond as quickly and as accurately as possible!</p>","11","","1","new_stimuli/mp3/melody_v7_v6_v5_^6_v5_v4_^5_^6_v5_.mp3"
"","1324.3299999739975","html-button-response","266","1172792","0.0-21.0-2.4","77740","","<p>Which tone was played second after the cadence?</p><p>Please respond as quickly and as accurately as possible!</p>","9","","2","new_stimuli/mp3/melody_v7_v6_v5_^6_v5_v4_^5_^6_v5_.mp3"
"","1487.4849999323487","html-button-response","267","1174280","0.0-21.0-3.4","77740","","<p>Which tone was played third after the cadence?</p><p>Please respond as quickly and as accurately as possible!</p>","7","","3","new_stimuli/mp3/melody_v7_v6_v5_^6_v5_v4_^5_^6_v5_.mp3"
"","1362.2400000458583","html-button-response","268","1175644","0.0-21.0-4.4","77740","","<p>Which tone was played fourth after the cadence?</p><p>Please respond as quickly and as accurately as possible!</p>","5","","4","new_stimuli/mp3/melody_v7_v6_v5_^6_v5_v4_^5_^6_v5_.mp3"
"","2029.949999996461","html-button-response","269","1177675","0.0-21.0-5.4","77740","","<p>Which tone was played fifth after the cadence?</p><p>Please respond as quickly and as accurately as possible!</p>","7","","5","new_stimuli/mp3/melody_v7_v6_v5_^6_v5_v4_^5_^6_v5_.mp3"
"","736.0649999463931","html-button-response","270","1178412","0.0-21.0-6.4","77740","","<p>Which tone was played sixth after the cadence?</p><p>Please respond as quickly and as accurately as possible!</p>","9","","6","new_stimuli/mp3/melody_v7_v6_v5_^6_v5_v4_^5_^6_v5_.mp3"
"","621.3500000303611","html-button-response","271","1179035","0.0-21.0-7.4","77740","","<p>Which tone was played seventh after the cadence?</p><p>Please respond as quickly and as accurately as possible!</p>","7","","7","new_stimuli/mp3/melody_v7_v6_v5_^6_v5_v4_^5_^6_v5_.mp3"
"","597.6250000530854","html-button-response","272","1179634","0.0-21.0-8.4","77740","","<p>Which tone was played eight after the cadence?</p><p>Please respond as quickly and as accurately as possible!</p>","5","","8","new_stimuli/mp3/melody_v7_v6_v5_^6_v5_v4_^5_^6_v5_.mp3"
"","581.6600000252947","html-button-response","273","1180216","0.0-21.0-9.4","77740","","<p>Which tone was played nineth after the cadence?</p><p>Please respond as quickly and as accurately as possible!</p>","7","","9","new_stimuli/mp3/melody_v7_v6_v5_^6_v5_v4_^5_^6_v5_.mp3"
"","null","audio-keyboard-response","274","1192857","0.0-21.0-0.5","77740","","new_stimuli/mp3/melody_^3_^4_v2_v7_^1_^2_^3_3_^4_.mp3","","null","",""
"","1237.400000100024","html-button-response","275","1194096","0.0-21.0-1.5","77740","","<p>Which tone was played first after the cadence?</p><p>Please respond as quickly and as accurately as possible!</p>","4","","1","new_stimuli/mp3/melody_^3_^4_v2_v7_^1_^2_^3_3_^4_.mp3"
"","767.7299999631941","html-button-response","276","1194864","0.0-21.0-2.5","77740","","<p>Which tone was played second after the cadence?</p><p>Please respond as quickly and as accurately as possible!</p>","5","","2","new_stimuli/mp3/melody_^3_^4_v2_v7_^1_^2_^3_3_^4_.mp3"
"","904.660000000149","html-button-response","277","1195770","0.0-21.0-3.5","77740","","<p>Which tone was played third after the cadence?</p><p>Please respond as quickly and as accurately as possible!</p>","2","","3","new_stimuli/mp3/melody_^3_^4_v2_v7_^1_^2_^3_3_^4_.mp3"
"","1933.0700000282377","html-button-response","278","1197705","0.0-21.0-4.5","77740","","<p>Which tone was played fourth after the cadence?</p><p>Please respond as quickly and as accurately as possible!</p>","11","","4","new_stimuli/mp3/melody_^3_^4_v2_v7_^1_^2_^3_3_^4_.mp3"
"","1079.4300000416115","html-button-response","279","1198785","0.0-21.0-5.5","77740","","<p>Which tone was played fifth after the cadence?</p><p>Please respond as quickly and as accurately as possible!</p>","0","","5","new_stimuli/mp3/melody_^3_^4_v2_v7_^1_^2_^3_3_^4_.mp3"
"","1843.849999946542","html-button-response","280","1200631","0.0-21.0-6.5","77740","","<p>Which tone was played sixth after the cadence?</p><p>Please respond as quickly and as accurately as possible!</p>","2","","6","new_stimuli/mp3/melody_^3_^4_v2_v7_^1_^2_^3_3_^4_.mp3"
"","743.430000031367","html-button-response","281","1201375","0.0-21.0-7.5","77740","","<p>Which tone was played seventh after the cadence?</p><p>Please respond as quickly and as accurately as possible!</p>","4","","7","new_stimuli/mp3/melody_^3_^4_v2_v7_^1_^2_^3_3_^4_.mp3"
"","598.3850000193343","html-button-response","282","1201975","0.0-21.0-8.5","77740","","<p>Which tone was played eight after the cadence?</p><p>Please respond as quickly and as accurately as possible!</p>","4","","8","new_stimuli/mp3/melody_^3_^4_v2_v7_^1_^2_^3_3_^4_.mp3"
"","673.3250000979751","html-button-response","283","1202650","0.0-21.0-9.5","77740","","<p>Which tone was played nineth after the cadence?</p><p>Please respond as quickly and as accurately as possible!</p>","5","","9","new_stimuli/mp3/melody_^3_^4_v2_v7_^1_^2_^3_3_^4_.mp3"
"","null","audio-keyboard-response","284","1215584","0.0-21.0-0.6","77740","","new_stimuli/mp3/melody_^2_^4_v3_v2_v1_v3_v2+_^3_^5+_.mp3","","null","",""
"","9633.81999998819","html-button-response","285","1225220","0.0-21.0-1.6","77740","","<p>Which tone was played first after the cadence?</p><p>Please respond as quickly and as accurately as possible!</p>","2","","1","new_stimuli/mp3/melody_^2_^4_v3_v2_v1_v3_v2+_^3_^5+_.mp3"
"","3259.680000017397","html-button-response","286","1228481","0.0-21.0-2.6","77740","","<p>Which tone was played second after the cadence?</p><p>Please respond as quickly and as accurately as possible!</p>","5","","2","new_stimuli/mp3/melody_^2_^4_v3_v2_v1_v3_v2+_^3_^5+_.mp3"
"","670.5349999247119","html-button-response","287","1229152","0.0-21.0-3.6","77740","","<p>Which tone was played third after the cadence?</p><p>Please respond as quickly and as accurately as possible!</p>","4","","3","new_stimuli/mp3/melody_^2_^4_v3_v2_v1_v3_v2+_^3_^5+_.mp3"
"","1755.629999912344","html-button-response","288","1230909","0.0-21.0-4.6","77740","","<p>Which tone was played fourth after the cadence?</p><p>Please respond as quickly and as accurately as possible!</p>","2","","4","new_stimuli/mp3/melody_^2_^4_v3_v2_v1_v3_v2+_^3_^5+_.mp3"
"","1359.1999999480322","html-button-response","289","1232269","0.0-21.0-5.6","77740","","<p>Which tone was played fifth after the cadence?</p><p>Please respond as quickly and as accurately as possible!</p>","0","","5","new_stimuli/mp3/melody_^2_^4_v3_v2_v1_v3_v2+_^3_^5+_.mp3"
"","1301.4049999183044","html-button-response","290","1233572","0.0-21.0-6.6","77740","","<p>Which tone was played sixth after the cadence?</p><p>Please respond as quickly and as accurately as possible!</p>","4","","6","new_stimuli/mp3/melody_^2_^4_v3_v2_v1_v3_v2+_^3_^5+_.mp3"
"","921.7299999436364","html-button-response","291","1234494","0.0-21.0-7.6","77740","","<p>Which tone was played seventh after the cadence?</p><p>Please respond as quickly and as accurately as possible!</p>","3","","7","new_stimuli/mp3/melody_^2_^4_v3_v2_v1_v3_v2+_^3_^5+_.mp3"
"","695.6899999640882","html-button-response","292","1235191","0.0-21.0-8.6","77740","","<p>Which tone was played eight after the cadence?</p><p>Please respond as quickly and as accurately as possible!</p>","4","","8","new_stimuli/mp3/melody_^2_^4_v3_v2_v1_v3_v2+_^3_^5+_.mp3"
"","5663.489999948069","html-button-response","293","1240856","0.0-21.0-9.6","77740","","<p>Which tone was played nineth after the cadence?</p><p>Please respond as quickly and as accurately as possible!</p>","8","","9","new_stimuli/mp3/melody_^2_^4_v3_v2_v1_v3_v2+_^3_^5+_.mp3"
"","75872.19999998342","survey-text","294","1316731","0.0-22.0","77740","{""Q0"":""I first remembered which syllable starts the pattern and just sung it back to myself over and over while answering. I also tried chunking different parts. For the 9-measure melodies they generally have two sections: 4 notes and then 5 notes, so I remembered them in two chunks.""}","","","","",""
"","86393.64499994554","survey-text","295","1403129","0.0-23.0","77740","{""Q0"":""I didn't write down the answer and tried to store everything in my head, but it seems like a confounding factor could be if some people were writing the answer down and if some people were not. The people who were not writing down the answer had to do much more work than those who just remembered \""Do\"" throughout and compared each answer from Do while jotting down the answer (and not having to remember the entire pattern). ""}","","","","",""
"","20926.360000041313","survey-text","296","1424057","0.0-24.0","77740","{""Q0"":""no. It wasn't necessary, as \""do\"" was the same \""do\"" for the majority of the experiment. ""}","","","","",""
"","6803.509999997914","survey-text","297","1430862","0.0-25.0","77740","{""Q0"":""computer speakers""}","","","","",""
"","2127.6199999265373","survey-text","298","1432990","0.0-26.0","77740","{""Q0"":""f""}","","","","",""
"","2657.9449999844655","survey-text","299","1435650","0.0-27.0","77740","{""Q0"":""yes""}","","","","",""
"[{""page_index"":0,""viewing_time"":5630.555000039749}]","5630.890000029467","instructions","300","1441281","0.0-28.0","77740","","","","","",""
