"view_history","rt","trial_type","trial_index","time_elapsed","internal_node_id","subject","responses","stimulus","button_pressed","key_press","response_sequence","melody"
"[{""page_index"":0,""viewing_time"":10900},{""page_index"":1,""viewing_time"":13111},{""page_index"":2,""viewing_time"":1137}]","25148","instructions","0","25159","0.0-0.0","83098","","","","","",""
"","3365","survey-text","1","28526","0.0-1.0","83098","{""Q0"":""29""}","","","","",""
"","7335","survey-text","2","35863","0.0-2.0","83098","{""Q0"":""Masters Degree""}","","","","",""
"","6866","survey-text","3","42730","0.0-3.0","83098","{""Q0"":""moveable-do""}","","","","",""
"","4452","survey-text","4","47183","0.0-4.0","83098","{""Q0"":"".....yes""}","","","","",""
"","6872","survey-text","5","54056","0.0-5.0","83098","{""Q0"":""60""}","","","","",""
"","3165","survey-text","6","57223","0.0-6.0","83098","{""Q0"":""0""}","","","","",""
"[{""page_index"":0,""viewing_time"":1245},{""page_index"":1,""viewing_time"":36239},{""page_index"":2,""viewing_time"":1542}]","39026","instructions","7","96249","0.0-7.0","83098","","","","","",""
"","7871","audio-button-response","8","104125","0.0-8.0","83098","","stimuli/long/c-do.mp3","0","","",""
"","13120","audio-button-response","9","117247","0.0-9.0","83098","","stimuli/long/a-le.mp3","8","","",""
"[{""page_index"":0,""viewing_time"":1264},{""page_index"":1,""viewing_time"":21578}]","22842","instructions","10","140090","0.0-10.0","83098","","","","","",""
"","8325","audio-button-response","11","148416","0.0-11.0-0.0","83098","","stimuli/long/e-fa.mp3","5","","",""
"","8333","audio-button-response","12","156751","0.0-11.0-0.1","83098","","stimuli/long/c-sol.mp3","7","","",""
"","13218","audio-button-response","13","169970","0.0-11.0-0.2","83098","","stimuli/long/a-te.mp3","8","","",""
"","7477","audio-button-response","14","177448","0.0-11.0-0.3","83098","","stimuli/long/a-do8.mp3","0","","",""
"","7467","audio-button-response","15","184917","0.0-11.0-0.4","83098","","stimuli/long/e-fi.mp3","6","","",""
"","10156","audio-button-response","16","195074","0.0-11.0-0.5","83098","","stimuli/long/e-ti.mp3","11","","",""
"","12369","audio-button-response","17","207445","0.0-11.0-0.6","83098","","stimuli/long/e-re.mp3","1","","",""
"","11078","audio-button-response","18","218525","0.0-11.0-0.7","83098","","stimuli/long/c-le.mp3","8","","",""
"","10873","audio-button-response","19","229399","0.0-11.0-0.8","83098","","stimuli/long/a-le.mp3","8","","",""
"","9821","audio-button-response","20","239220","0.0-11.0-0.9","83098","","stimuli/long/c-mi.mp3","4","","",""
"","11561","audio-button-response","21","250783","0.0-11.0-0.10","83098","","stimuli/long/c-ti.mp3","11","","",""
"","9604","audio-button-response","22","260388","0.0-11.0-0.11","83098","","stimuli/long/a-re.mp3","2","","",""
"","10775","audio-button-response","23","271165","0.0-11.0-0.12","83098","","stimuli/long/c-re.mp3","2","","",""
"","10569","audio-button-response","24","281735","0.0-11.0-0.13","83098","","stimuli/long/a-fa.mp3","5","","",""
"","8713","audio-button-response","25","290450","0.0-11.0-0.14","83098","","stimuli/long/a-mi.mp3","4","","",""
"","7485","audio-button-response","26","297935","0.0-11.0-0.15","83098","","stimuli/long/e-do.mp3","0","","",""
"","12853","audio-button-response","27","310790","0.0-11.0-0.16","83098","","stimuli/long/a-sol.mp3","7","","",""
"","9128","audio-button-response","28","319918","0.0-11.0-0.17","83098","","stimuli/long/a-ra.mp3","1","","",""
"","13903","audio-button-response","29","333822","0.0-11.0-0.18","83098","","stimuli/long/e-le.mp3","3","","",""
"","12426","audio-button-response","30","346250","0.0-11.0-0.19","83098","","stimuli/long/c-la.mp3","9","","",""
"","8754","audio-button-response","31","355004","0.0-11.0-0.20","83098","","stimuli/long/c-me.mp3","3","","",""
"","10979","audio-button-response","32","365985","0.0-11.0-0.21","83098","","stimuli/long/a-me.mp3","3","","",""
"","7260","audio-button-response","33","373247","0.0-11.0-0.22","83098","","stimuli/long/a-do.mp3","0","","",""
"","9720","audio-button-response","34","382968","0.0-11.0-0.23","83098","","stimuli/long/e-me.mp3","3","","",""
"","9086","audio-button-response","35","392055","0.0-11.0-0.24","83098","","stimuli/long/e-te.mp3","10","","",""
"","8394","audio-button-response","36","400449","0.0-11.0-0.25","83098","","stimuli/long/e-mi.mp3","4","","",""
"","7756","audio-button-response","37","408207","0.0-11.0-0.26","83098","","stimuli/long/e-do8.mp3","12","","",""
"","9354","audio-button-response","38","417562","0.0-11.0-0.27","83098","","stimuli/long/e-la.mp3","9","","",""
"","8527","audio-button-response","39","426090","0.0-11.0-0.28","83098","","stimuli/long/e-sol.mp3","7","","",""
"","8182","audio-button-response","40","434273","0.0-11.0-0.29","83098","","stimuli/long/c-ra.mp3","1","","",""
"","8181","audio-button-response","41","442455","0.0-11.0-0.30","83098","","stimuli/long/e-ra.mp3","1","","",""
"","7547","audio-button-response","42","450004","0.0-11.0-0.31","83098","","stimuli/long/c-do8.mp3","12","","",""
"","8142","audio-button-response","43","458147","0.0-11.0-0.32","83098","","stimuli/long/c-fi.mp3","6","","",""
"","9158","audio-button-response","44","467307","0.0-11.0-0.33","83098","","stimuli/long/a-ti.mp3","11","","",""
"","7913","audio-button-response","45","475220","0.0-11.0-0.34","83098","","stimuli/long/a-fi.mp3","6","","",""
"","7256","audio-button-response","46","482476","0.0-11.0-0.35","83098","","stimuli/long/c-do.mp3","0","","",""
"","7871","audio-button-response","47","490348","0.0-11.0-0.36","83098","","stimuli/long/c-fa.mp3","5","","",""
"","11995","audio-button-response","48","502343","0.0-11.0-0.37","83098","","stimuli/long/a-la.mp3","9","","",""
"[{""page_index"":0,""viewing_time"":12925},{""page_index"":1,""viewing_time"":1352}]","14277","instructions","49","516621","0.0-12.0","83098","","","","","",""
"","null","audio-keyboard-response","50","525607","0.0-13.0-0.0","83098","","new_stimuli/mp3/melody_^1_^2+_.mp3","","null","",""
"","5109","html-button-response","51","530716","0.0-13.0-1.0","83098","","<p>Which tone was played first after the cadence?</p><p>Please respond as quickly and as accurately as possible!</p>","0","","1","new_stimuli/mp3/melody_^1_^2+_.mp3"
"","2521","html-button-response","52","533237","0.0-13.0-2.0","83098","","<p>Which tone was played second after the cadence?</p><p>Please respond as quickly and as accurately as possible!</p>","3","","2","new_stimuli/mp3/melody_^1_^2+_.mp3"
"","null","audio-keyboard-response","53","542383","0.0-13.0-0.1","83098","","new_stimuli/mp3/melody_v5_v1+_.mp3","","null","",""
"","5413","html-button-response","54","547798","0.0-13.0-1.1","83098","","<p>Which tone was played first after the cadence?</p><p>Please respond as quickly and as accurately as possible!</p>","1","","1","new_stimuli/mp3/melody_v5_v1+_.mp3"
"","2664","html-button-response","55","550463","0.0-13.0-2.1","83098","","<p>Which tone was played second after the cadence?</p><p>Please respond as quickly and as accurately as possible!</p>","0","","2","new_stimuli/mp3/melody_v5_v1+_.mp3"
"","null","audio-keyboard-response","56","559612","0.0-13.0-0.2","83098","","new_stimuli/mp3/melody_^5_^1+_.mp3","","null","",""
"","15121","html-button-response","57","574733","0.0-13.0-1.2","83098","","<p>Which tone was played first after the cadence?</p><p>Please respond as quickly and as accurately as possible!</p>","7","","1","new_stimuli/mp3/melody_^5_^1+_.mp3"
"","2703","html-button-response","58","577438","0.0-13.0-2.2","83098","","<p>Which tone was played second after the cadence?</p><p>Please respond as quickly and as accurately as possible!</p>","11","","2","new_stimuli/mp3/melody_^5_^1+_.mp3"
"","null","audio-keyboard-response","59","586838","0.0-13.0-0.3","83098","","new_stimuli/mp3/melody_v4_v3_buffer.mp3","","null","",""
"","3882","html-button-response","60","590720","0.0-13.0-1.3","83098","","<p>Which tone was played first after the cadence?</p><p>Please respond as quickly and as accurately as possible!</p>","5","","1","new_stimuli/mp3/melody_v4_v3_buffer.mp3"
"","978","html-button-response","61","591699","0.0-13.0-2.3","83098","","<p>Which tone was played second after the cadence?</p><p>Please respond as quickly and as accurately as possible!</p>","4","","2","new_stimuli/mp3/melody_v4_v3_buffer.mp3"
"","null","audio-keyboard-response","62","600967","0.0-13.0-0.4","83098","","new_stimuli/mp3/melody_3_^6_buffer.mp3","","null","",""
"","13196","html-button-response","63","614163","0.0-13.0-1.4","83098","","<p>Which tone was played first after the cadence?</p><p>Please respond as quickly and as accurately as possible!</p>","4","","1","new_stimuli/mp3/melody_3_^6_buffer.mp3"
"","4962","html-button-response","64","619127","0.0-13.0-2.4","83098","","<p>Which tone was played second after the cadence?</p><p>Please respond as quickly and as accurately as possible!</p>","8","","2","new_stimuli/mp3/melody_3_^6_buffer.mp3"
"","null","audio-keyboard-response","65","628298","0.0-13.0-0.5","83098","","new_stimuli/mp3/melody_v3_v2_buffer.mp3","","null","",""
"","1252","html-button-response","66","629551","0.0-13.0-1.5","83098","","<p>Which tone was played first after the cadence?</p><p>Please respond as quickly and as accurately as possible!</p>","4","","1","new_stimuli/mp3/melody_v3_v2_buffer.mp3"
"","770","html-button-response","67","630321","0.0-13.0-2.5","83098","","<p>Which tone was played second after the cadence?</p><p>Please respond as quickly and as accurately as possible!</p>","2","","2","new_stimuli/mp3/melody_v3_v2_buffer.mp3"
"","null","audio-keyboard-response","68","639757","0.0-13.0-0.6","83098","","new_stimuli/mp3/melody_v7_v3_buffer.mp3","","null","",""
"","5260","html-button-response","69","645018","0.0-13.0-1.6","83098","","<p>Which tone was played first after the cadence?</p><p>Please respond as quickly and as accurately as possible!</p>","11","","1","new_stimuli/mp3/melody_v7_v3_buffer.mp3"
"","2727","html-button-response","70","647746","0.0-13.0-2.6","83098","","<p>Which tone was played second after the cadence?</p><p>Please respond as quickly and as accurately as possible!</p>","0","","2","new_stimuli/mp3/melody_v7_v3_buffer.mp3"
"","null","audio-keyboard-response","71","656894","0.0-13.0-0.7","83098","","new_stimuli/mp3/melody_^2_v7-_.mp3","","null","",""
"","12845","html-button-response","72","669739","0.0-13.0-1.7","83098","","<p>Which tone was played first after the cadence?</p><p>Please respond as quickly and as accurately as possible!</p>","2","","1","new_stimuli/mp3/melody_^2_v7-_.mp3"
"","4118","html-button-response","73","673858","0.0-13.0-2.7","83098","","<p>Which tone was played second after the cadence?</p><p>Please respond as quickly and as accurately as possible!</p>","10","","2","new_stimuli/mp3/melody_^2_v7-_.mp3"
"","null","audio-keyboard-response","74","682900","0.0-13.0-0.8","83098","","new_stimuli/mp3/melody_v2_v1_.mp3","","null","",""
"","938","html-button-response","75","683839","0.0-13.0-1.8","83098","","<p>Which tone was played first after the cadence?</p><p>Please respond as quickly and as accurately as possible!</p>","2","","1","new_stimuli/mp3/melody_v2_v1_.mp3"
"","707","html-button-response","76","684546","0.0-13.0-2.8","83098","","<p>Which tone was played second after the cadence?</p><p>Please respond as quickly and as accurately as possible!</p>","0","","2","new_stimuli/mp3/melody_v2_v1_.mp3"
"","null","audio-keyboard-response","77","693976","0.0-13.0-0.9","83098","","new_stimuli/mp3/melody_^3_v4+_buffer.mp3","","null","",""
"","11952","html-button-response","78","705929","0.0-13.0-1.9","83098","","<p>Which tone was played first after the cadence?</p><p>Please respond as quickly and as accurately as possible!</p>","4","","1","new_stimuli/mp3/melody_^3_v4+_buffer.mp3"
"","706","html-button-response","79","706636","0.0-13.0-2.9","83098","","<p>Which tone was played second after the cadence?</p><p>Please respond as quickly and as accurately as possible!</p>","6","","2","new_stimuli/mp3/melody_^3_v4+_buffer.mp3"
"[{""page_index"":0,""viewing_time"":2290},{""page_index"":1,""viewing_time"":947},{""page_index"":2,""viewing_time"":1153}]","4390","instructions","80","711026","0.0-14.0","83098","","","","","",""
"","null","audio-keyboard-response","81","720586","0.0-15.0-0.0","83098","","new_stimuli/mp3/melody_v1_v7-_7-_buffer.mp3","","null","",""
"","1218","html-button-response","82","721804","0.0-15.0-1.0","83098","","<p>Which tone was played first after the cadence?</p><p>Please respond as quickly and as accurately as possible!</p>","12","","1","new_stimuli/mp3/melody_v1_v7-_7-_buffer.mp3"
"","1384","html-button-response","83","723189","0.0-15.0-2.0","83098","","<p>Which tone was played second after the cadence?</p><p>Please respond as quickly and as accurately as possible!</p>","10","","2","new_stimuli/mp3/melody_v1_v7-_7-_buffer.mp3"
"","515","html-button-response","84","723705","0.0-15.0-3.0","83098","","<p>Which tone was played third after the cadence?</p><p>Please respond as quickly and as accurately as possible!</p>","10","","3","new_stimuli/mp3/melody_v1_v7-_7-_buffer.mp3"
"","null","audio-keyboard-response","85","733578","0.0-15.0-0.1","83098","","new_stimuli/mp3/melody_^1_v6_v5+_.mp3","","null","",""
"","850","html-button-response","86","734429","0.0-15.0-1.1","83098","","<p>Which tone was played first after the cadence?</p><p>Please respond as quickly and as accurately as possible!</p>","12","","1","new_stimuli/mp3/melody_^1_v6_v5+_.mp3"
"","7476","html-button-response","87","741905","0.0-15.0-2.1","83098","","<p>Which tone was played second after the cadence?</p><p>Please respond as quickly and as accurately as possible!</p>","7","","2","new_stimuli/mp3/melody_^1_v6_v5+_.mp3"
"","2067","html-button-response","88","743973","0.0-15.0-3.1","83098","","<p>Which tone was played third after the cadence?</p><p>Please respond as quickly and as accurately as possible!</p>","8","","3","new_stimuli/mp3/melody_^1_v6_v5+_.mp3"
"","null","audio-keyboard-response","89","753582","0.0-15.0-0.2","83098","","new_stimuli/mp3/melody_6_^1_v5_.mp3","","null","",""
"","7714","html-button-response","90","761298","0.0-15.0-1.2","83098","","<p>Which tone was played first after the cadence?</p><p>Please respond as quickly and as accurately as possible!</p>","9","","1","new_stimuli/mp3/melody_6_^1_v5_.mp3"
"","3029","html-button-response","91","764328","0.0-15.0-2.2","83098","","<p>Which tone was played second after the cadence?</p><p>Please respond as quickly and as accurately as possible!</p>","12","","2","new_stimuli/mp3/melody_6_^1_v5_.mp3"
"","1025","html-button-response","92","765354","0.0-15.0-3.2","83098","","<p>Which tone was played third after the cadence?</p><p>Please respond as quickly and as accurately as possible!</p>","7","","3","new_stimuli/mp3/melody_6_^1_v5_.mp3"
"","null","audio-keyboard-response","93","775281","0.0-15.0-0.3","83098","","new_stimuli/mp3/melody_v5_v4_v3_buffer.mp3","","null","",""
"","1640","html-button-response","94","776922","0.0-15.0-1.3","83098","","<p>Which tone was played first after the cadence?</p><p>Please respond as quickly and as accurately as possible!</p>","7","","1","new_stimuli/mp3/melody_v5_v4_v3_buffer.mp3"
"","706","html-button-response","95","777630","0.0-15.0-2.3","83098","","<p>Which tone was played second after the cadence?</p><p>Please respond as quickly and as accurately as possible!</p>","5","","2","new_stimuli/mp3/melody_v5_v4_v3_buffer.mp3"
"","1555","html-button-response","96","779188","0.0-15.0-3.3","83098","","<p>Which tone was played third after the cadence?</p><p>Please respond as quickly and as accurately as possible!</p>","4","","3","new_stimuli/mp3/melody_v5_v4_v3_buffer.mp3"
"","null","audio-keyboard-response","97","788668","0.0-15.0-0.4","83098","","new_stimuli/mp3/melody_1_v1+_^2_.mp3","","null","",""
"","883","html-button-response","98","789552","0.0-15.0-1.4","83098","","<p>Which tone was played first after the cadence?</p><p>Please respond as quickly and as accurately as possible!</p>","0","","1","new_stimuli/mp3/melody_1_v1+_^2_.mp3"
"","468","html-button-response","99","790022","0.0-15.0-2.4","83098","","<p>Which tone was played second after the cadence?</p><p>Please respond as quickly and as accurately as possible!</p>","1","","2","new_stimuli/mp3/melody_1_v1+_^2_.mp3"
"","461","html-button-response","100","790482","0.0-15.0-3.4","83098","","<p>Which tone was played third after the cadence?</p><p>Please respond as quickly and as accurately as possible!</p>","2","","3","new_stimuli/mp3/melody_1_v1+_^2_.mp3"
"","null","audio-keyboard-response","101","800022","0.0-15.0-0.5","83098","","new_stimuli/mp3/melody_v1_v7-_^7_.mp3","","null","",""
"","1087","html-button-response","102","801110","0.0-15.0-1.5","83098","","<p>Which tone was played first after the cadence?</p><p>Please respond as quickly and as accurately as possible!</p>","12","","1","new_stimuli/mp3/melody_v1_v7-_^7_.mp3"
"","1987","html-button-response","103","803099","0.0-15.0-2.5","83098","","<p>Which tone was played second after the cadence?</p><p>Please respond as quickly and as accurately as possible!</p>","10","","2","new_stimuli/mp3/melody_v1_v7-_^7_.mp3"
"","421","html-button-response","104","803520","0.0-15.0-3.5","83098","","<p>Which tone was played third after the cadence?</p><p>Please respond as quickly and as accurately as possible!</p>","11","","3","new_stimuli/mp3/melody_v1_v7-_^7_.mp3"
"","null","audio-keyboard-response","105","813479","0.0-15.0-0.6","83098","","new_stimuli/mp3/melody_v2_v5_^3_buffer.mp3","","null","",""
"","7015","html-button-response","106","820497","0.0-15.0-1.6","83098","","<p>Which tone was played first after the cadence?</p><p>Please respond as quickly and as accurately as possible!</p>","2","","1","new_stimuli/mp3/melody_v2_v5_^3_buffer.mp3"
"","1508","html-button-response","107","822009","0.0-15.0-2.6","83098","","<p>Which tone was played second after the cadence?</p><p>Please respond as quickly and as accurately as possible!</p>","7","","2","new_stimuli/mp3/melody_v2_v5_^3_buffer.mp3"
"","1097","html-button-response","108","823107","0.0-15.0-3.6","83098","","<p>Which tone was played third after the cadence?</p><p>Please respond as quickly and as accurately as possible!</p>","0","","3","new_stimuli/mp3/melody_v2_v5_^3_buffer.mp3"
"","null","audio-keyboard-response","109","832774","0.0-15.0-0.7","83098","","new_stimuli/mp3/melody_v4_v3_v2_buffer.mp3","","null","",""
"","1559","html-button-response","110","834336","0.0-15.0-1.7","83098","","<p>Which tone was played first after the cadence?</p><p>Please respond as quickly and as accurately as possible!</p>","5","","1","new_stimuli/mp3/melody_v4_v3_v2_buffer.mp3"
"","524","html-button-response","111","834861","0.0-15.0-2.7","83098","","<p>Which tone was played second after the cadence?</p><p>Please respond as quickly and as accurately as possible!</p>","4","","2","new_stimuli/mp3/melody_v4_v3_v2_buffer.mp3"
"","952","html-button-response","112","835815","0.0-15.0-3.7","83098","","<p>Which tone was played third after the cadence?</p><p>Please respond as quickly and as accurately as possible!</p>","2","","3","new_stimuli/mp3/melody_v4_v3_v2_buffer.mp3"
"","null","audio-keyboard-response","113","845360","0.0-15.0-0.8","83098","","new_stimuli/mp3/melody_v3_v2_v1_.mp3","","null","",""
"","1286","html-button-response","114","846646","0.0-15.0-1.8","83098","","<p>Which tone was played first after the cadence?</p><p>Please respond as quickly and as accurately as possible!</p>","4","","1","new_stimuli/mp3/melody_v3_v2_v1_.mp3"
"","675","html-button-response","115","847322","0.0-15.0-2.8","83098","","<p>Which tone was played second after the cadence?</p><p>Please respond as quickly and as accurately as possible!</p>","2","","2","new_stimuli/mp3/melody_v3_v2_v1_.mp3"
"","523","html-button-response","116","847847","0.0-15.0-3.8","83098","","<p>Which tone was played third after the cadence?</p><p>Please respond as quickly and as accurately as possible!</p>","0","","3","new_stimuli/mp3/melody_v3_v2_v1_.mp3"
"[{""page_index"":0,""viewing_time"":1590},{""page_index"":1,""viewing_time"":3141},{""page_index"":2,""viewing_time"":875}]","5606","instructions","117","853453","0.0-16.0","83098","","","","","",""
"","null","audio-keyboard-response","118","864145","0.0-17.0-0.0","83098","","new_stimuli/mp3/melody_^6_v5_v4_v3_v2_buffer.mp3","","null","",""
"","6118","html-button-response","119","870264","0.0-17.0-1.0","83098","","<p>Which tone was played first after the cadence?</p><p>Please respond as quickly and as accurately as possible!</p>","9","","1","new_stimuli/mp3/melody_^6_v5_v4_v3_v2_buffer.mp3"
"","577","html-button-response","120","870844","0.0-17.0-2.0","83098","","<p>Which tone was played second after the cadence?</p><p>Please respond as quickly and as accurately as possible!</p>","7","","2","new_stimuli/mp3/melody_^6_v5_v4_v3_v2_buffer.mp3"
"","611","html-button-response","121","871457","0.0-17.0-3.0","83098","","<p>Which tone was played third after the cadence?</p><p>Please respond as quickly and as accurately as possible!</p>","5","","3","new_stimuli/mp3/melody_^6_v5_v4_v3_v2_buffer.mp3"
"","771","html-button-response","122","872229","0.0-17.0-4.0","83098","","<p>Which tone was played fourth after the cadence?</p><p>Please respond as quickly and as accurately as possible!</p>","4","","4","new_stimuli/mp3/melody_^6_v5_v4_v3_v2_buffer.mp3"
"","1072","html-button-response","123","873302","0.0-17.0-5.0","83098","","<p>Which tone was played fifth after the cadence?</p><p>Please respond as quickly and as accurately as possible!</p>","2","","5","new_stimuli/mp3/melody_^6_v5_v4_v3_v2_buffer.mp3"
"","null","audio-keyboard-response","124","884220","0.0-17.0-0.1","83098","","new_stimuli/mp3/melody_^5_^6_v5_v4_v3_buffer.mp3","","null","",""
"","1121","html-button-response","125","885342","0.0-17.0-1.1","83098","","<p>Which tone was played first after the cadence?</p><p>Please respond as quickly and as accurately as possible!</p>","7","","1","new_stimuli/mp3/melody_^5_^6_v5_v4_v3_buffer.mp3"
"","754","html-button-response","126","886097","0.0-17.0-2.1","83098","","<p>Which tone was played second after the cadence?</p><p>Please respond as quickly and as accurately as possible!</p>","9","","2","new_stimuli/mp3/melody_^5_^6_v5_v4_v3_buffer.mp3"
"","699","html-button-response","127","886798","0.0-17.0-3.1","83098","","<p>Which tone was played third after the cadence?</p><p>Please respond as quickly and as accurately as possible!</p>","7","","3","new_stimuli/mp3/melody_^5_^6_v5_v4_v3_buffer.mp3"
"","723","html-button-response","128","887522","0.0-17.0-4.1","83098","","<p>Which tone was played fourth after the cadence?</p><p>Please respond as quickly and as accurately as possible!</p>","5","","4","new_stimuli/mp3/melody_^5_^6_v5_v4_v3_buffer.mp3"
"","682","html-button-response","129","888205","0.0-17.0-5.1","83098","","<p>Which tone was played fifth after the cadence?</p><p>Please respond as quickly and as accurately as possible!</p>","4","","5","new_stimuli/mp3/melody_^5_^6_v5_v4_v3_buffer.mp3"
"","null","audio-keyboard-response","130","898812","0.0-17.0-0.2","83098","","new_stimuli/mp3/melody_v5_^6+_^7_^1_5_.mp3","","null","",""
"","1085","html-button-response","131","899899","0.0-17.0-1.2","83098","","<p>Which tone was played first after the cadence?</p><p>Please respond as quickly and as accurately as possible!</p>","7","","1","new_stimuli/mp3/melody_v5_^6+_^7_^1_5_.mp3"
"","842","html-button-response","132","900741","0.0-17.0-2.2","83098","","<p>Which tone was played second after the cadence?</p><p>Please respond as quickly and as accurately as possible!</p>","9","","2","new_stimuli/mp3/melody_v5_^6+_^7_^1_5_.mp3"
"","1153","html-button-response","133","901894","0.0-17.0-3.2","83098","","<p>Which tone was played third after the cadence?</p><p>Please respond as quickly and as accurately as possible!</p>","11","","3","new_stimuli/mp3/melody_v5_^6+_^7_^1_5_.mp3"
"","682","html-button-response","134","902579","0.0-17.0-4.2","83098","","<p>Which tone was played fourth after the cadence?</p><p>Please respond as quickly and as accurately as possible!</p>","12","","4","new_stimuli/mp3/melody_v5_^6+_^7_^1_5_.mp3"
"","1001","html-button-response","135","903580","0.0-17.0-5.2","83098","","<p>Which tone was played fifth after the cadence?</p><p>Please respond as quickly and as accurately as possible!</p>","9","","5","new_stimuli/mp3/melody_v5_^6+_^7_^1_5_.mp3"
"","null","audio-keyboard-response","136","914127","0.0-17.0-0.3","83098","","new_stimuli/mp3/melody_v2_2_^3_^4_v2_.mp3","","null","",""
"","1900","html-button-response","137","916029","0.0-17.0-1.3","83098","","<p>Which tone was played first after the cadence?</p><p>Please respond as quickly and as accurately as possible!</p>","2","","1","new_stimuli/mp3/melody_v2_2_^3_^4_v2_.mp3"
"","423","html-button-response","138","916451","0.0-17.0-2.3","83098","","<p>Which tone was played second after the cadence?</p><p>Please respond as quickly and as accurately as possible!</p>","2","","2","new_stimuli/mp3/melody_v2_2_^3_^4_v2_.mp3"
"","610","html-button-response","139","917062","0.0-17.0-3.3","83098","","<p>Which tone was played third after the cadence?</p><p>Please respond as quickly and as accurately as possible!</p>","4","","3","new_stimuli/mp3/melody_v2_2_^3_^4_v2_.mp3"
"","532","html-button-response","140","917595","0.0-17.0-4.3","83098","","<p>Which tone was played fourth after the cadence?</p><p>Please respond as quickly and as accurately as possible!</p>","5","","4","new_stimuli/mp3/melody_v2_2_^3_^4_v2_.mp3"
"","690","html-button-response","141","918287","0.0-17.0-5.3","83098","","<p>Which tone was played fifth after the cadence?</p><p>Please respond as quickly and as accurately as possible!</p>","2","","5","new_stimuli/mp3/melody_v2_2_^3_^4_v2_.mp3"
"","null","audio-keyboard-response","142","928836","0.0-17.0-0.4","83098","","new_stimuli/mp3/melody_v5_v4_v3_v2_v1 _buffer.mp3","","null","",""
"","888","html-button-response","143","929727","0.0-17.0-1.4","83098","","<p>Which tone was played first after the cadence?</p><p>Please respond as quickly and as accurately as possible!</p>","7","","1","new_stimuli/mp3/melody_v5_v4_v3_v2_v1 _buffer.mp3"
"","603","html-button-response","144","930332","0.0-17.0-2.4","83098","","<p>Which tone was played second after the cadence?</p><p>Please respond as quickly and as accurately as possible!</p>","5","","2","new_stimuli/mp3/melody_v5_v4_v3_v2_v1 _buffer.mp3"
"","501","html-button-response","145","930834","0.0-17.0-3.4","83098","","<p>Which tone was played third after the cadence?</p><p>Please respond as quickly and as accurately as possible!</p>","4","","3","new_stimuli/mp3/melody_v5_v4_v3_v2_v1 _buffer.mp3"
"","667","html-button-response","146","931502","0.0-17.0-4.4","83098","","<p>Which tone was played fourth after the cadence?</p><p>Please respond as quickly and as accurately as possible!</p>","2","","4","new_stimuli/mp3/melody_v5_v4_v3_v2_v1 _buffer.mp3"
"","681","html-button-response","147","932184","0.0-17.0-5.4","83098","","<p>Which tone was played fifth after the cadence?</p><p>Please respond as quickly and as accurately as possible!</p>","0","","5","new_stimuli/mp3/melody_v5_v4_v3_v2_v1 _buffer.mp3"
"","null","audio-keyboard-response","148","943106","0.0-17.0-0.5","83098","","new_stimuli/mp3/melody_v5-_v3_3_^4+_v3_.mp3","","null","",""
"","1545","html-button-response","149","944651","0.0-17.0-1.5","83098","","<p>Which tone was played first after the cadence?</p><p>Please respond as quickly and as accurately as possible!</p>","6","","1","new_stimuli/mp3/melody_v5-_v3_3_^4+_v3_.mp3"
"","1328","html-button-response","150","945980","0.0-17.0-2.5","83098","","<p>Which tone was played second after the cadence?</p><p>Please respond as quickly and as accurately as possible!</p>","4","","2","new_stimuli/mp3/melody_v5-_v3_3_^4+_v3_.mp3"
"","492","html-button-response","151","946474","0.0-17.0-3.5","83098","","<p>Which tone was played third after the cadence?</p><p>Please respond as quickly and as accurately as possible!</p>","4","","3","new_stimuli/mp3/melody_v5-_v3_3_^4+_v3_.mp3"
"","858","html-button-response","152","947332","0.0-17.0-4.5","83098","","<p>Which tone was played fourth after the cadence?</p><p>Please respond as quickly and as accurately as possible!</p>","6","","4","new_stimuli/mp3/melody_v5-_v3_3_^4+_v3_.mp3"
"","620","html-button-response","153","947952","0.0-17.0-5.5","83098","","<p>Which tone was played fifth after the cadence?</p><p>Please respond as quickly and as accurately as possible!</p>","4","","5","new_stimuli/mp3/melody_v5-_v3_3_^4+_v3_.mp3"
"","null","audio-keyboard-response","154","958500","0.0-17.0-0.6","83098","","new_stimuli/mp3/melody_v5_v4_v3_v2_v1_.mp3","","null","",""
"","644","html-button-response","155","959146","0.0-17.0-1.6","83098","","<p>Which tone was played first after the cadence?</p><p>Please respond as quickly and as accurately as possible!</p>","7","","1","new_stimuli/mp3/melody_v5_v4_v3_v2_v1_.mp3"
"","581","html-button-response","156","959726","0.0-17.0-2.6","83098","","<p>Which tone was played second after the cadence?</p><p>Please respond as quickly and as accurately as possible!</p>","5","","2","new_stimuli/mp3/melody_v5_v4_v3_v2_v1_.mp3"
"","747","html-button-response","157","960473","0.0-17.0-3.6","83098","","<p>Which tone was played third after the cadence?</p><p>Please respond as quickly and as accurately as possible!</p>","4","","3","new_stimuli/mp3/melody_v5_v4_v3_v2_v1_.mp3"
"","715","html-button-response","158","961189","0.0-17.0-4.6","83098","","<p>Which tone was played fourth after the cadence?</p><p>Please respond as quickly and as accurately as possible!</p>","2","","4","new_stimuli/mp3/melody_v5_v4_v3_v2_v1_.mp3"
"","667","html-button-response","159","961856","0.0-17.0-5.6","83098","","<p>Which tone was played fifth after the cadence?</p><p>Please respond as quickly and as accurately as possible!</p>","0","","5","new_stimuli/mp3/melody_v5_v4_v3_v2_v1_.mp3"
"","null","audio-keyboard-response","160","972467","0.0-17.0-0.7","83098","","new_stimuli/mp3/melody_^6_v4_v3_^4_^5_.mp3","","null","",""
"","4062","html-button-response","161","976531","0.0-17.0-1.7","83098","","<p>Which tone was played first after the cadence?</p><p>Please respond as quickly and as accurately as possible!</p>","9","","1","new_stimuli/mp3/melody_^6_v4_v3_^4_^5_.mp3"
"","1408","html-button-response","162","977938","0.0-17.0-2.7","83098","","<p>Which tone was played second after the cadence?</p><p>Please respond as quickly and as accurately as possible!</p>","5","","2","new_stimuli/mp3/melody_^6_v4_v3_^4_^5_.mp3"
"","1072","html-button-response","163","979011","0.0-17.0-3.7","83098","","<p>Which tone was played third after the cadence?</p><p>Please respond as quickly and as accurately as possible!</p>","4","","3","new_stimuli/mp3/melody_^6_v4_v3_^4_^5_.mp3"
"","572","html-button-response","164","979585","0.0-17.0-4.7","83098","","<p>Which tone was played fourth after the cadence?</p><p>Please respond as quickly and as accurately as possible!</p>","5","","4","new_stimuli/mp3/melody_^6_v4_v3_^4_^5_.mp3"
"","746","html-button-response","165","980332","0.0-17.0-5.7","83098","","<p>Which tone was played fifth after the cadence?</p><p>Please respond as quickly and as accurately as possible!</p>","7","","5","new_stimuli/mp3/melody_^6_v4_v3_^4_^5_.mp3"
"[{""page_index"":0,""viewing_time"":930},{""page_index"":1,""viewing_time"":899},{""page_index"":2,""viewing_time"":676}]","2505","instructions","166","982837","0.0-18.0","83098","","","","","",""
"","null","audio-keyboard-response","167","994515","0.0-19.0-0.0","83098","","new_stimuli/mp3/melody_^4_^5_^6_v5_v4_v3_v2_.mp3","","null","",""
"","1473","html-button-response","168","995990","0.0-19.0-1.0","83098","","<p>Which tone was played first after the cadence?</p><p>Please respond as quickly and as accurately as possible!</p>","5","","1","new_stimuli/mp3/melody_^4_^5_^6_v5_v4_v3_v2_.mp3"
"","1193","html-button-response","169","997183","0.0-19.0-2.0","83098","","<p>Which tone was played second after the cadence?</p><p>Please respond as quickly and as accurately as possible!</p>","7","","2","new_stimuli/mp3/melody_^4_^5_^6_v5_v4_v3_v2_.mp3"
"","580","html-button-response","170","997763","0.0-19.0-3.0","83098","","<p>Which tone was played third after the cadence?</p><p>Please respond as quickly and as accurately as possible!</p>","8","","3","new_stimuli/mp3/melody_^4_^5_^6_v5_v4_v3_v2_.mp3"
"","420","html-button-response","171","998184","0.0-19.0-4.0","83098","","<p>Which tone was played fourth after the cadence?</p><p>Please respond as quickly and as accurately as possible!</p>","7","","4","new_stimuli/mp3/melody_^4_^5_^6_v5_v4_v3_v2_.mp3"
"","644","html-button-response","172","998828","0.0-19.0-5.0","83098","","<p>Which tone was played fifth after the cadence?</p><p>Please respond as quickly and as accurately as possible!</p>","5","","5","new_stimuli/mp3/melody_^4_^5_^6_v5_v4_v3_v2_.mp3"
"","524","html-button-response","173","999353","0.0-19.0-6.0","83098","","<p>Which tone was played sixth after the cadence?</p><p>Please respond as quickly and as accurately as possible!</p>","4","","6","new_stimuli/mp3/melody_^4_^5_^6_v5_v4_v3_v2_.mp3"
"","969","html-button-response","174","1000323","0.0-19.0-7.0","83098","","<p>Which tone was played seventh after the cadence?</p><p>Please respond as quickly and as accurately as possible!</p>","2","","7","new_stimuli/mp3/melody_^4_^5_^6_v5_v4_v3_v2_.mp3"
"","null","audio-keyboard-response","175","1011976","0.0-19.0-0.1","83098","","new_stimuli/mp3/melody_^4_v6-_v5-_^6-_^4_v2-_2-_.mp3","","null","",""
"","3189","html-button-response","176","1015166","0.0-19.0-1.1","83098","","<p>Which tone was played first after the cadence?</p><p>Please respond as quickly and as accurately as possible!</p>","6","","1","new_stimuli/mp3/melody_^4_v6-_v5-_^6-_^4_v2-_2-_.mp3"
"","189","html-button-response","177","1015357","0.0-19.0-2.1","83098","","<p>Which tone was played second after the cadence?</p><p>Please respond as quickly and as accurately as possible!</p>","6","","2","new_stimuli/mp3/melody_^4_v6-_v5-_^6-_^4_v2-_2-_.mp3"
"","158","html-button-response","178","1015515","0.0-19.0-3.1","83098","","<p>Which tone was played third after the cadence?</p><p>Please respond as quickly and as accurately as possible!</p>","6","","3","new_stimuli/mp3/melody_^4_v6-_v5-_^6-_^4_v2-_2-_.mp3"
"","159","html-button-response","179","1015674","0.0-19.0-4.1","83098","","<p>Which tone was played fourth after the cadence?</p><p>Please respond as quickly and as accurately as possible!</p>","6","","4","new_stimuli/mp3/melody_^4_v6-_v5-_^6-_^4_v2-_2-_.mp3"
"","142","html-button-response","180","1015818","0.0-19.0-5.1","83098","","<p>Which tone was played fifth after the cadence?</p><p>Please respond as quickly and as accurately as possible!</p>","6","","5","new_stimuli/mp3/melody_^4_v6-_v5-_^6-_^4_v2-_2-_.mp3"
"","142","html-button-response","181","1015961","0.0-19.0-6.1","83098","","<p>Which tone was played sixth after the cadence?</p><p>Please respond as quickly and as accurately as possible!</p>","6","","6","new_stimuli/mp3/melody_^4_v6-_v5-_^6-_^4_v2-_2-_.mp3"
"","133","html-button-response","182","1016096","0.0-19.0-7.1","83098","","<p>Which tone was played seventh after the cadence?</p><p>Please respond as quickly and as accurately as possible!</p>","6","","7","new_stimuli/mp3/melody_^4_v6-_v5-_^6-_^4_v2-_2-_.mp3"
"","null","audio-keyboard-response","183","1027639","0.0-19.0-0.2","83098","","new_stimuli/mp3/melody_^5_^6_v5_v4_v3_v2_v1_buffer.mp3","","null","",""
"","989","html-button-response","184","1028629","0.0-19.0-1.2","83098","","<p>Which tone was played first after the cadence?</p><p>Please respond as quickly and as accurately as possible!</p>","7","","1","new_stimuli/mp3/melody_^5_^6_v5_v4_v3_v2_v1_buffer.mp3"
"","1225","html-button-response","185","1029854","0.0-19.0-2.2","83098","","<p>Which tone was played second after the cadence?</p><p>Please respond as quickly and as accurately as possible!</p>","9","","2","new_stimuli/mp3/melody_^5_^6_v5_v4_v3_v2_v1_buffer.mp3"
"","588","html-button-response","186","1030443","0.0-19.0-3.2","83098","","<p>Which tone was played third after the cadence?</p><p>Please respond as quickly and as accurately as possible!</p>","7","","3","new_stimuli/mp3/melody_^5_^6_v5_v4_v3_v2_v1_buffer.mp3"
"","684","html-button-response","187","1031126","0.0-19.0-4.2","83098","","<p>Which tone was played fourth after the cadence?</p><p>Please respond as quickly and as accurately as possible!</p>","5","","4","new_stimuli/mp3/melody_^5_^6_v5_v4_v3_v2_v1_buffer.mp3"
"","460","html-button-response","188","1031588","0.0-19.0-5.2","83098","","<p>Which tone was played fifth after the cadence?</p><p>Please respond as quickly and as accurately as possible!</p>","4","","5","new_stimuli/mp3/melody_^5_^6_v5_v4_v3_v2_v1_buffer.mp3"
"","595","html-button-response","189","1032184","0.0-19.0-6.2","83098","","<p>Which tone was played sixth after the cadence?</p><p>Please respond as quickly and as accurately as possible!</p>","2","","6","new_stimuli/mp3/melody_^5_^6_v5_v4_v3_v2_v1_buffer.mp3"
"","516","html-button-response","190","1032701","0.0-19.0-7.2","83098","","<p>Which tone was played seventh after the cadence?</p><p>Please respond as quickly and as accurately as possible!</p>","0","","7","new_stimuli/mp3/melody_^5_^6_v5_v4_v3_v2_v1_buffer.mp3"
"","null","audio-keyboard-response","191","1044334","0.0-19.0-0.3","83098","","new_stimuli/mp3/melody_^6_v5+_v4_^5+_v3_v1_v7-_.mp3","","null","",""
"","7276","html-button-response","192","1051612","0.0-19.0-1.3","83098","","<p>Which tone was played first after the cadence?</p><p>Please respond as quickly and as accurately as possible!</p>","8","","1","new_stimuli/mp3/melody_^6_v5+_v4_^5+_v3_v1_v7-_.mp3"
"","1431","html-button-response","193","1053043","0.0-19.0-2.3","83098","","<p>Which tone was played second after the cadence?</p><p>Please respond as quickly and as accurately as possible!</p>","6","","2","new_stimuli/mp3/melody_^6_v5+_v4_^5+_v3_v1_v7-_.mp3"
"","499","html-button-response","194","1053544","0.0-19.0-3.3","83098","","<p>Which tone was played third after the cadence?</p><p>Please respond as quickly and as accurately as possible!</p>","5","","3","new_stimuli/mp3/melody_^6_v5+_v4_^5+_v3_v1_v7-_.mp3"
"","453","html-button-response","195","1053998","0.0-19.0-4.3","83098","","<p>Which tone was played fourth after the cadence?</p><p>Please respond as quickly and as accurately as possible!</p>","6","","4","new_stimuli/mp3/melody_^6_v5+_v4_^5+_v3_v1_v7-_.mp3"
"","413","html-button-response","196","1054411","0.0-19.0-5.3","83098","","<p>Which tone was played fifth after the cadence?</p><p>Please respond as quickly and as accurately as possible!</p>","5","","5","new_stimuli/mp3/melody_^6_v5+_v4_^5+_v3_v1_v7-_.mp3"
"","652","html-button-response","197","1055063","0.0-19.0-6.3","83098","","<p>Which tone was played sixth after the cadence?</p><p>Please respond as quickly and as accurately as possible!</p>","3","","6","new_stimuli/mp3/melody_^6_v5+_v4_^5+_v3_v1_v7-_.mp3"
"","468","html-button-response","198","1055533","0.0-19.0-7.3","83098","","<p>Which tone was played seventh after the cadence?</p><p>Please respond as quickly and as accurately as possible!</p>","3","","7","new_stimuli/mp3/melody_^6_v5+_v4_^5+_v3_v1_v7-_.mp3"
"","null","audio-keyboard-response","199","1067205","0.0-19.0-0.4","83098","","new_stimuli/mp3/melody_^1_v7_v6_v5_v4_v3_v2_buffer.mp3","","null","",""
"","924","html-button-response","200","1068130","0.0-19.0-1.4","83098","","<p>Which tone was played first after the cadence?</p><p>Please respond as quickly and as accurately as possible!</p>","12","","1","new_stimuli/mp3/melody_^1_v7_v6_v5_v4_v3_v2_buffer.mp3"
"","563","html-button-response","201","1068695","0.0-19.0-2.4","83098","","<p>Which tone was played second after the cadence?</p><p>Please respond as quickly and as accurately as possible!</p>","11","","2","new_stimuli/mp3/melody_^1_v7_v6_v5_v4_v3_v2_buffer.mp3"
"","682","html-button-response","202","1069379","0.0-19.0-3.4","83098","","<p>Which tone was played third after the cadence?</p><p>Please respond as quickly and as accurately as possible!</p>","9","","3","new_stimuli/mp3/melody_^1_v7_v6_v5_v4_v3_v2_buffer.mp3"
"","675","html-button-response","203","1070055","0.0-19.0-4.4","83098","","<p>Which tone was played fourth after the cadence?</p><p>Please respond as quickly and as accurately as possible!</p>","7","","4","new_stimuli/mp3/melody_^1_v7_v6_v5_v4_v3_v2_buffer.mp3"
"","731","html-button-response","204","1070786","0.0-19.0-5.4","83098","","<p>Which tone was played fifth after the cadence?</p><p>Please respond as quickly and as accurately as possible!</p>","5","","5","new_stimuli/mp3/melody_^1_v7_v6_v5_v4_v3_v2_buffer.mp3"
"","564","html-button-response","205","1071351","0.0-19.0-6.4","83098","","<p>Which tone was played sixth after the cadence?</p><p>Please respond as quickly and as accurately as possible!</p>","4","","6","new_stimuli/mp3/melody_^1_v7_v6_v5_v4_v3_v2_buffer.mp3"
"","715","html-button-response","206","1072067","0.0-19.0-7.4","83098","","<p>Which tone was played seventh after the cadence?</p><p>Please respond as quickly and as accurately as possible!</p>","2","","7","new_stimuli/mp3/melody_^1_v7_v6_v5_v4_v3_v2_buffer.mp3"
"","null","audio-keyboard-response","207","1084005","0.0-19.0-0.5","83098","","new_stimuli/mp3/melody_1_^3_v1_^5_v3_v2_^3_.mp3","","null","",""
"","931","html-button-response","208","1084936","0.0-19.0-1.5","83098","","<p>Which tone was played first after the cadence?</p><p>Please respond as quickly and as accurately as possible!</p>","0","","1","new_stimuli/mp3/melody_1_^3_v1_^5_v3_v2_^3_.mp3"
"","1568","html-button-response","209","1086505","0.0-19.0-2.5","83098","","<p>Which tone was played second after the cadence?</p><p>Please respond as quickly and as accurately as possible!</p>","4","","2","new_stimuli/mp3/melody_1_^3_v1_^5_v3_v2_^3_.mp3"
"","1065","html-button-response","210","1087570","0.0-19.0-3.5","83098","","<p>Which tone was played third after the cadence?</p><p>Please respond as quickly and as accurately as possible!</p>","0","","3","new_stimuli/mp3/melody_1_^3_v1_^5_v3_v2_^3_.mp3"
"","1526","html-button-response","211","1089098","0.0-19.0-4.5","83098","","<p>Which tone was played fourth after the cadence?</p><p>Please respond as quickly and as accurately as possible!</p>","7","","4","new_stimuli/mp3/melody_1_^3_v1_^5_v3_v2_^3_.mp3"
"","1384","html-button-response","212","1090481","0.0-19.0-5.5","83098","","<p>Which tone was played fifth after the cadence?</p><p>Please respond as quickly and as accurately as possible!</p>","4","","5","new_stimuli/mp3/melody_1_^3_v1_^5_v3_v2_^3_.mp3"
"","818","html-button-response","213","1091300","0.0-19.0-6.5","83098","","<p>Which tone was played sixth after the cadence?</p><p>Please respond as quickly and as accurately as possible!</p>","2","","6","new_stimuli/mp3/melody_1_^3_v1_^5_v3_v2_^3_.mp3"
"","627","html-button-response","214","1091929","0.0-19.0-7.5","83098","","<p>Which tone was played seventh after the cadence?</p><p>Please respond as quickly and as accurately as possible!</p>","4","","7","new_stimuli/mp3/melody_1_^3_v1_^5_v3_v2_^3_.mp3"
"","null","audio-keyboard-response","215","1103604","0.0-19.0-0.6","83098","","new_stimuli/mp3/melody_v1_^2_v1_v7_^1_^3_v2_.mp3","","null","",""
"","3052","html-button-response","216","1106656","0.0-19.0-1.6","83098","","<p>Which tone was played first after the cadence?</p><p>Please respond as quickly and as accurately as possible!</p>","0","","1","new_stimuli/mp3/melody_v1_^2_v1_v7_^1_^3_v2_.mp3"
"","914","html-button-response","217","1107570","0.0-19.0-2.6","83098","","<p>Which tone was played second after the cadence?</p><p>Please respond as quickly and as accurately as possible!</p>","2","","2","new_stimuli/mp3/melody_v1_^2_v1_v7_^1_^3_v2_.mp3"
"","596","html-button-response","218","1108167","0.0-19.0-3.6","83098","","<p>Which tone was played third after the cadence?</p><p>Please respond as quickly and as accurately as possible!</p>","0","","3","new_stimuli/mp3/melody_v1_^2_v1_v7_^1_^3_v2_.mp3"
"","1089","html-button-response","219","1109257","0.0-19.0-4.6","83098","","<p>Which tone was played fourth after the cadence?</p><p>Please respond as quickly and as accurately as possible!</p>","11","","4","new_stimuli/mp3/melody_v1_^2_v1_v7_^1_^3_v2_.mp3"
"","977","html-button-response","220","1110235","0.0-19.0-5.6","83098","","<p>Which tone was played fifth after the cadence?</p><p>Please respond as quickly and as accurately as possible!</p>","0","","5","new_stimuli/mp3/melody_v1_^2_v1_v7_^1_^3_v2_.mp3"
"","1383","html-button-response","221","1111619","0.0-19.0-6.6","83098","","<p>Which tone was played sixth after the cadence?</p><p>Please respond as quickly and as accurately as possible!</p>","4","","6","new_stimuli/mp3/melody_v1_^2_v1_v7_^1_^3_v2_.mp3"
"","811","html-button-response","222","1112430","0.0-19.0-7.6","83098","","<p>Which tone was played seventh after the cadence?</p><p>Please respond as quickly and as accurately as possible!</p>","2","","7","new_stimuli/mp3/melody_v1_^2_v1_v7_^1_^3_v2_.mp3"
"[{""page_index"":0,""viewing_time"":1344},{""page_index"":1,""viewing_time"":819},{""page_index"":2,""viewing_time"":557}]","2720","instructions","223","1115151","0.0-20.0","83098","","","","","",""
"","null","audio-keyboard-response","224","1127764","0.0-21.0-0.0","83098","","new_stimuli/mp3/melody_v7_v6_v5_^6_v5_v4_^5_^6_v5_.mp3","","null","",""
"","1440","html-button-response","225","1129205","0.0-21.0-1.0","83098","","<p>Which tone was played first after the cadence?</p><p>Please respond as quickly and as accurately as possible!</p>","11","","1","new_stimuli/mp3/melody_v7_v6_v5_^6_v5_v4_^5_^6_v5_.mp3"
"","787","html-button-response","226","1129992","0.0-21.0-2.0","83098","","<p>Which tone was played second after the cadence?</p><p>Please respond as quickly and as accurately as possible!</p>","9","","2","new_stimuli/mp3/melody_v7_v6_v5_^6_v5_v4_^5_^6_v5_.mp3"
"","699","html-button-response","227","1130692","0.0-21.0-3.0","83098","","<p>Which tone was played third after the cadence?</p><p>Please respond as quickly and as accurately as possible!</p>","7","","3","new_stimuli/mp3/melody_v7_v6_v5_^6_v5_v4_^5_^6_v5_.mp3"
"","700","html-button-response","228","1131393","0.0-21.0-4.0","83098","","<p>Which tone was played fourth after the cadence?</p><p>Please respond as quickly and as accurately as possible!</p>","5","","4","new_stimuli/mp3/melody_v7_v6_v5_^6_v5_v4_^5_^6_v5_.mp3"
"","842","html-button-response","229","1132236","0.0-21.0-5.0","83098","","<p>Which tone was played fifth after the cadence?</p><p>Please respond as quickly and as accurately as possible!</p>","7","","5","new_stimuli/mp3/melody_v7_v6_v5_^6_v5_v4_^5_^6_v5_.mp3"
"","660","html-button-response","230","1132895","0.0-21.0-6.0","83098","","<p>Which tone was played sixth after the cadence?</p><p>Please respond as quickly and as accurately as possible!</p>","9","","6","new_stimuli/mp3/melody_v7_v6_v5_^6_v5_v4_^5_^6_v5_.mp3"
"","659","html-button-response","231","1133556","0.0-21.0-7.0","83098","","<p>Which tone was played seventh after the cadence?</p><p>Please respond as quickly and as accurately as possible!</p>","7","","7","new_stimuli/mp3/melody_v7_v6_v5_^6_v5_v4_^5_^6_v5_.mp3"
"","898","html-button-response","232","1134455","0.0-21.0-8.0","83098","","<p>Which tone was played eight after the cadence?</p><p>Please respond as quickly and as accurately as possible!</p>","5","","8","new_stimuli/mp3/melody_v7_v6_v5_^6_v5_v4_^5_^6_v5_.mp3"
"","2394","html-button-response","233","1136849","0.0-21.0-9.0","83098","","<p>Which tone was played nineth after the cadence?</p><p>Please respond as quickly and as accurately as possible!</p>","6","","9","new_stimuli/mp3/melody_v7_v6_v5_^6_v5_v4_^5_^6_v5_.mp3"
"","null","audio-keyboard-response","234","1149382","0.0-21.0-0.1","83098","","new_stimuli/mp3/melody_^3_^4_^5 _^6_v5_v4_v3_v2_v1_.mp3","","null","",""
"","2673","html-button-response","235","1152056","0.0-21.0-1.1","83098","","<p>Which tone was played first after the cadence?</p><p>Please respond as quickly and as accurately as possible!</p>","2","","1","new_stimuli/mp3/melody_^3_^4_^5 _^6_v5_v4_v3_v2_v1_.mp3"
"","1049","html-button-response","236","1153106","0.0-21.0-2.1","83098","","<p>Which tone was played second after the cadence?</p><p>Please respond as quickly and as accurately as possible!</p>","4","","2","new_stimuli/mp3/melody_^3_^4_^5 _^6_v5_v4_v3_v2_v1_.mp3"
"","525","html-button-response","237","1153631","0.0-21.0-3.1","83098","","<p>Which tone was played third after the cadence?</p><p>Please respond as quickly and as accurately as possible!</p>","5","","3","new_stimuli/mp3/melody_^3_^4_^5 _^6_v5_v4_v3_v2_v1_.mp3"
"","714","html-button-response","238","1154348","0.0-21.0-4.1","83098","","<p>Which tone was played fourth after the cadence?</p><p>Please respond as quickly and as accurately as possible!</p>","7","","4","new_stimuli/mp3/melody_^3_^4_^5 _^6_v5_v4_v3_v2_v1_.mp3"
"","2544","html-button-response","239","1156892","0.0-21.0-5.1","83098","","<p>Which tone was played fifth after the cadence?</p><p>Please respond as quickly and as accurately as possible!</p>","5","","5","new_stimuli/mp3/melody_^3_^4_^5 _^6_v5_v4_v3_v2_v1_.mp3"
"","413","html-button-response","240","1157305","0.0-21.0-6.1","83098","","<p>Which tone was played sixth after the cadence?</p><p>Please respond as quickly and as accurately as possible!</p>","4","","6","new_stimuli/mp3/melody_^3_^4_^5 _^6_v5_v4_v3_v2_v1_.mp3"
"","619","html-button-response","241","1157926","0.0-21.0-7.1","83098","","<p>Which tone was played seventh after the cadence?</p><p>Please respond as quickly and as accurately as possible!</p>","2","","7","new_stimuli/mp3/melody_^3_^4_^5 _^6_v5_v4_v3_v2_v1_.mp3"
"","1026","html-button-response","242","1158952","0.0-21.0-8.1","83098","","<p>Which tone was played eight after the cadence?</p><p>Please respond as quickly and as accurately as possible!</p>","0","","8","new_stimuli/mp3/melody_^3_^4_^5 _^6_v5_v4_v3_v2_v1_.mp3"
"","931","html-button-response","243","1159883","0.0-21.0-9.1","83098","","<p>Which tone was played nineth after the cadence?</p><p>Please respond as quickly and as accurately as possible!</p>","0","","9","new_stimuli/mp3/melody_^3_^4_^5 _^6_v5_v4_v3_v2_v1_.mp3"
"","null","audio-keyboard-response","244","1172555","0.0-21.0-0.2","83098","","new_stimuli/mp3/melody_^2_^3_^4_^5_^6_v5_v4_v3_v2_buffer.mp3","","null","",""
"","3776","html-button-response","245","1176333","0.0-21.0-1.2","83098","","<p>Which tone was played first after the cadence?</p><p>Please respond as quickly and as accurately as possible!</p>","2","","1","new_stimuli/mp3/melody_^2_^3_^4_^5_^6_v5_v4_v3_v2_buffer.mp3"
"","890","html-button-response","246","1177224","0.0-21.0-2.2","83098","","<p>Which tone was played second after the cadence?</p><p>Please respond as quickly and as accurately as possible!</p>","4","","2","new_stimuli/mp3/melody_^2_^3_^4_^5_^6_v5_v4_v3_v2_buffer.mp3"
"","501","html-button-response","247","1177726","0.0-21.0-3.2","83098","","<p>Which tone was played third after the cadence?</p><p>Please respond as quickly and as accurately as possible!</p>","5","","3","new_stimuli/mp3/melody_^2_^3_^4_^5_^6_v5_v4_v3_v2_buffer.mp3"
"","643","html-button-response","248","1178370","0.0-21.0-4.2","83098","","<p>Which tone was played fourth after the cadence?</p><p>Please respond as quickly and as accurately as possible!</p>","7","","4","new_stimuli/mp3/melody_^2_^3_^4_^5_^6_v5_v4_v3_v2_buffer.mp3"
"","628","html-button-response","249","1178999","0.0-21.0-5.2","83098","","<p>Which tone was played fifth after the cadence?</p><p>Please respond as quickly and as accurately as possible!</p>","9","","5","new_stimuli/mp3/melody_^2_^3_^4_^5_^6_v5_v4_v3_v2_buffer.mp3"
"","626","html-button-response","250","1179626","0.0-21.0-6.2","83098","","<p>Which tone was played sixth after the cadence?</p><p>Please respond as quickly and as accurately as possible!</p>","7","","6","new_stimuli/mp3/melody_^2_^3_^4_^5_^6_v5_v4_v3_v2_buffer.mp3"
"","922","html-button-response","251","1180549","0.0-21.0-7.2","83098","","<p>Which tone was played seventh after the cadence?</p><p>Please respond as quickly and as accurately as possible!</p>","5","","7","new_stimuli/mp3/melody_^2_^3_^4_^5_^6_v5_v4_v3_v2_buffer.mp3"
"","468","html-button-response","252","1181018","0.0-21.0-8.2","83098","","<p>Which tone was played eight after the cadence?</p><p>Please respond as quickly and as accurately as possible!</p>","4","","8","new_stimuli/mp3/melody_^2_^3_^4_^5_^6_v5_v4_v3_v2_buffer.mp3"
"","978","html-button-response","253","1181996","0.0-21.0-9.2","83098","","<p>Which tone was played nineth after the cadence?</p><p>Please respond as quickly and as accurately as possible!</p>","2","","9","new_stimuli/mp3/melody_^2_^3_^4_^5_^6_v5_v4_v3_v2_buffer.mp3"
"","null","audio-keyboard-response","254","1194615","0.0-21.0-0.3","83098","","new_stimuli/mp3/melody_^3_^4_v2_v7_^1_^2_^3_3_^4_.mp3","","null","",""
"","4462","html-button-response","255","1199078","0.0-21.0-1.3","83098","","<p>Which tone was played first after the cadence?</p><p>Please respond as quickly and as accurately as possible!</p>","2","","1","new_stimuli/mp3/melody_^3_^4_v2_v7_^1_^2_^3_3_^4_.mp3"
"","3563","html-button-response","256","1202641","0.0-21.0-2.3","83098","","<p>Which tone was played second after the cadence?</p><p>Please respond as quickly and as accurately as possible!</p>","5","","2","new_stimuli/mp3/melody_^3_^4_v2_v7_^1_^2_^3_3_^4_.mp3"
"","1455","html-button-response","257","1204097","0.0-21.0-3.3","83098","","<p>Which tone was played third after the cadence?</p><p>Please respond as quickly and as accurately as possible!</p>","2","","3","new_stimuli/mp3/melody_^3_^4_v2_v7_^1_^2_^3_3_^4_.mp3"
"","1025","html-button-response","258","1205124","0.0-21.0-4.3","83098","","<p>Which tone was played fourth after the cadence?</p><p>Please respond as quickly and as accurately as possible!</p>","11","","4","new_stimuli/mp3/melody_^3_^4_v2_v7_^1_^2_^3_3_^4_.mp3"
"","1566","html-button-response","259","1206690","0.0-21.0-5.3","83098","","<p>Which tone was played fifth after the cadence?</p><p>Please respond as quickly and as accurately as possible!</p>","2","","5","new_stimuli/mp3/melody_^3_^4_v2_v7_^1_^2_^3_3_^4_.mp3"
"","946","html-button-response","260","1207636","0.0-21.0-6.3","83098","","<p>Which tone was played sixth after the cadence?</p><p>Please respond as quickly and as accurately as possible!</p>","4","","6","new_stimuli/mp3/melody_^3_^4_v2_v7_^1_^2_^3_3_^4_.mp3"
"","803","html-button-response","261","1208440","0.0-21.0-7.3","83098","","<p>Which tone was played seventh after the cadence?</p><p>Please respond as quickly and as accurately as possible!</p>","5","","7","new_stimuli/mp3/melody_^3_^4_v2_v7_^1_^2_^3_3_^4_.mp3"
"","818","html-button-response","262","1209260","0.0-21.0-8.3","83098","","<p>Which tone was played eight after the cadence?</p><p>Please respond as quickly and as accurately as possible!</p>","7","","8","new_stimuli/mp3/melody_^3_^4_v2_v7_^1_^2_^3_3_^4_.mp3"
"","906","html-button-response","263","1210167","0.0-21.0-9.3","83098","","<p>Which tone was played nineth after the cadence?</p><p>Please respond as quickly and as accurately as possible!</p>","7","","9","new_stimuli/mp3/melody_^3_^4_v2_v7_^1_^2_^3_3_^4_.mp3"
"","null","audio-keyboard-response","264","1223071","0.0-21.0-0.4","83098","","new_stimuli/mp3/melody_^2_^4_v3_v2_v1_v3_v2+_^3_^5+_.mp3","","null","",""
"","3576","html-button-response","265","1226648","0.0-21.0-1.4","83098","","<p>Which tone was played first after the cadence?</p><p>Please respond as quickly and as accurately as possible!</p>","2","","1","new_stimuli/mp3/melody_^2_^4_v3_v2_v1_v3_v2+_^3_^5+_.mp3"
"","3093","html-button-response","266","1229742","0.0-21.0-2.4","83098","","<p>Which tone was played second after the cadence?</p><p>Please respond as quickly and as accurately as possible!</p>","5","","2","new_stimuli/mp3/melody_^2_^4_v3_v2_v1_v3_v2+_^3_^5+_.mp3"
"","500","html-button-response","267","1230244","0.0-21.0-3.4","83098","","<p>Which tone was played third after the cadence?</p><p>Please respond as quickly and as accurately as possible!</p>","4","","3","new_stimuli/mp3/melody_^2_^4_v3_v2_v1_v3_v2+_^3_^5+_.mp3"
"","636","html-button-response","268","1230880","0.0-21.0-4.4","83098","","<p>Which tone was played fourth after the cadence?</p><p>Please respond as quickly and as accurately as possible!</p>","2","","4","new_stimuli/mp3/melody_^2_^4_v3_v2_v1_v3_v2+_^3_^5+_.mp3"
"","779","html-button-response","269","1231659","0.0-21.0-5.4","83098","","<p>Which tone was played fifth after the cadence?</p><p>Please respond as quickly and as accurately as possible!</p>","0","","5","new_stimuli/mp3/melody_^2_^4_v3_v2_v1_v3_v2+_^3_^5+_.mp3"
"","1557","html-button-response","270","1233218","0.0-21.0-6.4","83098","","<p>Which tone was played sixth after the cadence?</p><p>Please respond as quickly and as accurately as possible!</p>","4","","6","new_stimuli/mp3/melody_^2_^4_v3_v2_v1_v3_v2+_^3_^5+_.mp3"
"","842","html-button-response","271","1234061","0.0-21.0-7.4","83098","","<p>Which tone was played seventh after the cadence?</p><p>Please respond as quickly and as accurately as possible!</p>","6","","7","new_stimuli/mp3/melody_^2_^4_v3_v2_v1_v3_v2+_^3_^5+_.mp3"
"","875","html-button-response","272","1234937","0.0-21.0-8.4","83098","","<p>Which tone was played eight after the cadence?</p><p>Please respond as quickly and as accurately as possible!</p>","9","","8","new_stimuli/mp3/melody_^2_^4_v3_v2_v1_v3_v2+_^3_^5+_.mp3"
"","827","html-button-response","273","1235764","0.0-21.0-9.4","83098","","<p>Which tone was played nineth after the cadence?</p><p>Please respond as quickly and as accurately as possible!</p>","9","","9","new_stimuli/mp3/melody_^2_^4_v3_v2_v1_v3_v2+_^3_^5+_.mp3"
"","null","audio-keyboard-response","274","1248695","0.0-21.0-0.5","83098","","new_stimuli/mp3/melody_^5_^6_v5_v4_v3_v2_v1_^2_^3_buffer.mp3","","null","",""
"","3152","html-button-response","275","1251849","0.0-21.0-1.5","83098","","<p>Which tone was played first after the cadence?</p><p>Please respond as quickly and as accurately as possible!</p>","7","","1","new_stimuli/mp3/melody_^5_^6_v5_v4_v3_v2_v1_^2_^3_buffer.mp3"
"","930","html-button-response","276","1252780","0.0-21.0-2.5","83098","","<p>Which tone was played second after the cadence?</p><p>Please respond as quickly and as accurately as possible!</p>","9","","2","new_stimuli/mp3/melody_^5_^6_v5_v4_v3_v2_v1_^2_^3_buffer.mp3"
"","571","html-button-response","277","1253353","0.0-21.0-3.5","83098","","<p>Which tone was played third after the cadence?</p><p>Please respond as quickly and as accurately as possible!</p>","7","","3","new_stimuli/mp3/melody_^5_^6_v5_v4_v3_v2_v1_^2_^3_buffer.mp3"
"","555","html-button-response","278","1253909","0.0-21.0-4.5","83098","","<p>Which tone was played fourth after the cadence?</p><p>Please respond as quickly and as accurately as possible!</p>","5","","4","new_stimuli/mp3/melody_^5_^6_v5_v4_v3_v2_v1_^2_^3_buffer.mp3"
"","548","html-button-response","279","1254459","0.0-21.0-5.5","83098","","<p>Which tone was played fifth after the cadence?</p><p>Please respond as quickly and as accurately as possible!</p>","4","","5","new_stimuli/mp3/melody_^5_^6_v5_v4_v3_v2_v1_^2_^3_buffer.mp3"
"","770","html-button-response","280","1255229","0.0-21.0-6.5","83098","","<p>Which tone was played sixth after the cadence?</p><p>Please respond as quickly and as accurately as possible!</p>","2","","6","new_stimuli/mp3/melody_^5_^6_v5_v4_v3_v2_v1_^2_^3_buffer.mp3"
"","556","html-button-response","281","1255786","0.0-21.0-7.5","83098","","<p>Which tone was played seventh after the cadence?</p><p>Please respond as quickly and as accurately as possible!</p>","0","","7","new_stimuli/mp3/melody_^5_^6_v5_v4_v3_v2_v1_^2_^3_buffer.mp3"
"","1001","html-button-response","282","1256788","0.0-21.0-8.5","83098","","<p>Which tone was played eight after the cadence?</p><p>Please respond as quickly and as accurately as possible!</p>","2","","8","new_stimuli/mp3/melody_^5_^6_v5_v4_v3_v2_v1_^2_^3_buffer.mp3"
"","668","html-button-response","283","1257457","0.0-21.0-9.5","83098","","<p>Which tone was played nineth after the cadence?</p><p>Please respond as quickly and as accurately as possible!</p>","4","","9","new_stimuli/mp3/melody_^5_^6_v5_v4_v3_v2_v1_^2_^3_buffer.mp3"
"","null","audio-keyboard-response","284","1270069","0.0-21.0-0.6","83098","","new_stimuli/mp3/melody_v5_v4_v6+_^7_^3+_v3_v2_v5_^4_.mp3","","null","",""
"","3404","html-button-response","285","1273476","0.0-21.0-1.6","83098","","<p>Which tone was played first after the cadence?</p><p>Please respond as quickly and as accurately as possible!</p>","7","","1","new_stimuli/mp3/melody_v5_v4_v6+_^7_^3+_v3_v2_v5_^4_.mp3"
"","629","html-button-response","286","1274104","0.0-21.0-2.6","83098","","<p>Which tone was played second after the cadence?</p><p>Please respond as quickly and as accurately as possible!</p>","5","","2","new_stimuli/mp3/melody_v5_v4_v6+_^7_^3+_v3_v2_v5_^4_.mp3"
"","1312","html-button-response","287","1275417","0.0-21.0-3.6","83098","","<p>Which tone was played third after the cadence?</p><p>Please respond as quickly and as accurately as possible!</p>","11","","3","new_stimuli/mp3/melody_v5_v4_v6+_^7_^3+_v3_v2_v5_^4_.mp3"
"","819","html-button-response","288","1276236","0.0-21.0-4.6","83098","","<p>Which tone was played fourth after the cadence?</p><p>Please respond as quickly and as accurately as possible!</p>","0","","4","new_stimuli/mp3/melody_v5_v4_v6+_^7_^3+_v3_v2_v5_^4_.mp3"
"","2998","html-button-response","289","1279234","0.0-21.0-5.6","83098","","<p>Which tone was played fifth after the cadence?</p><p>Please respond as quickly and as accurately as possible!</p>","5","","5","new_stimuli/mp3/melody_v5_v4_v6+_^7_^3+_v3_v2_v5_^4_.mp3"
"","485","html-button-response","290","1279720","0.0-21.0-6.6","83098","","<p>Which tone was played sixth after the cadence?</p><p>Please respond as quickly and as accurately as possible!</p>","4","","6","new_stimuli/mp3/melody_v5_v4_v6+_^7_^3+_v3_v2_v5_^4_.mp3"
"","819","html-button-response","291","1280539","0.0-21.0-7.6","83098","","<p>Which tone was played seventh after the cadence?</p><p>Please respond as quickly and as accurately as possible!</p>","3","","7","new_stimuli/mp3/melody_v5_v4_v6+_^7_^3+_v3_v2_v5_^4_.mp3"
"","4596","html-button-response","292","1285136","0.0-21.0-8.6","83098","","<p>Which tone was played eight after the cadence?</p><p>Please respond as quickly and as accurately as possible!</p>","11","","8","new_stimuli/mp3/melody_v5_v4_v6+_^7_^3+_v3_v2_v5_^4_.mp3"
"","460","html-button-response","293","1285598","0.0-21.0-9.6","83098","","<p>Which tone was played nineth after the cadence?</p><p>Please respond as quickly and as accurately as possible!</p>","12","","9","new_stimuli/mp3/melody_v5_v4_v6+_^7_^3+_v3_v2_v5_^4_.mp3"
"","19304","survey-text","294","1304905","0.0-22.0","83098","{""Q0"":""Humming do, finding the interval, singing the melody back (the longer ones)""}","","","","",""
"","35596","survey-text","295","1340502","0.0-23.0","83098","{""Q0"":""Whenever chromaticism was used, it threw me off a little""}","","","","",""
"","4351","survey-text","296","1344854","0.0-24.0","83098","{""Q0"":""no""}","","","","",""
"","4266","survey-text","297","1349121","0.0-25.0","83098","{""Q0"":""computer speakers""}","","","","",""
"","2495","survey-text","298","1351618","0.0-26.0","83098","{""Q0"":""f""}","","","","",""
"","2116","survey-text","299","1353734","0.0-27.0","83098","{""Q0"":""yes""}","","","","",""
"[{""page_index"":0,""viewing_time"":4539}]","4540","instructions","300","1358275","0.0-28.0","83098","","","","","",""
