"view_history","rt","trial_type","trial_index","time_elapsed","internal_node_id","subject","responses","stimulus","button_pressed","key_press","response_sequence","melody"
"[{""page_index"":0,""viewing_time"":7369.779999999992},{""page_index"":1,""viewing_time"":24207.89500000001},{""page_index"":2,""viewing_time"":6319.895000000084}]","37898.22500000037","instructions","0","37936","0.0-0.0","88533","","","","","",""
"","4382.010000000257","survey-text","1","42320","0.0-1.0","88533","{""Q0"":""29""}","","","","",""
"","19822.80499999979","survey-text","2","62142","0.0-2.0","88533","{""Q0"":""finished terminal degree""}","","","","",""
"","15239.225000000268","survey-text","3","77381","0.0-3.0","88533","{""Q0"":""moveable-do""}","","","","",""
"","4743.195000000007","survey-text","4","82125","0.0-4.0","88533","{""Q0"":""no""}","","","","",""
"","59311.29999999984","survey-text","5","141433","0.0-5.0","88533","{""Q0"":""150""}","","","","",""
"","20551.25","survey-text","6","161984","0.0-6.0","88533","{""Q0"":""6""}","","","","",""
"[{""page_index"":0,""viewing_time"":7439.264999999985},{""page_index"":1,""viewing_time"":32975.9899999999},{""page_index"":2,""viewing_time"":2216.04000000027}]","42631.57000000001","instructions","7","204613","0.0-7.0","88533","","","","","",""
"","9837.875000000175","audio-button-response","8","214453","0.0-8.0","88533","","stimuli/long/c-do.mp3","0","","",""
"","12486.275000000198","audio-button-response","9","226939","0.0-9.0","88533","","stimuli/long/a-le.mp3","8","","",""
"[{""page_index"":0,""viewing_time"":47135.30499999979},{""page_index"":1,""viewing_time"":48367.96499999991}]","95503.51499999987","instructions","10","322437","0.0-10.0","88533","","","","","",""
"","12326.505000000005","audio-button-response","11","334765","0.0-11.0-0.0","88533","","stimuli/long/e-ti.mp3","11","","",""
"","9950.664999999863","audio-button-response","12","344716","0.0-11.0-0.1","88533","","stimuli/long/a-mi.mp3","4","","",""
"","8510.8649999997","audio-button-response","13","353228","0.0-11.0-0.2","88533","","stimuli/long/c-ra.mp3","1","","",""
"","10198.924999999697","audio-button-response","14","363427","0.0-11.0-0.3","88533","","stimuli/long/e-me.mp3","3","","",""
"","10678.360000000335","audio-button-response","15","374106","0.0-11.0-0.4","88533","","stimuli/long/e-ra.mp3","1","","",""
"","7638.870000000228","audio-button-response","16","381746","0.0-11.0-0.5","88533","","stimuli/long/a-do8.mp3","0","","",""
"","13198.754999999888","audio-button-response","17","394945","0.0-11.0-0.6","88533","","stimuli/long/c-me.mp3","8","","",""
"","9582.635000000184","audio-button-response","18","404528","0.0-11.0-0.7","88533","","stimuli/long/e-fa.mp3","5","","",""
"","10814.759999999776","audio-button-response","19","415344","0.0-11.0-0.8","88533","","stimuli/long/c-la.mp3","9","","",""
"","10318.784999999974","audio-button-response","20","425663","0.0-11.0-0.9","88533","","stimuli/long/a-re.mp3","2","","",""
"","10598.860000000044","audio-button-response","21","436262","0.0-11.0-0.10","88533","","stimuli/long/a-fa.mp3","5","","",""
"","10710.684999999998","audio-button-response","22","446974","0.0-11.0-0.11","88533","","stimuli/long/c-le.mp3","8","","",""
"","10358.505000000121","audio-button-response","23","457333","0.0-11.0-0.12","88533","","stimuli/long/e-te.mp3","10","","",""
"","10791.124999999709","audio-button-response","24","468125","0.0-11.0-0.13","88533","","stimuli/long/e-le.mp3","8","","",""
"","9070.440000000002","audio-button-response","25","477196","0.0-11.0-0.14","88533","","stimuli/long/e-do8.mp3","0","","",""
"","11086.71499999991","audio-button-response","26","488283","0.0-11.0-0.15","88533","","stimuli/long/c-ti.mp3","11","","",""
"","12854.604999999981","audio-button-response","27","501138","0.0-11.0-0.16","88533","","stimuli/long/e-re.mp3","2","","",""
"","12110.954999999609","audio-button-response","28","513249","0.0-11.0-0.17","88533","","stimuli/long/c-fi.mp3","6","","",""
"","8662.495000000054","audio-button-response","29","521913","0.0-11.0-0.18","88533","","stimuli/long/c-do.mp3","0","","",""
"","9918.899999999674","audio-button-response","30","531832","0.0-11.0-0.19","88533","","stimuli/long/e-mi.mp3","4","","",""
"","9646.649999999674","audio-button-response","31","541479","0.0-11.0-0.20","88533","","stimuli/long/a-sol.mp3","7","","",""
"","9670.990000000573","audio-button-response","32","551151","0.0-11.0-0.21","88533","","stimuli/long/e-do.mp3","0","","",""
"","10358.779999999562","audio-button-response","33","561510","0.0-11.0-0.22","88533","","stimuli/long/a-fi.mp3","6","","",""
"","8662.790000000386","audio-button-response","34","570174","0.0-11.0-0.23","88533","","stimuli/long/a-do.mp3","0","","",""
"","8046.805000000866","audio-button-response","35","578221","0.0-11.0-0.24","88533","","stimuli/long/c-sol.mp3","7","","",""
"","9510.88000000082","audio-button-response","36","587733","0.0-11.0-0.25","88533","","stimuli/long/e-fi.mp3","6","","",""
"","10998.440000000293","audio-button-response","37","598732","0.0-11.0-0.26","88533","","stimuli/long/e-la.mp3","9","","",""
"","9038.779999999795","audio-button-response","38","607772","0.0-11.0-0.27","88533","","stimuli/long/e-sol.mp3","7","","",""
"","8351.025000000023","audio-button-response","39","616123","0.0-11.0-0.28","88533","","stimuli/long/c-do8.mp3","0","","",""
"","11518.525000000373","audio-button-response","40","627642","0.0-11.0-0.29","88533","","stimuli/long/a-la.mp3","9","","",""
"","12918.935000000638","audio-button-response","41","640562","0.0-11.0-0.30","88533","","stimuli/long/a-ti.mp3","11","","",""
"","13078.540000000386","audio-button-response","42","653641","0.0-11.0-0.31","88533","","stimuli/long/a-ra.mp3","6","","",""
"","10494.81500000006","audio-button-response","43","664136","0.0-11.0-0.32","88533","","stimuli/long/a-te.mp3","10","","",""
"","11670.8549999994","audio-button-response","44","675808","0.0-11.0-0.33","88533","","stimuli/long/a-le.mp3","8","","",""
"","8798.789999999804","audio-button-response","45","684607","0.0-11.0-0.34","88533","","stimuli/long/c-mi.mp3","4","","",""
"","10182.614999999758","audio-button-response","46","694790","0.0-11.0-0.35","88533","","stimuli/long/c-fa.mp3","5","","",""
"","10478.700000000536","audio-button-response","47","705270","0.0-11.0-0.36","88533","","stimuli/long/a-me.mp3","0","","",""
"","9278.955000000657","audio-button-response","48","714549","0.0-11.0-0.37","88533","","stimuli/long/c-re.mp3","2","","",""
"[{""page_index"":0,""viewing_time"":14031.160000000498},{""page_index"":1,""viewing_time"":1607.8699999997625}]","15639.250000000233","instructions","49","730188","0.0-12.0","88533","","","","","",""
"","null","audio-keyboard-response","50","739643","0.0-13.0-0.0","88533","","new_stimuli/mp3/melody_v7_v3_buffer.mp3","","null","",""
"","4863.3499999996275","html-button-response","51","744508","0.0-13.0-1.0","88533","","<p>Which tone was played first after the cadence?</p><p>Please respond as quickly and as accurately as possible!</p>","11","","1","new_stimuli/mp3/melody_v7_v3_buffer.mp3"
"","2630.579999999958","html-button-response","52","747139","0.0-13.0-2.0","88533","","<p>Which tone was played second after the cadence?</p><p>Please respond as quickly and as accurately as possible!</p>","4","","2","new_stimuli/mp3/melody_v7_v3_buffer.mp3"
"","null","audio-keyboard-response","53","756308","0.0-13.0-0.1","88533","","new_stimuli/mp3/melody_^2_v7-_.mp3","","null","",""
"","5677.349999999977","html-button-response","54","761986","0.0-13.0-1.1","88533","","<p>Which tone was played first after the cadence?</p><p>Please respond as quickly and as accurately as possible!</p>","2","","1","new_stimuli/mp3/melody_^2_v7-_.mp3"
"","1943.025000000489","html-button-response","55","763930","0.0-13.0-2.1","88533","","<p>Which tone was played second after the cadence?</p><p>Please respond as quickly and as accurately as possible!</p>","10","","2","new_stimuli/mp3/melody_^2_v7-_.mp3"
"","null","audio-keyboard-response","56","773101","0.0-13.0-0.2","88533","","new_stimuli/mp3/melody_^5_^1+_.mp3","","null","",""
"","6763.699999999488","html-button-response","57","779865","0.0-13.0-1.2","88533","","<p>Which tone was played first after the cadence?</p><p>Please respond as quickly and as accurately as possible!</p>","7","","1","new_stimuli/mp3/melody_^5_^1+_.mp3"
"","1558.9049999999115","html-button-response","58","781425","0.0-13.0-2.2","88533","","<p>Which tone was played second after the cadence?</p><p>Please respond as quickly and as accurately as possible!</p>","1","","2","new_stimuli/mp3/melody_^5_^1+_.mp3"
"","null","audio-keyboard-response","59","790491","0.0-13.0-0.3","88533","","new_stimuli/mp3/melody_v2_v1_.mp3","","null","",""
"","1412.1050000003306","html-button-response","60","791904","0.0-13.0-1.3","88533","","<p>Which tone was played first after the cadence?</p><p>Please respond as quickly and as accurately as possible!</p>","2","","1","new_stimuli/mp3/melody_v2_v1_.mp3"
"","630.8699999998789","html-button-response","61","792536","0.0-13.0-2.3","88533","","<p>Which tone was played second after the cadence?</p><p>Please respond as quickly and as accurately as possible!</p>","0","","2","new_stimuli/mp3/melody_v2_v1_.mp3"
"","null","audio-keyboard-response","62","801834","0.0-13.0-0.4","88533","","new_stimuli/mp3/melody_3_^6_buffer.mp3","","null","",""
"","5468.864999999874","html-button-response","63","807303","0.0-13.0-1.4","88533","","<p>Which tone was played first after the cadence?</p><p>Please respond as quickly and as accurately as possible!</p>","4","","1","new_stimuli/mp3/melody_3_^6_buffer.mp3"
"","1822.9900000005728","html-button-response","64","809127","0.0-13.0-2.4","88533","","<p>Which tone was played second after the cadence?</p><p>Please respond as quickly and as accurately as possible!</p>","9","","2","new_stimuli/mp3/melody_3_^6_buffer.mp3"
"","null","audio-keyboard-response","65","818319","0.0-13.0-0.5","88533","","new_stimuli/mp3/melody_v3_v2_buffer.mp3","","null","",""
"","4702.839999999851","html-button-response","66","823022","0.0-13.0-1.5","88533","","<p>Which tone was played first after the cadence?</p><p>Please respond as quickly and as accurately as possible!</p>","4","","1","new_stimuli/mp3/melody_v3_v2_buffer.mp3"
"","1286.8399999997346","html-button-response","67","824310","0.0-13.0-2.5","88533","","<p>Which tone was played second after the cadence?</p><p>Please respond as quickly and as accurately as possible!</p>","2","","2","new_stimuli/mp3/melody_v3_v2_buffer.mp3"
"","null","audio-keyboard-response","68","833324","0.0-13.0-0.6","88533","","new_stimuli/mp3/melody_^1_^2+_.mp3","","null","",""
"","1313.125000000582","html-button-response","69","834638","0.0-13.0-1.6","88533","","<p>Which tone was played first after the cadence?</p><p>Please respond as quickly and as accurately as possible!</p>","0","","1","new_stimuli/mp3/melody_^1_^2+_.mp3"
"","774.7399999997579","html-button-response","70","835413","0.0-13.0-2.6","88533","","<p>Which tone was played second after the cadence?</p><p>Please respond as quickly and as accurately as possible!</p>","3","","2","new_stimuli/mp3/melody_^1_^2+_.mp3"
"","null","audio-keyboard-response","71","844585","0.0-13.0-0.7","88533","","new_stimuli/mp3/melody_v5_v1+_.mp3","","null","",""
"","3515.4300000004005","html-button-response","72","848101","0.0-13.0-1.7","88533","","<p>Which tone was played first after the cadence?</p><p>Please respond as quickly and as accurately as possible!</p>","7","","1","new_stimuli/mp3/melody_v5_v1+_.mp3"
"","911.0849999997299","html-button-response","73","849013","0.0-13.0-2.7","88533","","<p>Which tone was played second after the cadence?</p><p>Please respond as quickly and as accurately as possible!</p>","1","","2","new_stimuli/mp3/melody_v5_v1+_.mp3"
"","null","audio-keyboard-response","74","858446","0.0-13.0-0.8","88533","","new_stimuli/mp3/melody_v4_v3_buffer.mp3","","null","",""
"","3653.070000000298","html-button-response","75","862100","0.0-13.0-1.8","88533","","<p>Which tone was played first after the cadence?</p><p>Please respond as quickly and as accurately as possible!</p>","5","","1","new_stimuli/mp3/melody_v4_v3_buffer.mp3"
"","487.07500000006985","html-button-response","76","862588","0.0-13.0-2.8","88533","","<p>Which tone was played second after the cadence?</p><p>Please respond as quickly and as accurately as possible!</p>","4","","2","new_stimuli/mp3/melody_v4_v3_buffer.mp3"
"","null","audio-keyboard-response","77","872041","0.0-13.0-0.9","88533","","new_stimuli/mp3/melody_^3_v4+_buffer.mp3","","null","",""
"","2921.6900000000605","html-button-response","78","874963","0.0-13.0-1.9","88533","","<p>Which tone was played first after the cadence?</p><p>Please respond as quickly and as accurately as possible!</p>","4","","1","new_stimuli/mp3/melody_^3_v4+_buffer.mp3"
"","878.335000000312","html-button-response","79","875843","0.0-13.0-2.9","88533","","<p>Which tone was played second after the cadence?</p><p>Please respond as quickly and as accurately as possible!</p>","6","","2","new_stimuli/mp3/melody_^3_v4+_buffer.mp3"
"[{""page_index"":0,""viewing_time"":2735.204999999958},{""page_index"":1,""viewing_time"":2096.0699999995995},{""page_index"":2,""viewing_time"":1239.9100000002654}]","6071.35999999987","instructions","80","881915","0.0-14.0","88533","","","","","",""
"","null","audio-keyboard-response","81","891503","0.0-15.0-0.0","88533","","new_stimuli/mp3/melody_v1_v7-_7-_buffer.mp3","","null","",""
"","4465.954999999609","html-button-response","82","895970","0.0-15.0-1.0","88533","","<p>Which tone was played first after the cadence?</p><p>Please respond as quickly and as accurately as possible!</p>","12","","1","new_stimuli/mp3/melody_v1_v7-_7-_buffer.mp3"
"","622.4549999997253","html-button-response","83","896594","0.0-15.0-2.0","88533","","<p>Which tone was played second after the cadence?</p><p>Please respond as quickly and as accurately as possible!</p>","10","","2","new_stimuli/mp3/melody_v1_v7-_7-_buffer.mp3"
"","375.1450000000186","html-button-response","84","896970","0.0-15.0-3.0","88533","","<p>Which tone was played third after the cadence?</p><p>Please respond as quickly and as accurately as possible!</p>","10","","3","new_stimuli/mp3/melody_v1_v7-_7-_buffer.mp3"
"","null","audio-keyboard-response","85","906474","0.0-15.0-0.1","88533","","new_stimuli/mp3/melody_1_v1+_^2_.mp3","","null","",""
"","1358.2649999998976","html-button-response","86","907833","0.0-15.0-1.1","88533","","<p>Which tone was played first after the cadence?</p><p>Please respond as quickly and as accurately as possible!</p>","0","","1","new_stimuli/mp3/melody_1_v1+_^2_.mp3"
"","1279.4800000002142","html-button-response","87","909113","0.0-15.0-2.1","88533","","<p>Which tone was played second after the cadence?</p><p>Please respond as quickly and as accurately as possible!</p>","1","","2","new_stimuli/mp3/melody_1_v1+_^2_.mp3"
"","814.8149999997113","html-button-response","88","909929","0.0-15.0-3.1","88533","","<p>Which tone was played third after the cadence?</p><p>Please respond as quickly and as accurately as possible!</p>","2","","3","new_stimuli/mp3/melody_1_v1+_^2_.mp3"
"","null","audio-keyboard-response","89","919569","0.0-15.0-0.2","88533","","new_stimuli/mp3/melody_6_^1_v5_.mp3","","null","",""
"","6350.429999999586","html-button-response","90","925920","0.0-15.0-1.2","88533","","<p>Which tone was played first after the cadence?</p><p>Please respond as quickly and as accurately as possible!</p>","7","","1","new_stimuli/mp3/melody_6_^1_v5_.mp3"
"","647.0449999996927","html-button-response","91","926568","0.0-15.0-2.2","88533","","<p>Which tone was played second after the cadence?</p><p>Please respond as quickly and as accurately as possible!</p>","11","","2","new_stimuli/mp3/melody_6_^1_v5_.mp3"
"","1231.0500000003958","html-button-response","92","927800","0.0-15.0-3.2","88533","","<p>Which tone was played third after the cadence?</p><p>Please respond as quickly and as accurately as possible!</p>","4","","3","new_stimuli/mp3/melody_6_^1_v5_.mp3"
"","null","audio-keyboard-response","93","937360","0.0-15.0-0.3","88533","","new_stimuli/mp3/melody_v1_v7-_^7_.mp3","","null","",""
"","5598.374999999534","html-button-response","94","942959","0.0-15.0-1.3","88533","","<p>Which tone was played first after the cadence?</p><p>Please respond as quickly and as accurately as possible!</p>","9","","1","new_stimuli/mp3/melody_v1_v7-_^7_.mp3"
"","782.8600000002189","html-button-response","95","943743","0.0-15.0-2.3","88533","","<p>Which tone was played second after the cadence?</p><p>Please respond as quickly and as accurately as possible!</p>","7","","2","new_stimuli/mp3/melody_v1_v7-_^7_.mp3"
"","383.0649999999441","html-button-response","96","944127","0.0-15.0-3.3","88533","","<p>Which tone was played third after the cadence?</p><p>Please respond as quickly and as accurately as possible!</p>","8","","3","new_stimuli/mp3/melody_v1_v7-_^7_.mp3"
"","null","audio-keyboard-response","97","954077","0.0-15.0-0.4","88533","","new_stimuli/mp3/melody_v5_v4_v3_buffer.mp3","","null","",""
"","1847.9600000000792","html-button-response","98","955926","0.0-15.0-1.4","88533","","<p>Which tone was played first after the cadence?</p><p>Please respond as quickly and as accurately as possible!</p>","7","","1","new_stimuli/mp3/melody_v5_v4_v3_buffer.mp3"
"","790.859999999986","html-button-response","99","956718","0.0-15.0-2.4","88533","","<p>Which tone was played second after the cadence?</p><p>Please respond as quickly and as accurately as possible!</p>","5","","2","new_stimuli/mp3/melody_v5_v4_v3_buffer.mp3"
"","783.190000000177","html-button-response","100","957502","0.0-15.0-3.4","88533","","<p>Which tone was played third after the cadence?</p><p>Please respond as quickly and as accurately as possible!</p>","4","","3","new_stimuli/mp3/melody_v5_v4_v3_buffer.mp3"
"","null","audio-keyboard-response","101","967480","0.0-15.0-0.5","88533","","new_stimuli/mp3/melody_v2_v5_^3_buffer.mp3","","null","",""
"","6756.035000000382","html-button-response","102","974237","0.0-15.0-1.5","88533","","<p>Which tone was played first after the cadence?</p><p>Please respond as quickly and as accurately as possible!</p>","5","","1","new_stimuli/mp3/melody_v2_v5_^3_buffer.mp3"
"","839.0849999996135","html-button-response","103","975077","0.0-15.0-2.5","88533","","<p>Which tone was played second after the cadence?</p><p>Please respond as quickly and as accurately as possible!</p>","9","","2","new_stimuli/mp3/melody_v2_v5_^3_buffer.mp3"
"","822.7800000004936","html-button-response","104","975901","0.0-15.0-3.5","88533","","<p>Which tone was played third after the cadence?</p><p>Please respond as quickly and as accurately as possible!</p>","4","","3","new_stimuli/mp3/melody_v2_v5_^3_buffer.mp3"
"","null","audio-keyboard-response","105","985591","0.0-15.0-0.6","88533","","new_stimuli/mp3/melody_v4_v3_v2_buffer.mp3","","null","",""
"","8956.600000000442","html-button-response","106","994548","0.0-15.0-1.6","88533","","<p>Which tone was played first after the cadence?</p><p>Please respond as quickly and as accurately as possible!</p>","5","","1","new_stimuli/mp3/melody_v4_v3_v2_buffer.mp3"
"","494.9549999991432","html-button-response","107","995044","0.0-15.0-2.6","88533","","<p>Which tone was played second after the cadence?</p><p>Please respond as quickly and as accurately as possible!</p>","4","","2","new_stimuli/mp3/melody_v4_v3_v2_buffer.mp3"
"","734.9849999990547","html-button-response","108","995780","0.0-15.0-3.6","88533","","<p>Which tone was played third after the cadence?</p><p>Please respond as quickly and as accurately as possible!</p>","2","","3","new_stimuli/mp3/melody_v4_v3_v2_buffer.mp3"
"","null","audio-keyboard-response","109","1005338","0.0-15.0-0.7","88533","","new_stimuli/mp3/melody_v3_v2_v1_.mp3","","null","",""
"","2208.069999999716","html-button-response","110","1007547","0.0-15.0-1.7","88533","","<p>Which tone was played first after the cadence?</p><p>Please respond as quickly and as accurately as possible!</p>","4","","1","new_stimuli/mp3/melody_v3_v2_v1_.mp3"
"","1078.9850000001024","html-button-response","111","1008627","0.0-15.0-2.7","88533","","<p>Which tone was played second after the cadence?</p><p>Please respond as quickly and as accurately as possible!</p>","2","","2","new_stimuli/mp3/melody_v3_v2_v1_.mp3"
"","918.9249999999302","html-button-response","112","1009547","0.0-15.0-3.7","88533","","<p>Which tone was played third after the cadence?</p><p>Please respond as quickly and as accurately as possible!</p>","0","","3","new_stimuli/mp3/melody_v3_v2_v1_.mp3"
"","null","audio-keyboard-response","113","1019449","0.0-15.0-0.8","88533","","new_stimuli/mp3/melody_^1_v6_v5+_.mp3","","null","",""
"","6407.964999999385","html-button-response","114","1025858","0.0-15.0-1.8","88533","","<p>Which tone was played first after the cadence?</p><p>Please respond as quickly and as accurately as possible!</p>","12","","1","new_stimuli/mp3/melody_^1_v6_v5+_.mp3"
"","1582.95999999973","html-button-response","115","1027442","0.0-15.0-2.8","88533","","<p>Which tone was played second after the cadence?</p><p>Please respond as quickly and as accurately as possible!</p>","9","","2","new_stimuli/mp3/melody_^1_v6_v5+_.mp3"
"","870.8699999997625","html-button-response","116","1028314","0.0-15.0-3.8","88533","","<p>Which tone was played third after the cadence?</p><p>Please respond as quickly and as accurately as possible!</p>","8","","3","new_stimuli/mp3/melody_^1_v6_v5+_.mp3"
"[{""page_index"":0,""viewing_time"":1607.2249999997439},{""page_index"":1,""viewing_time"":1184.0000000001164},{""page_index"":2,""viewing_time"":735.9449999994831}]","3527.4099999996834","instructions","117","1031841","0.0-16.0","88533","","","","","",""
"","null","audio-keyboard-response","118","1042424","0.0-17.0-0.0","88533","","new_stimuli/mp3/melody_v2_2_^3_^4_v2_.mp3","","null","",""
"","4471.994999999995","html-button-response","119","1046897","0.0-17.0-1.0","88533","","<p>Which tone was played first after the cadence?</p><p>Please respond as quickly and as accurately as possible!</p>","2","","1","new_stimuli/mp3/melody_v2_2_^3_^4_v2_.mp3"
"","566.7949999999255","html-button-response","120","1047465","0.0-17.0-2.0","88533","","<p>Which tone was played second after the cadence?</p><p>Please respond as quickly and as accurately as possible!</p>","2","","2","new_stimuli/mp3/melody_v2_2_^3_^4_v2_.mp3"
"","759.1449999997858","html-button-response","121","1048225","0.0-17.0-3.0","88533","","<p>Which tone was played third after the cadence?</p><p>Please respond as quickly and as accurately as possible!</p>","3","","3","new_stimuli/mp3/melody_v2_2_^3_^4_v2_.mp3"
"","703.0999999996275","html-button-response","122","1048929","0.0-17.0-4.0","88533","","<p>Which tone was played fourth after the cadence?</p><p>Please respond as quickly and as accurately as possible!</p>","5","","4","new_stimuli/mp3/melody_v2_2_^3_^4_v2_.mp3"
"","1039.1250000002328","html-button-response","123","1049969","0.0-17.0-5.0","88533","","<p>Which tone was played fifth after the cadence?</p><p>Please respond as quickly and as accurately as possible!</p>","2","","5","new_stimuli/mp3/melody_v2_2_^3_^4_v2_.mp3"
"","null","audio-keyboard-response","124","1060912","0.0-17.0-0.1","88533","","new_stimuli/mp3/melody_^5_^6_v5_v4_v3_buffer.mp3","","null","",""
"","1102.9499999994878","html-button-response","125","1062016","0.0-17.0-1.1","88533","","<p>Which tone was played first after the cadence?</p><p>Please respond as quickly and as accurately as possible!</p>","7","","1","new_stimuli/mp3/melody_^5_^6_v5_v4_v3_buffer.mp3"
"","495.0399999995716","html-button-response","126","1062512","0.0-17.0-2.1","88533","","<p>Which tone was played second after the cadence?</p><p>Please respond as quickly and as accurately as possible!</p>","9","","2","new_stimuli/mp3/melody_^5_^6_v5_v4_v3_buffer.mp3"
"","523.8200000005309","html-button-response","127","1063040","0.0-17.0-3.1","88533","","<p>Which tone was played third after the cadence?</p><p>Please respond as quickly and as accurately as possible!</p>","7","","3","new_stimuli/mp3/melody_^5_^6_v5_v4_v3_buffer.mp3"
"","767.0799999996088","html-button-response","128","1063808","0.0-17.0-4.1","88533","","<p>Which tone was played fourth after the cadence?</p><p>Please respond as quickly and as accurately as possible!</p>","5","","4","new_stimuli/mp3/melody_^5_^6_v5_v4_v3_buffer.mp3"
"","487.0550000006333","html-button-response","129","1064296","0.0-17.0-5.1","88533","","<p>Which tone was played fifth after the cadence?</p><p>Please respond as quickly and as accurately as possible!</p>","4","","5","new_stimuli/mp3/melody_^5_^6_v5_v4_v3_buffer.mp3"
"","null","audio-keyboard-response","130","1075244","0.0-17.0-0.2","88533","","new_stimuli/mp3/melody_v5-_v3_3_^4+_v3_.mp3","","null","",""
"","4474.439999999944","html-button-response","131","1079719","0.0-17.0-1.2","88533","","<p>Which tone was played first after the cadence?</p><p>Please respond as quickly and as accurately as possible!</p>","6","","1","new_stimuli/mp3/melody_v5-_v3_3_^4+_v3_.mp3"
"","1830.9849999996368","html-button-response","132","1081551","0.0-17.0-2.2","88533","","<p>Which tone was played second after the cadence?</p><p>Please respond as quickly and as accurately as possible!</p>","4","","2","new_stimuli/mp3/melody_v5-_v3_3_^4+_v3_.mp3"
"","542.9699999995064","html-button-response","133","1082095","0.0-17.0-3.2","88533","","<p>Which tone was played third after the cadence?</p><p>Please respond as quickly and as accurately as possible!</p>","4","","3","new_stimuli/mp3/melody_v5-_v3_3_^4+_v3_.mp3"
"","719.1199999998789","html-button-response","134","1082815","0.0-17.0-4.2","88533","","<p>Which tone was played fourth after the cadence?</p><p>Please respond as quickly and as accurately as possible!</p>","6","","4","new_stimuli/mp3/melody_v5-_v3_3_^4+_v3_.mp3"
"","855.1850000002887","html-button-response","135","1083671","0.0-17.0-5.2","88533","","<p>Which tone was played fifth after the cadence?</p><p>Please respond as quickly and as accurately as possible!</p>","4","","5","new_stimuli/mp3/melody_v5-_v3_3_^4+_v3_.mp3"
"","null","audio-keyboard-response","136","1094376","0.0-17.0-0.3","88533","","new_stimuli/mp3/melody_^6_v5_v4_v3_v2_buffer.mp3","","null","",""
"","2261.340000000084","html-button-response","137","1096638","0.0-17.0-1.3","88533","","<p>Which tone was played first after the cadence?</p><p>Please respond as quickly and as accurately as possible!</p>","9","","1","new_stimuli/mp3/melody_^6_v5_v4_v3_v2_buffer.mp3"
"","783.1599999999162","html-button-response","138","1097422","0.0-17.0-2.3","88533","","<p>Which tone was played second after the cadence?</p><p>Please respond as quickly and as accurately as possible!</p>","7","","2","new_stimuli/mp3/melody_^6_v5_v4_v3_v2_buffer.mp3"
"","710.8400000007823","html-button-response","139","1098134","0.0-17.0-3.3","88533","","<p>Which tone was played third after the cadence?</p><p>Please respond as quickly and as accurately as possible!</p>","5","","3","new_stimuli/mp3/melody_^6_v5_v4_v3_v2_buffer.mp3"
"","487.0900000005495","html-button-response","140","1098622","0.0-17.0-4.3","88533","","<p>Which tone was played fourth after the cadence?</p><p>Please respond as quickly and as accurately as possible!</p>","4","","4","new_stimuli/mp3/melody_^6_v5_v4_v3_v2_buffer.mp3"
"","702.9999999995343","html-button-response","141","1099326","0.0-17.0-5.3","88533","","<p>Which tone was played fifth after the cadence?</p><p>Please respond as quickly and as accurately as possible!</p>","2","","5","new_stimuli/mp3/melody_^6_v5_v4_v3_v2_buffer.mp3"
"","null","audio-keyboard-response","142","1109955","0.0-17.0-0.4","88533","","new_stimuli/mp3/melody_^6_v4_v3_^4_^5_.mp3","","null","",""
"","2440.7700000000186","html-button-response","143","1112397","0.0-17.0-1.4","88533","","<p>Which tone was played first after the cadence?</p><p>Please respond as quickly and as accurately as possible!</p>","9","","1","new_stimuli/mp3/melody_^6_v4_v3_^4_^5_.mp3"
"","1927.0150000001304","html-button-response","144","1114325","0.0-17.0-2.4","88533","","<p>Which tone was played second after the cadence?</p><p>Please respond as quickly and as accurately as possible!</p>","5","","2","new_stimuli/mp3/melody_^6_v4_v3_^4_^5_.mp3"
"","518.9300000001676","html-button-response","145","1114845","0.0-17.0-3.4","88533","","<p>Which tone was played third after the cadence?</p><p>Please respond as quickly and as accurately as possible!</p>","4","","3","new_stimuli/mp3/melody_^6_v4_v3_^4_^5_.mp3"
"","471.19000000017695","html-button-response","146","1115317","0.0-17.0-4.4","88533","","<p>Which tone was played fourth after the cadence?</p><p>Please respond as quickly and as accurately as possible!</p>","5","","4","new_stimuli/mp3/melody_^6_v4_v3_^4_^5_.mp3"
"","671.089999999851","html-button-response","147","1115989","0.0-17.0-5.4","88533","","<p>Which tone was played fifth after the cadence?</p><p>Please respond as quickly and as accurately as possible!</p>","7","","5","new_stimuli/mp3/melody_^6_v4_v3_^4_^5_.mp3"
"","null","audio-keyboard-response","148","1126568","0.0-17.0-0.5","88533","","new_stimuli/mp3/melody_v5_v4_v3_v2_v1_.mp3","","null","",""
"","866.774999999674","html-button-response","149","1127436","0.0-17.0-1.5","88533","","<p>Which tone was played first after the cadence?</p><p>Please respond as quickly and as accurately as possible!</p>","7","","1","new_stimuli/mp3/melody_v5_v4_v3_v2_v1_.mp3"
"","542.7650000001304","html-button-response","150","1127980","0.0-17.0-2.5","88533","","<p>Which tone was played second after the cadence?</p><p>Please respond as quickly and as accurately as possible!</p>","5","","2","new_stimuli/mp3/melody_v5_v4_v3_v2_v1_.mp3"
"","391.5899999991525","html-button-response","151","1128372","0.0-17.0-3.5","88533","","<p>Which tone was played third after the cadence?</p><p>Please respond as quickly and as accurately as possible!</p>","4","","3","new_stimuli/mp3/melody_v5_v4_v3_v2_v1_.mp3"
"","518.600000000326","html-button-response","152","1128892","0.0-17.0-4.5","88533","","<p>Which tone was played fourth after the cadence?</p><p>Please respond as quickly and as accurately as possible!</p>","2","","4","new_stimuli/mp3/melody_v5_v4_v3_v2_v1_.mp3"
"","567.3299999998417","html-button-response","153","1129460","0.0-17.0-5.5","88533","","<p>Which tone was played fifth after the cadence?</p><p>Please respond as quickly and as accurately as possible!</p>","0","","5","new_stimuli/mp3/melody_v5_v4_v3_v2_v1_.mp3"
"","null","audio-keyboard-response","154","1140041","0.0-17.0-0.6","88533","","new_stimuli/mp3/melody_v5_v4_v3_v2_v1 _buffer.mp3","","null","",""
"","849.4899999997579","html-button-response","155","1140891","0.0-17.0-1.6","88533","","<p>Which tone was played first after the cadence?</p><p>Please respond as quickly and as accurately as possible!</p>","7","","1","new_stimuli/mp3/melody_v5_v4_v3_v2_v1 _buffer.mp3"
"","519.0499999998137","html-button-response","156","1141411","0.0-17.0-2.6","88533","","<p>Which tone was played second after the cadence?</p><p>Please respond as quickly and as accurately as possible!</p>","5","","2","new_stimuli/mp3/melody_v5_v4_v3_v2_v1 _buffer.mp3"
"","399.15500000002794","html-button-response","157","1141811","0.0-17.0-3.6","88533","","<p>Which tone was played third after the cadence?</p><p>Please respond as quickly and as accurately as possible!</p>","4","","3","new_stimuli/mp3/melody_v5_v4_v3_v2_v1 _buffer.mp3"
"","630.9999999993015","html-button-response","158","1142443","0.0-17.0-4.6","88533","","<p>Which tone was played fourth after the cadence?</p><p>Please respond as quickly and as accurately as possible!</p>","2","","4","new_stimuli/mp3/melody_v5_v4_v3_v2_v1 _buffer.mp3"
"","607.0499999998137","html-button-response","159","1143051","0.0-17.0-5.6","88533","","<p>Which tone was played fifth after the cadence?</p><p>Please respond as quickly and as accurately as possible!</p>","0","","5","new_stimuli/mp3/melody_v5_v4_v3_v2_v1 _buffer.mp3"
"","null","audio-keyboard-response","160","1153682","0.0-17.0-0.7","88533","","new_stimuli/mp3/melody_v5_^6+_^7_^1_5_.mp3","","null","",""
"","2991.889999999432","html-button-response","161","1156675","0.0-17.0-1.7","88533","","<p>Which tone was played first after the cadence?</p><p>Please respond as quickly and as accurately as possible!</p>","7","","1","new_stimuli/mp3/melody_v5_^6+_^7_^1_5_.mp3"
"","598.8649999999907","html-button-response","162","1157274","0.0-17.0-2.7","88533","","<p>Which tone was played second after the cadence?</p><p>Please respond as quickly and as accurately as possible!</p>","9","","2","new_stimuli/mp3/melody_v5_^6+_^7_^1_5_.mp3"
"","598.850000000326","html-button-response","163","1157874","0.0-17.0-3.7","88533","","<p>Which tone was played third after the cadence?</p><p>Please respond as quickly and as accurately as possible!</p>","11","","3","new_stimuli/mp3/melody_v5_^6+_^7_^1_5_.mp3"
"","519.2300000009127","html-button-response","164","1158394","0.0-17.0-4.7","88533","","<p>Which tone was played fourth after the cadence?</p><p>Please respond as quickly and as accurately as possible!</p>","12","","4","new_stimuli/mp3/melody_v5_^6+_^7_^1_5_.mp3"
"","1486.8549999999814","html-button-response","165","1159882","0.0-17.0-5.7","88533","","<p>Which tone was played fifth after the cadence?</p><p>Please respond as quickly and as accurately as possible!</p>","7","","5","new_stimuli/mp3/melody_v5_^6+_^7_^1_5_.mp3"
"[{""page_index"":0,""viewing_time"":1799.1250000004657},{""page_index"":1,""viewing_time"":984.2499999995343},{""page_index"":2,""viewing_time"":807.9100000003818}]","3591.519999999786","instructions","166","1163474","0.0-18.0","88533","","","","","",""
"","null","audio-keyboard-response","167","1175153","0.0-19.0-0.0","88533","","new_stimuli/mp3/melody_^4_v6-_v5-_^6-_^4_v2-_2-_.mp3","","null","",""
"","11263.114999999758","html-button-response","168","1186417","0.0-19.0-1.0","88533","","<p>Which tone was played first after the cadence?</p><p>Please respond as quickly and as accurately as possible!</p>","5","","1","new_stimuli/mp3/melody_^4_v6-_v5-_^6-_^4_v2-_2-_.mp3"
"","750.6899999999441","html-button-response","169","1187169","0.0-19.0-2.0","88533","","<p>Which tone was played second after the cadence?</p><p>Please respond as quickly and as accurately as possible!</p>","9","","2","new_stimuli/mp3/melody_^4_v6-_v5-_^6-_^4_v2-_2-_.mp3"
"","1919.0900000003166","html-button-response","170","1189089","0.0-19.0-3.0","88533","","<p>Which tone was played third after the cadence?</p><p>Please respond as quickly and as accurately as possible!</p>","7","","3","new_stimuli/mp3/melody_^4_v6-_v5-_^6-_^4_v2-_2-_.mp3"
"","1062.9300000001676","html-button-response","171","1190152","0.0-19.0-4.0","88533","","<p>Which tone was played fourth after the cadence?</p><p>Please respond as quickly and as accurately as possible!</p>","9","","4","new_stimuli/mp3/melody_^4_v6-_v5-_^6-_^4_v2-_2-_.mp3"
"","2038.8199999998324","html-button-response","172","1192192","0.0-19.0-5.0","88533","","<p>Which tone was played fifth after the cadence?</p><p>Please respond as quickly and as accurately as possible!</p>","5","","5","new_stimuli/mp3/melody_^4_v6-_v5-_^6-_^4_v2-_2-_.mp3"
"","7503.315000000875","html-button-response","173","1199696","0.0-19.0-6.0","88533","","<p>Which tone was played sixth after the cadence?</p><p>Please respond as quickly and as accurately as possible!</p>","0","","6","new_stimuli/mp3/melody_^4_v6-_v5-_^6-_^4_v2-_2-_.mp3"
"","822.9000000001397","html-button-response","174","1200520","0.0-19.0-7.0","88533","","<p>Which tone was played seventh after the cadence?</p><p>Please respond as quickly and as accurately as possible!</p>","0","","7","new_stimuli/mp3/melody_^4_v6-_v5-_^6-_^4_v2-_2-_.mp3"
"","null","audio-keyboard-response","175","1212483","0.0-19.0-0.1","88533","","new_stimuli/mp3/melody_1_^3_v1_^5_v3_v2_^3_.mp3","","null","",""
"","4626.98499999987","html-button-response","176","1217111","0.0-19.0-1.1","88533","","<p>Which tone was played first after the cadence?</p><p>Please respond as quickly and as accurately as possible!</p>","0","","1","new_stimuli/mp3/melody_1_^3_v1_^5_v3_v2_^3_.mp3"
"","862.9950000003446","html-button-response","177","1217975","0.0-19.0-2.1","88533","","<p>Which tone was played second after the cadence?</p><p>Please respond as quickly and as accurately as possible!</p>","3","","2","new_stimuli/mp3/melody_1_^3_v1_^5_v3_v2_^3_.mp3"
"","487.1650000005029","html-button-response","178","1218463","0.0-19.0-3.1","88533","","<p>Which tone was played third after the cadence?</p><p>Please respond as quickly and as accurately as possible!</p>","0","","3","new_stimuli/mp3/melody_1_^3_v1_^5_v3_v2_^3_.mp3"
"","1103.0749999999534","html-button-response","179","1219567","0.0-19.0-4.1","88533","","<p>Which tone was played fourth after the cadence?</p><p>Please respond as quickly and as accurately as possible!</p>","7","","4","new_stimuli/mp3/melody_1_^3_v1_^5_v3_v2_^3_.mp3"
"","727.3200000000652","html-button-response","180","1220295","0.0-19.0-5.1","88533","","<p>Which tone was played fifth after the cadence?</p><p>Please respond as quickly and as accurately as possible!</p>","3","","5","new_stimuli/mp3/melody_1_^3_v1_^5_v3_v2_^3_.mp3"
"","1278.79000000027","html-button-response","181","1221574","0.0-19.0-6.1","88533","","<p>Which tone was played sixth after the cadence?</p><p>Please respond as quickly and as accurately as possible!</p>","2","","6","new_stimuli/mp3/melody_1_^3_v1_^5_v3_v2_^3_.mp3"
"","1207.3449999997392","html-button-response","182","1222783","0.0-19.0-7.1","88533","","<p>Which tone was played seventh after the cadence?</p><p>Please respond as quickly and as accurately as possible!</p>","4","","7","new_stimuli/mp3/melody_1_^3_v1_^5_v3_v2_^3_.mp3"
"","null","audio-keyboard-response","183","1234483","0.0-19.0-0.2","88533","","new_stimuli/mp3/melody_^1_v7_v6_v5_v4_v3_v2_buffer.mp3","","null","",""
"","898.1749999993481","html-button-response","184","1235382","0.0-19.0-1.2","88533","","<p>Which tone was played first after the cadence?</p><p>Please respond as quickly and as accurately as possible!</p>","12","","1","new_stimuli/mp3/melody_^1_v7_v6_v5_v4_v3_v2_buffer.mp3"
"","447.0449999999255","html-button-response","185","1235830","0.0-19.0-2.2","88533","","<p>Which tone was played second after the cadence?</p><p>Please respond as quickly and as accurately as possible!</p>","11","","2","new_stimuli/mp3/melody_^1_v7_v6_v5_v4_v3_v2_buffer.mp3"
"","591.2049999996088","html-button-response","186","1236422","0.0-19.0-3.2","88533","","<p>Which tone was played third after the cadence?</p><p>Please respond as quickly and as accurately as possible!</p>","9","","3","new_stimuli/mp3/melody_^1_v7_v6_v5_v4_v3_v2_buffer.mp3"
"","495.0399999995716","html-button-response","187","1236918","0.0-19.0-4.2","88533","","<p>Which tone was played fourth after the cadence?</p><p>Please respond as quickly and as accurately as possible!</p>","7","","4","new_stimuli/mp3/melody_^1_v7_v6_v5_v4_v3_v2_buffer.mp3"
"","879.0250000001397","html-button-response","188","1237798","0.0-19.0-5.2","88533","","<p>Which tone was played fifth after the cadence?</p><p>Please respond as quickly and as accurately as possible!</p>","5","","5","new_stimuli/mp3/melody_^1_v7_v6_v5_v4_v3_v2_buffer.mp3"
"","551.0050000001211","html-button-response","189","1238349","0.0-19.0-6.2","88533","","<p>Which tone was played sixth after the cadence?</p><p>Please respond as quickly and as accurately as possible!</p>","4","","6","new_stimuli/mp3/melody_^1_v7_v6_v5_v4_v3_v2_buffer.mp3"
"","735.3350000004284","html-button-response","190","1239086","0.0-19.0-7.2","88533","","<p>Which tone was played seventh after the cadence?</p><p>Please respond as quickly and as accurately as possible!</p>","2","","7","new_stimuli/mp3/melody_^1_v7_v6_v5_v4_v3_v2_buffer.mp3"
"","null","audio-keyboard-response","191","1250736","0.0-19.0-0.3","88533","","new_stimuli/mp3/melody_^6_v5+_v4_^5+_v3_v1_v7-_.mp3","","null","",""
"","7644.220000000205","html-button-response","192","1258380","0.0-19.0-1.3","88533","","<p>Which tone was played first after the cadence?</p><p>Please respond as quickly and as accurately as possible!</p>","9","","1","new_stimuli/mp3/melody_^6_v5+_v4_^5+_v3_v1_v7-_.mp3"
"","1430.924999999581","html-button-response","193","1259813","0.0-19.0-2.3","88533","","<p>Which tone was played second after the cadence?</p><p>Please respond as quickly and as accurately as possible!</p>","7","","2","new_stimuli/mp3/melody_^6_v5+_v4_^5+_v3_v1_v7-_.mp3"
"","2662.609999999404","html-button-response","194","1262476","0.0-19.0-3.3","88533","","<p>Which tone was played third after the cadence?</p><p>Please respond as quickly and as accurately as possible!</p>","6","","3","new_stimuli/mp3/melody_^6_v5+_v4_^5+_v3_v1_v7-_.mp3"
"","726.7650000003632","html-button-response","195","1263204","0.0-19.0-4.3","88533","","<p>Which tone was played fourth after the cadence?</p><p>Please respond as quickly and as accurately as possible!</p>","7","","4","new_stimuli/mp3/melody_^6_v5+_v4_^5+_v3_v1_v7-_.mp3"
"","1279.2599999993108","html-button-response","196","1264484","0.0-19.0-5.3","88533","","<p>Which tone was played fifth after the cadence?</p><p>Please respond as quickly and as accurately as possible!</p>","4","","5","new_stimuli/mp3/melody_^6_v5+_v4_^5+_v3_v1_v7-_.mp3"
"","150.5400000005029","html-button-response","197","1264636","0.0-19.0-6.3","88533","","<p>Which tone was played sixth after the cadence?</p><p>Please respond as quickly and as accurately as possible!</p>","4","","6","new_stimuli/mp3/melody_^6_v5+_v4_^5+_v3_v1_v7-_.mp3"
"","175.15999999968335","html-button-response","198","1264812","0.0-19.0-7.3","88533","","<p>Which tone was played seventh after the cadence?</p><p>Please respond as quickly and as accurately as possible!</p>","4","","7","new_stimuli/mp3/melody_^6_v5+_v4_^5+_v3_v1_v7-_.mp3"
"","null","audio-keyboard-response","199","1276514","0.0-19.0-0.4","88533","","new_stimuli/mp3/melody_^4_^5_^6_v5_v4_v3_v2_.mp3","","null","",""
"","2352.5600000002887","html-button-response","200","1278868","0.0-19.0-1.4","88533","","<p>Which tone was played first after the cadence?</p><p>Please respond as quickly and as accurately as possible!</p>","5","","1","new_stimuli/mp3/melody_^4_^5_^6_v5_v4_v3_v2_.mp3"
"","670.3900000003632","html-button-response","201","1279539","0.0-19.0-2.4","88533","","<p>Which tone was played second after the cadence?</p><p>Please respond as quickly and as accurately as possible!</p>","7","","2","new_stimuli/mp3/melody_^4_^5_^6_v5_v4_v3_v2_.mp3"
"","663.3999999994412","html-button-response","202","1280203","0.0-19.0-3.4","88533","","<p>Which tone was played third after the cadence?</p><p>Please respond as quickly and as accurately as possible!</p>","9","","3","new_stimuli/mp3/melody_^4_^5_^6_v5_v4_v3_v2_.mp3"
"","686.9200000001583","html-button-response","203","1280891","0.0-19.0-4.4","88533","","<p>Which tone was played fourth after the cadence?</p><p>Please respond as quickly and as accurately as possible!</p>","7","","4","new_stimuli/mp3/melody_^4_^5_^6_v5_v4_v3_v2_.mp3"
"","711.2150000000838","html-button-response","204","1281603","0.0-19.0-5.4","88533","","<p>Which tone was played fifth after the cadence?</p><p>Please respond as quickly and as accurately as possible!</p>","5","","5","new_stimuli/mp3/melody_^4_^5_^6_v5_v4_v3_v2_.mp3"
"","647.0950000002049","html-button-response","205","1282251","0.0-19.0-6.4","88533","","<p>Which tone was played sixth after the cadence?</p><p>Please respond as quickly and as accurately as possible!</p>","4","","6","new_stimuli/mp3/melody_^4_^5_^6_v5_v4_v3_v2_.mp3"
"","638.8999999999069","html-button-response","206","1282891","0.0-19.0-7.4","88533","","<p>Which tone was played seventh after the cadence?</p><p>Please respond as quickly and as accurately as possible!</p>","2","","7","new_stimuli/mp3/melody_^4_^5_^6_v5_v4_v3_v2_.mp3"
"","null","audio-keyboard-response","207","1294462","0.0-19.0-0.5","88533","","new_stimuli/mp3/melody_^5_^6_v5_v4_v3_v2_v1_buffer.mp3","","null","",""
"","1067.2900000000373","html-button-response","208","1295530","0.0-19.0-1.5","88533","","<p>Which tone was played first after the cadence?</p><p>Please respond as quickly and as accurately as possible!</p>","7","","1","new_stimuli/mp3/melody_^5_^6_v5_v4_v3_v2_v1_buffer.mp3"
"","423.0500000002794","html-button-response","209","1295954","0.0-19.0-2.5","88533","","<p>Which tone was played second after the cadence?</p><p>Please respond as quickly and as accurately as possible!</p>","9","","2","new_stimuli/mp3/melody_^5_^6_v5_v4_v3_v2_v1_buffer.mp3"
"","607.3299999998417","html-button-response","210","1296562","0.0-19.0-3.5","88533","","<p>Which tone was played third after the cadence?</p><p>Please respond as quickly and as accurately as possible!</p>","7","","3","new_stimuli/mp3/melody_^5_^6_v5_v4_v3_v2_v1_buffer.mp3"
"","454.945000000298","html-button-response","211","1297018","0.0-19.0-4.5","88533","","<p>Which tone was played fourth after the cadence?</p><p>Please respond as quickly and as accurately as possible!</p>","5","","4","new_stimuli/mp3/melody_^5_^6_v5_v4_v3_v2_v1_buffer.mp3"
"","343.1550000004936","html-button-response","212","1297362","0.0-19.0-5.5","88533","","<p>Which tone was played fifth after the cadence?</p><p>Please respond as quickly and as accurately as possible!</p>","4","","5","new_stimuli/mp3/melody_^5_^6_v5_v4_v3_v2_v1_buffer.mp3"
"","606.9549999991432","html-button-response","213","1297970","0.0-19.0-6.5","88533","","<p>Which tone was played sixth after the cadence?</p><p>Please respond as quickly and as accurately as possible!</p>","2","","6","new_stimuli/mp3/melody_^5_^6_v5_v4_v3_v2_v1_buffer.mp3"
"","711.0999999996275","html-button-response","214","1298682","0.0-19.0-7.5","88533","","<p>Which tone was played seventh after the cadence?</p><p>Please respond as quickly and as accurately as possible!</p>","0","","7","new_stimuli/mp3/melody_^5_^6_v5_v4_v3_v2_v1_buffer.mp3"
"","null","audio-keyboard-response","215","1310384","0.0-19.0-0.6","88533","","new_stimuli/mp3/melody_v1_^2_v1_v7_^1_^3_v2_.mp3","","null","",""
"","3408.010000000242","html-button-response","216","1313793","0.0-19.0-1.6","88533","","<p>Which tone was played first after the cadence?</p><p>Please respond as quickly and as accurately as possible!</p>","0","","1","new_stimuli/mp3/melody_v1_^2_v1_v7_^1_^3_v2_.mp3"
"","1175.33499999973","html-button-response","217","1314969","0.0-19.0-2.6","88533","","<p>Which tone was played second after the cadence?</p><p>Please respond as quickly and as accurately as possible!</p>","2","","2","new_stimuli/mp3/melody_v1_^2_v1_v7_^1_^3_v2_.mp3"
"","671.0400000000373","html-button-response","218","1315641","0.0-19.0-3.6","88533","","<p>Which tone was played third after the cadence?</p><p>Please respond as quickly and as accurately as possible!</p>","0","","3","new_stimuli/mp3/melody_v1_^2_v1_v7_^1_^3_v2_.mp3"
"","975.1200000001118","html-button-response","219","1316617","0.0-19.0-4.6","88533","","<p>Which tone was played fourth after the cadence?</p><p>Please respond as quickly and as accurately as possible!</p>","11","","4","new_stimuli/mp3/melody_v1_^2_v1_v7_^1_^3_v2_.mp3"
"","1863.0549999999348","html-button-response","220","1318481","0.0-19.0-5.6","88533","","<p>Which tone was played fifth after the cadence?</p><p>Please respond as quickly and as accurately as possible!</p>","0","","5","new_stimuli/mp3/melody_v1_^2_v1_v7_^1_^3_v2_.mp3"
"","1782.9600000004284","html-button-response","221","1320265","0.0-19.0-6.6","88533","","<p>Which tone was played sixth after the cadence?</p><p>Please respond as quickly and as accurately as possible!</p>","4","","6","new_stimuli/mp3/melody_v1_^2_v1_v7_^1_^3_v2_.mp3"
"","887.1549999995623","html-button-response","222","1321153","0.0-19.0-7.6","88533","","<p>Which tone was played seventh after the cadence?</p><p>Please respond as quickly and as accurately as possible!</p>","2","","7","new_stimuli/mp3/melody_v1_^2_v1_v7_^1_^3_v2_.mp3"
"[{""page_index"":0,""viewing_time"":1735.2199999997392},{""page_index"":1,""viewing_time"":760.1149999999907},{""page_index"":2,""viewing_time"":1096.2100000006612}]","3591.810000000056","instructions","223","1324745","0.0-20.0","88533","","","","","",""
"","null","audio-keyboard-response","224","1337440","0.0-21.0-0.0","88533","","new_stimuli/mp3/melody_^2_^3_^4_^5_^6_v5_v4_v3_v2_buffer.mp3","","null","",""
"","2727.100000000093","html-button-response","225","1340168","0.0-21.0-1.0","88533","","<p>Which tone was played first after the cadence?</p><p>Please respond as quickly and as accurately as possible!</p>","2","","1","new_stimuli/mp3/melody_^2_^3_^4_^5_^6_v5_v4_v3_v2_buffer.mp3"
"","695.0099999995437","html-button-response","226","1340864","0.0-21.0-2.0","88533","","<p>Which tone was played second after the cadence?</p><p>Please respond as quickly and as accurately as possible!</p>","4","","2","new_stimuli/mp3/melody_^2_^3_^4_^5_^6_v5_v4_v3_v2_buffer.mp3"
"","503.0200000000186","html-button-response","227","1341368","0.0-21.0-3.0","88533","","<p>Which tone was played third after the cadence?</p><p>Please respond as quickly and as accurately as possible!</p>","5","","3","new_stimuli/mp3/melody_^2_^3_^4_^5_^6_v5_v4_v3_v2_buffer.mp3"
"","599.0499999998137","html-button-response","228","1341968","0.0-21.0-4.0","88533","","<p>Which tone was played fourth after the cadence?</p><p>Please respond as quickly and as accurately as possible!</p>","7","","4","new_stimuli/mp3/melody_^2_^3_^4_^5_^6_v5_v4_v3_v2_buffer.mp3"
"","887.2599999995437","html-button-response","229","1342856","0.0-21.0-5.0","88533","","<p>Which tone was played fifth after the cadence?</p><p>Please respond as quickly and as accurately as possible!</p>","9","","5","new_stimuli/mp3/melody_^2_^3_^4_^5_^6_v5_v4_v3_v2_buffer.mp3"
"","559.0449999999255","html-button-response","230","1343416","0.0-21.0-6.0","88533","","<p>Which tone was played sixth after the cadence?</p><p>Please respond as quickly and as accurately as possible!</p>","7","","6","new_stimuli/mp3/melody_^2_^3_^4_^5_^6_v5_v4_v3_v2_buffer.mp3"
"","734.9499999999534","html-button-response","231","1344151","0.0-21.0-7.0","88533","","<p>Which tone was played seventh after the cadence?</p><p>Please respond as quickly and as accurately as possible!</p>","5","","7","new_stimuli/mp3/melody_^2_^3_^4_^5_^6_v5_v4_v3_v2_buffer.mp3"
"","999.2599999995437","html-button-response","232","1345152","0.0-21.0-8.0","88533","","<p>Which tone was played eight after the cadence?</p><p>Please respond as quickly and as accurately as possible!</p>","4","","8","new_stimuli/mp3/melody_^2_^3_^4_^5_^6_v5_v4_v3_v2_buffer.mp3"
"","1063.0999999993946","html-button-response","233","1346215","0.0-21.0-9.0","88533","","<p>Which tone was played nineth after the cadence?</p><p>Please respond as quickly and as accurately as possible!</p>","2","","9","new_stimuli/mp3/melody_^2_^3_^4_^5_^6_v5_v4_v3_v2_buffer.mp3"
"","null","audio-keyboard-response","234","1358777","0.0-21.0-0.1","88533","","new_stimuli/mp3/melody_^3_^4_^5 _^6_v5_v4_v3_v2_v1_.mp3","","null","",""
"","1635.9449999998324","html-button-response","235","1360414","0.0-21.0-1.1","88533","","<p>Which tone was played first after the cadence?</p><p>Please respond as quickly and as accurately as possible!</p>","4","","1","new_stimuli/mp3/melody_^3_^4_^5 _^6_v5_v4_v3_v2_v1_.mp3"
"","791.054999999702","html-button-response","236","1361207","0.0-21.0-2.1","88533","","<p>Which tone was played second after the cadence?</p><p>Please respond as quickly and as accurately as possible!</p>","5","","2","new_stimuli/mp3/melody_^3_^4_^5 _^6_v5_v4_v3_v2_v1_.mp3"
"","614.6250000002328","html-button-response","237","1361822","0.0-21.0-3.1","88533","","<p>Which tone was played third after the cadence?</p><p>Please respond as quickly and as accurately as possible!</p>","7","","3","new_stimuli/mp3/melody_^3_^4_^5 _^6_v5_v4_v3_v2_v1_.mp3"
"","631.0599999995902","html-button-response","238","1362454","0.0-21.0-4.1","88533","","<p>Which tone was played fourth after the cadence?</p><p>Please respond as quickly and as accurately as possible!</p>","9","","4","new_stimuli/mp3/melody_^3_^4_^5 _^6_v5_v4_v3_v2_v1_.mp3"
"","719.0549999994691","html-button-response","239","1363174","0.0-21.0-5.1","88533","","<p>Which tone was played fifth after the cadence?</p><p>Please respond as quickly and as accurately as possible!</p>","7","","5","new_stimuli/mp3/melody_^3_^4_^5 _^6_v5_v4_v3_v2_v1_.mp3"
"","607.0099999997765","html-button-response","240","1363782","0.0-21.0-6.1","88533","","<p>Which tone was played sixth after the cadence?</p><p>Please respond as quickly and as accurately as possible!</p>","5","","6","new_stimuli/mp3/melody_^3_^4_^5 _^6_v5_v4_v3_v2_v1_.mp3"
"","551.1500000001397","html-button-response","241","1364334","0.0-21.0-7.1","88533","","<p>Which tone was played seventh after the cadence?</p><p>Please respond as quickly and as accurately as possible!</p>","4","","7","new_stimuli/mp3/melody_^3_^4_^5 _^6_v5_v4_v3_v2_v1_.mp3"
"","567.0799999998417","html-button-response","242","1364902","0.0-21.0-8.1","88533","","<p>Which tone was played eight after the cadence?</p><p>Please respond as quickly and as accurately as possible!</p>","2","","8","new_stimuli/mp3/melody_^3_^4_^5 _^6_v5_v4_v3_v2_v1_.mp3"
"","559.2000000004191","html-button-response","243","1365462","0.0-21.0-9.1","88533","","<p>Which tone was played nineth after the cadence?</p><p>Please respond as quickly and as accurately as possible!</p>","0","","9","new_stimuli/mp3/melody_^3_^4_^5 _^6_v5_v4_v3_v2_v1_.mp3"
"","null","audio-keyboard-response","244","1378101","0.0-21.0-0.2","88533","","new_stimuli/mp3/melody_^3_^4_v2_v7_^1_^2_^3_3_^4_.mp3","","null","",""
"","6047.304999999935","html-button-response","245","1384149","0.0-21.0-1.2","88533","","<p>Which tone was played first after the cadence?</p><p>Please respond as quickly and as accurately as possible!</p>","4","","1","new_stimuli/mp3/melody_^3_^4_v2_v7_^1_^2_^3_3_^4_.mp3"
"","598.454999999376","html-button-response","246","1384749","0.0-21.0-2.2","88533","","<p>Which tone was played second after the cadence?</p><p>Please respond as quickly and as accurately as possible!</p>","5","","2","new_stimuli/mp3/melody_^3_^4_v2_v7_^1_^2_^3_3_^4_.mp3"
"","631.4399999999441","html-button-response","247","1385381","0.0-21.0-3.2","88533","","<p>Which tone was played third after the cadence?</p><p>Please respond as quickly and as accurately as possible!</p>","4","","3","new_stimuli/mp3/melody_^3_^4_v2_v7_^1_^2_^3_3_^4_.mp3"
"","3926.860000000568","html-button-response","248","1389309","0.0-21.0-4.2","88533","","<p>Which tone was played fourth after the cadence?</p><p>Please respond as quickly and as accurately as possible!</p>","2","","4","new_stimuli/mp3/melody_^3_^4_v2_v7_^1_^2_^3_3_^4_.mp3"
"","1142.8249999999534","html-button-response","249","1390453","0.0-21.0-5.2","88533","","<p>Which tone was played fifth after the cadence?</p><p>Please respond as quickly and as accurately as possible!</p>","11","","5","new_stimuli/mp3/melody_^3_^4_v2_v7_^1_^2_^3_3_^4_.mp3"
"","1270.8899999996647","html-button-response","250","1391725","0.0-21.0-6.2","88533","","<p>Which tone was played sixth after the cadence?</p><p>Please respond as quickly and as accurately as possible!</p>","12","","6","new_stimuli/mp3/melody_^3_^4_v2_v7_^1_^2_^3_3_^4_.mp3"
"","1031.234999999404","html-button-response","251","1392757","0.0-21.0-7.2","88533","","<p>Which tone was played seventh after the cadence?</p><p>Please respond as quickly and as accurately as possible!</p>","4","","7","new_stimuli/mp3/melody_^3_^4_v2_v7_^1_^2_^3_3_^4_.mp3"
"","1334.8400000003166","html-button-response","252","1394092","0.0-21.0-8.2","88533","","<p>Which tone was played eight after the cadence?</p><p>Please respond as quickly and as accurately as possible!</p>","2","","8","new_stimuli/mp3/melody_^3_^4_v2_v7_^1_^2_^3_3_^4_.mp3"
"","903.2600000000093","html-button-response","253","1394997","0.0-21.0-9.2","88533","","<p>Which tone was played nineth after the cadence?</p><p>Please respond as quickly and as accurately as possible!</p>","4","","9","new_stimuli/mp3/melody_^3_^4_v2_v7_^1_^2_^3_3_^4_.mp3"
"","null","audio-keyboard-response","254","1407949","0.0-21.0-0.3","88533","","new_stimuli/mp3/melody_^5_^6_v5_v4_v3_v2_v1_^2_^3_buffer.mp3","","null","",""
"","1797.9400000004098","html-button-response","255","1409748","0.0-21.0-1.3","88533","","<p>Which tone was played first after the cadence?</p><p>Please respond as quickly and as accurately as possible!</p>","7","","1","new_stimuli/mp3/melody_^5_^6_v5_v4_v3_v2_v1_^2_^3_buffer.mp3"
"","670.850000000326","html-button-response","256","1410420","0.0-21.0-2.3","88533","","<p>Which tone was played second after the cadence?</p><p>Please respond as quickly and as accurately as possible!</p>","9","","2","new_stimuli/mp3/melody_^5_^6_v5_v4_v3_v2_v1_^2_^3_buffer.mp3"
"","494.9800000002142","html-button-response","257","1410916","0.0-21.0-3.3","88533","","<p>Which tone was played third after the cadence?</p><p>Please respond as quickly and as accurately as possible!</p>","7","","3","new_stimuli/mp3/melody_^5_^6_v5_v4_v3_v2_v1_^2_^3_buffer.mp3"
"","687.295000000624","html-button-response","258","1411604","0.0-21.0-4.3","88533","","<p>Which tone was played fourth after the cadence?</p><p>Please respond as quickly and as accurately as possible!</p>","5","","4","new_stimuli/mp3/melody_^5_^6_v5_v4_v3_v2_v1_^2_^3_buffer.mp3"
"","686.8600000008009","html-button-response","259","1412291","0.0-21.0-5.3","88533","","<p>Which tone was played fifth after the cadence?</p><p>Please respond as quickly and as accurately as possible!</p>","4","","5","new_stimuli/mp3/melody_^5_^6_v5_v4_v3_v2_v1_^2_^3_buffer.mp3"
"","662.9999999995343","html-button-response","260","1412956","0.0-21.0-6.3","88533","","<p>Which tone was played sixth after the cadence?</p><p>Please respond as quickly and as accurately as possible!</p>","2","","6","new_stimuli/mp3/melody_^5_^6_v5_v4_v3_v2_v1_^2_^3_buffer.mp3"
"","559.0100000000093","html-button-response","261","1413515","0.0-21.0-7.3","88533","","<p>Which tone was played seventh after the cadence?</p><p>Please respond as quickly and as accurately as possible!</p>","0","","7","new_stimuli/mp3/melody_^5_^6_v5_v4_v3_v2_v1_^2_^3_buffer.mp3"
"","551.1949999998324","html-button-response","262","1414067","0.0-21.0-8.3","88533","","<p>Which tone was played eight after the cadence?</p><p>Please respond as quickly and as accurately as possible!</p>","2","","8","new_stimuli/mp3/melody_^5_^6_v5_v4_v3_v2_v1_^2_^3_buffer.mp3"
"","655.0799999996088","html-button-response","263","1414723","0.0-21.0-9.3","88533","","<p>Which tone was played nineth after the cadence?</p><p>Please respond as quickly and as accurately as possible!</p>","4","","9","new_stimuli/mp3/melody_^5_^6_v5_v4_v3_v2_v1_^2_^3_buffer.mp3"
"","null","audio-keyboard-response","264","1427365","0.0-21.0-0.4","88533","","new_stimuli/mp3/melody_v5_v4_v6+_^7_^3+_v3_v2_v5_^4_.mp3","","null","",""
"","8220.094999999506","html-button-response","265","1435586","0.0-21.0-1.4","88533","","<p>Which tone was played first after the cadence?</p><p>Please respond as quickly and as accurately as possible!</p>","7","","1","new_stimuli/mp3/melody_v5_v4_v6+_^7_^3+_v3_v2_v5_^4_.mp3"
"","519.054999999702","html-button-response","266","1436106","0.0-21.0-2.4","88533","","<p>Which tone was played second after the cadence?</p><p>Please respond as quickly and as accurately as possible!</p>","9","","2","new_stimuli/mp3/melody_v5_v4_v6+_^7_^3+_v3_v2_v5_^4_.mp3"
"","1111.0250000001397","html-button-response","267","1437218","0.0-21.0-3.4","88533","","<p>Which tone was played third after the cadence?</p><p>Please respond as quickly and as accurately as possible!</p>","7","","3","new_stimuli/mp3/melody_v5_v4_v6+_^7_^3+_v3_v2_v5_^4_.mp3"
"","2510.9349999993574","html-button-response","268","1439730","0.0-21.0-4.4","88533","","<p>Which tone was played fourth after the cadence?</p><p>Please respond as quickly and as accurately as possible!</p>","2","","4","new_stimuli/mp3/melody_v5_v4_v6+_^7_^3+_v3_v2_v5_^4_.mp3"
"","5414.995000000112","html-button-response","269","1445145","0.0-21.0-5.4","88533","","<p>Which tone was played fifth after the cadence?</p><p>Please respond as quickly and as accurately as possible!</p>","4","","5","new_stimuli/mp3/melody_v5_v4_v6+_^7_^3+_v3_v2_v5_^4_.mp3"
"","614.7650000001304","html-button-response","270","1445761","0.0-21.0-6.4","88533","","<p>Which tone was played sixth after the cadence?</p><p>Please respond as quickly and as accurately as possible!</p>","3","","6","new_stimuli/mp3/melody_v5_v4_v6+_^7_^3+_v3_v2_v5_^4_.mp3"
"","663.3649999992922","html-button-response","271","1446426","0.0-21.0-7.4","88533","","<p>Which tone was played seventh after the cadence?</p><p>Please respond as quickly and as accurately as possible!</p>","2","","7","new_stimuli/mp3/melody_v5_v4_v6+_^7_^3+_v3_v2_v5_^4_.mp3"
"","1415.1149999997579","html-button-response","272","1447841","0.0-21.0-8.4","88533","","<p>Which tone was played eight after the cadence?</p><p>Please respond as quickly and as accurately as possible!</p>","2","","8","new_stimuli/mp3/melody_v5_v4_v6+_^7_^3+_v3_v2_v5_^4_.mp3"
"","175","html-button-response","273","1448017","0.0-21.0-9.4","88533","","<p>Which tone was played nineth after the cadence?</p><p>Please respond as quickly and as accurately as possible!</p>","2","","9","new_stimuli/mp3/melody_v5_v4_v6+_^7_^3+_v3_v2_v5_^4_.mp3"
"","null","audio-keyboard-response","274","1460945","0.0-21.0-0.5","88533","","new_stimuli/mp3/melody_^2_^4_v3_v2_v1_v3_v2+_^3_^5+_.mp3","","null","",""
"","5366.5250000003725","html-button-response","275","1466312","0.0-21.0-1.5","88533","","<p>Which tone was played first after the cadence?</p><p>Please respond as quickly and as accurately as possible!</p>","4","","1","new_stimuli/mp3/melody_^2_^4_v3_v2_v1_v3_v2+_^3_^5+_.mp3"
"","678.6499999999069","html-button-response","276","1466992","0.0-21.0-2.5","88533","","<p>Which tone was played second after the cadence?</p><p>Please respond as quickly and as accurately as possible!</p>","5","","2","new_stimuli/mp3/melody_^2_^4_v3_v2_v1_v3_v2+_^3_^5+_.mp3"
"","679.2600000000093","html-button-response","277","1467672","0.0-21.0-3.5","88533","","<p>Which tone was played third after the cadence?</p><p>Please respond as quickly and as accurately as possible!</p>","4","","3","new_stimuli/mp3/melody_^2_^4_v3_v2_v1_v3_v2+_^3_^5+_.mp3"
"","1294.8700000005774","html-button-response","278","1468968","0.0-21.0-4.5","88533","","<p>Which tone was played fourth after the cadence?</p><p>Please respond as quickly and as accurately as possible!</p>","2","","4","new_stimuli/mp3/melody_^2_^4_v3_v2_v1_v3_v2+_^3_^5+_.mp3"
"","1255.2800000002608","html-button-response","279","1470224","0.0-21.0-5.5","88533","","<p>Which tone was played fifth after the cadence?</p><p>Please respond as quickly and as accurately as possible!</p>","0","","5","new_stimuli/mp3/melody_^2_^4_v3_v2_v1_v3_v2+_^3_^5+_.mp3"
"","1967.0199999990873","html-button-response","280","1472192","0.0-21.0-6.5","88533","","<p>Which tone was played sixth after the cadence?</p><p>Please respond as quickly and as accurately as possible!</p>","11","","6","new_stimuli/mp3/melody_^2_^4_v3_v2_v1_v3_v2+_^3_^5+_.mp3"
"","1222.9750000005588","html-button-response","281","1473416","0.0-21.0-7.5","88533","","<p>Which tone was played seventh after the cadence?</p><p>Please respond as quickly and as accurately as possible!</p>","3","","7","new_stimuli/mp3/melody_^2_^4_v3_v2_v1_v3_v2+_^3_^5+_.mp3"
"","1638.989999999525","html-button-response","282","1475056","0.0-21.0-8.5","88533","","<p>Which tone was played eight after the cadence?</p><p>Please respond as quickly and as accurately as possible!</p>","6","","8","new_stimuli/mp3/melody_^2_^4_v3_v2_v1_v3_v2+_^3_^5+_.mp3"
"","543.109999999404","html-button-response","283","1475600","0.0-21.0-9.5","88533","","<p>Which tone was played nineth after the cadence?</p><p>Please respond as quickly and as accurately as possible!</p>","7","","9","new_stimuli/mp3/melody_^2_^4_v3_v2_v1_v3_v2+_^3_^5+_.mp3"
"","null","audio-keyboard-response","284","1488239","0.0-21.0-0.6","88533","","new_stimuli/mp3/melody_v7_v6_v5_^6_v5_v4_^5_^6_v5_.mp3","","null","",""
"","4111.389999999898","html-button-response","285","1492351","0.0-21.0-1.6","88533","","<p>Which tone was played first after the cadence?</p><p>Please respond as quickly and as accurately as possible!</p>","11","","1","new_stimuli/mp3/melody_v7_v6_v5_^6_v5_v4_^5_^6_v5_.mp3"
"","846.864999999525","html-button-response","286","1493199","0.0-21.0-2.6","88533","","<p>Which tone was played second after the cadence?</p><p>Please respond as quickly and as accurately as possible!</p>","9","","2","new_stimuli/mp3/melody_v7_v6_v5_^6_v5_v4_^5_^6_v5_.mp3"
"","942.8699999998789","html-button-response","287","1494143","0.0-21.0-3.6","88533","","<p>Which tone was played third after the cadence?</p><p>Please respond as quickly and as accurately as possible!</p>","7","","3","new_stimuli/mp3/melody_v7_v6_v5_^6_v5_v4_^5_^6_v5_.mp3"
"","623.179999999702","html-button-response","288","1494767","0.0-21.0-4.6","88533","","<p>Which tone was played fourth after the cadence?</p><p>Please respond as quickly and as accurately as possible!</p>","5","","4","new_stimuli/mp3/melody_v7_v6_v5_^6_v5_v4_^5_^6_v5_.mp3"
"","558.9599999994971","html-button-response","289","1495327","0.0-21.0-5.6","88533","","<p>Which tone was played fifth after the cadence?</p><p>Please respond as quickly and as accurately as possible!</p>","7","","5","new_stimuli/mp3/melody_v7_v6_v5_^6_v5_v4_^5_^6_v5_.mp3"
"","742.940000000177","html-button-response","290","1496070","0.0-21.0-6.6","88533","","<p>Which tone was played sixth after the cadence?</p><p>Please respond as quickly and as accurately as possible!</p>","9","","6","new_stimuli/mp3/melody_v7_v6_v5_^6_v5_v4_^5_^6_v5_.mp3"
"","1503.3000000002794","html-button-response","291","1497575","0.0-21.0-7.6","88533","","<p>Which tone was played seventh after the cadence?</p><p>Please respond as quickly and as accurately as possible!</p>","7","","7","new_stimuli/mp3/melody_v7_v6_v5_^6_v5_v4_^5_^6_v5_.mp3"
"","471.14499999955297","html-button-response","292","1498047","0.0-21.0-8.6","88533","","<p>Which tone was played eight after the cadence?</p><p>Please respond as quickly and as accurately as possible!</p>","5","","8","new_stimuli/mp3/melody_v7_v6_v5_^6_v5_v4_^5_^6_v5_.mp3"
"","518.75","html-button-response","293","1498566","0.0-21.0-9.6","88533","","<p>Which tone was played nineth after the cadence?</p><p>Please respond as quickly and as accurately as possible!</p>","7","","9","new_stimuli/mp3/melody_v7_v6_v5_^6_v5_v4_^5_^6_v5_.mp3"
"","153959.57499999995","survey-text","294","1652517","0.0-22.0","88533","{""Q0"":""I sang along with the cadence, then quickly sang a scale up and down using solfege. In the examples with more than one note, I sang the first note back as it was presented and then listened for the rest of the melody. After the melody finished, I sang it back using solfege before selecting an answer. ""}","","","","",""
"","207375.01499999966","survey-text","295","1859881","0.0-23.0","88533","{""Q0"":""A few times throughout I lost focus and didn't listen well. When I got to the presentation of 9 notes, it felt a little long for my strategy--by the time I had to select an answer, I had either forgotten the first or last parts of the melody. Forgetting the beginning or the end caused me to lose my orientation in the key, which then caused me to forget the whole melody""}","","","","",""
"","10031.274999999208","survey-text","296","1869912","0.0-24.0","88533","{""Q0"":""no""}","","","","",""
"","6855.239999999991","survey-text","297","1876768","0.0-25.0","88533","{""Q0"":""speakers""}","","","","",""
"","3799.2800000002608","survey-text","298","1880568","0.0-26.0","88533","{""Q0"":""male""}","","","","",""
"","8863.23499999987","survey-text","299","1889431","0.0-27.0","88533","{""Q0"":""yes""}","","","","",""
"[{""page_index"":0,""viewing_time"":9967.169999999925}]","9967.475000000326","instructions","300","1899399","0.0-28.0","88533","","","","","",""
