"view_history","rt","trial_type","trial_index","time_elapsed","internal_node_id","subject","responses","stimulus","button_pressed","key_press","response_sequence","melody"
"[{""page_index"":0,""viewing_time"":4044.439999968745},{""page_index"":1,""viewing_time"":10281.645000097342},{""page_index"":2,""viewing_time"":2719.719999935478}]","17046.54999997001","instructions","0","17073","0.0-0.0","92374","","","","","",""
"","2620.0999999418855","survey-text","1","19696","0.0-1.0","92374","{""Q0"":""48""}","","","","",""
"","8734.079999965616","survey-text","2","28432","0.0-2.0","92374","{""Q0"":""PhD""}","","","","",""
"","10404.660000000149","survey-text","3","38839","0.0-3.0","92374","{""Q0"":""Movable do, do-based minor""}","","","","",""
"","3224.735000054352","survey-text","4","42064","0.0-4.0","92374","{""Q0"":""no""}","","","","",""
"","18956.64999994915","survey-text","5","61022","0.0-5.0","92374","{""Q0"":""Many years! I am a professor.""}","","","","",""
"","6327.055000001565","survey-text","6","67350","0.0-6.0","92374","{""Q0"":""25""}","","","","",""
"[{""page_index"":0,""viewing_time"":56143.56500003487},{""page_index"":1,""viewing_time"":18655.524999951012},{""page_index"":2,""viewing_time"":2151.8599999835715}]","76951.23000000603","instructions","7","144303","0.0-7.0","92374","","","","","",""
"","14517.754999920726","audio-button-response","8","158824","0.0-8.0","92374","","stimuli/long/c-do.mp3","12","","",""
"","8342.330000014044","audio-button-response","9","167168","0.0-9.0","92374","","stimuli/long/a-le.mp3","8","","",""
"[{""page_index"":0,""viewing_time"":7958.740000030957},{""page_index"":1,""viewing_time"":26792.030000011437}]","34750.985000049695","instructions","10","201919","0.0-10.0","92374","","","","","",""
"","8086.370000033639","audio-button-response","11","210007","0.0-11.0-0.0","92374","","stimuli/long/e-le.mp3","8","","",""
"","8109.515000018291","audio-button-response","12","218119","0.0-11.0-0.1","92374","","stimuli/long/a-re.mp3","2","","",""
"","8230.534999980591","audio-button-response","13","226351","0.0-11.0-0.2","92374","","stimuli/long/c-ra.mp3","1","","",""
"","8910.22000007797","audio-button-response","14","235263","0.0-11.0-0.3","92374","","stimuli/long/a-fa.mp3","5","","",""
"","7718.455000082031","audio-button-response","15","242983","0.0-11.0-0.4","92374","","stimuli/long/c-do8.mp3","12","","",""
"","7342.324999975972","audio-button-response","16","250327","0.0-11.0-0.5","92374","","stimuli/long/e-do8.mp3","12","","",""
"","9806.375000043772","audio-button-response","17","260135","0.0-11.0-0.6","92374","","stimuli/long/a-le.mp3","8","","",""
"","14733.955000061542","audio-button-response","18","274871","0.0-11.0-0.7","92374","","stimuli/long/e-me.mp3","3","","",""
"","9494.184999959543","audio-button-response","19","284367","0.0-11.0-0.8","92374","","stimuli/long/c-ti.mp3","11","","",""
"","8926.570000010543","audio-button-response","20","293295","0.0-11.0-0.9","92374","","stimuli/long/e-ra.mp3","1","","",""
"","7820.024999906309","audio-button-response","21","301119","0.0-11.0-0.10","92374","","stimuli/long/e-do.mp3","0","","",""
"","7812.569999950938","audio-button-response","22","308935","0.0-11.0-0.11","92374","","stimuli/long/e-ti.mp3","11","","",""
"","8982.30999999214","audio-button-response","23","317919","0.0-11.0-0.12","92374","","stimuli/long/e-mi.mp3","4","","",""
"","10757.205000030808","audio-button-response","24","328679","0.0-11.0-0.13","92374","","stimuli/long/c-fi.mp3","6","","",""
"","7605.619999929331","audio-button-response","25","336287","0.0-11.0-0.14","92374","","stimuli/long/c-do.mp3","0","","",""
"","9902.585000032559","audio-button-response","26","346191","0.0-11.0-0.15","92374","","stimuli/long/c-la.mp3","9","","",""
"","10102.56999998819","audio-button-response","27","356295","0.0-11.0-0.16","92374","","stimuli/long/e-te.mp3","10","","",""
"","7782.284999964759","audio-button-response","28","364079","0.0-11.0-0.17","92374","","stimuli/long/c-re.mp3","2","","",""
"","7630.774999968708","audio-button-response","29","371711","0.0-11.0-0.18","92374","","stimuli/long/a-do8.mp3","12","","",""
"","10398.340000072494","audio-button-response","30","382111","0.0-11.0-0.19","92374","","stimuli/long/c-me.mp3","3","","",""
"","8542.265000054613","audio-button-response","31","390655","0.0-11.0-0.20","92374","","stimuli/long/a-sol.mp3","7","","",""
"","7680.210000020452","audio-button-response","32","398337","0.0-11.0-0.21","92374","","stimuli/long/a-ra.mp3","1","","",""
"","8476.610000012442","audio-button-response","33","406815","0.0-11.0-0.22","92374","","stimuli/long/e-sol.mp3","7","","",""
"","8198.204999906011","audio-button-response","34","415015","0.0-11.0-0.23","92374","","stimuli/long/a-la.mp3","9","","",""
"","8726.655000005849","audio-button-response","35","423745","0.0-11.0-0.24","92374","","stimuli/long/e-fi.mp3","6","","",""
"","8796.244999975897","audio-button-response","36","432543","0.0-11.0-0.25","92374","","stimuli/long/c-le.mp3","8","","",""
"","8414.374999934807","audio-button-response","37","440959","0.0-11.0-0.26","92374","","stimuli/long/e-re.mp3","2","","",""
"","10845.689999987371","audio-button-response","38","451808","0.0-11.0-0.27","92374","","stimuli/long/a-te.mp3","10","","",""
"","8653.42500002589","audio-button-response","39","460465","0.0-11.0-0.28","92374","","stimuli/long/a-mi.mp3","4","","",""
"","8557.295000064187","audio-button-response","40","469024","0.0-11.0-0.29","92374","","stimuli/long/c-fa.mp3","5","","",""
"","8261.365000042133","audio-button-response","41","477287","0.0-11.0-0.30","92374","","stimuli/long/a-ti.mp3","11","","",""
"","7918.660000083037","audio-button-response","42","485207","0.0-11.0-0.31","92374","","stimuli/long/e-la.mp3","9","","",""
"","8550.084999995306","audio-button-response","43","493759","0.0-11.0-0.32","92374","","stimuli/long/a-fi.mp3","6","","",""
"","9247.38499999512","audio-button-response","44","503008","0.0-11.0-0.33","92374","","stimuli/long/a-me.mp3","3","","",""
"","7373.20000003092","audio-button-response","45","510383","0.0-11.0-0.34","92374","","stimuli/long/a-do.mp3","0","","",""
"","7862.395000061952","audio-button-response","46","518247","0.0-11.0-0.35","92374","","stimuli/long/c-sol.mp3","7","","",""
"","9134.109999984503","audio-button-response","47","527383","0.0-11.0-0.36","92374","","stimuli/long/e-fa.mp3","5","","",""
"","9023.31000007689","audio-button-response","48","536407","0.0-11.0-0.37","92374","","stimuli/long/c-mi.mp3","4","","",""
"[{""page_index"":0,""viewing_time"":9806.344999931753},{""page_index"":1,""viewing_time"":1679.7350000124425}]","11486.3249999471","instructions","49","547894","0.0-12.0","92374","","","","","",""
"","null","audio-keyboard-response","50","557327","0.0-13.0-0.0","92374","","new_stimuli/mp3/melody_v4_v3_buffer.mp3","","null","",""
"","4437.625000020489","html-button-response","51","561767","0.0-13.0-1.0","92374","","<p>Which tone was played first after the cadence?</p><p>Please respond as quickly and as accurately as possible!</p>","5","","1","new_stimuli/mp3/melody_v4_v3_buffer.mp3"
"","1293.0449999403208","html-button-response","52","563063","0.0-13.0-2.0","92374","","<p>Which tone was played second after the cadence?</p><p>Please respond as quickly and as accurately as possible!</p>","4","","2","new_stimuli/mp3/melody_v4_v3_buffer.mp3"
"","null","audio-keyboard-response","53","572228","0.0-13.0-0.1","92374","","new_stimuli/mp3/melody_^5_^1+_.mp3","","null","",""
"","3344.9750000145286","html-button-response","54","575575","0.0-13.0-1.1","92374","","<p>Which tone was played first after the cadence?</p><p>Please respond as quickly and as accurately as possible!</p>","7","","1","new_stimuli/mp3/melody_^5_^1+_.mp3"
"","1230.7550000259653","html-button-response","55","576807","0.0-13.0-2.1","92374","","<p>Which tone was played second after the cadence?</p><p>Please respond as quickly and as accurately as possible!</p>","1","","2","new_stimuli/mp3/melody_^5_^1+_.mp3"
"","null","audio-keyboard-response","56","586003","0.0-13.0-0.2","92374","","new_stimuli/mp3/melody_v3_v2_buffer.mp3","","null","",""
"","1617.9949999786913","html-button-response","57","587625","0.0-13.0-1.2","92374","","<p>Which tone was played first after the cadence?</p><p>Please respond as quickly and as accurately as possible!</p>","4","","1","new_stimuli/mp3/melody_v3_v2_buffer.mp3"
"","900.7600001059473","html-button-response","58","588528","0.0-13.0-2.2","92374","","<p>Which tone was played second after the cadence?</p><p>Please respond as quickly and as accurately as possible!</p>","2","","2","new_stimuli/mp3/melody_v3_v2_buffer.mp3"
"","null","audio-keyboard-response","59","597981","0.0-13.0-0.3","92374","","new_stimuli/mp3/melody_v7_v3_buffer.mp3","","null","",""
"","1265.2849999722093","html-button-response","60","599247","0.0-13.0-1.3","92374","","<p>Which tone was played first after the cadence?</p><p>Please respond as quickly and as accurately as possible!</p>","11","","1","new_stimuli/mp3/melody_v7_v3_buffer.mp3"
"","878.4649999579415","html-button-response","61","600127","0.0-13.0-2.3","92374","","<p>Which tone was played second after the cadence?</p><p>Please respond as quickly and as accurately as possible!</p>","4","","2","new_stimuli/mp3/melody_v7_v3_buffer.mp3"
"","null","audio-keyboard-response","62","609197","0.0-13.0-0.4","92374","","new_stimuli/mp3/melody_v2_v1_.mp3","","null","",""
"","1072.9450000217184","html-button-response","63","610271","0.0-13.0-1.4","92374","","<p>Which tone was played first after the cadence?</p><p>Please respond as quickly and as accurately as possible!</p>","2","","1","new_stimuli/mp3/melody_v2_v1_.mp3"
"","630.8100000023842","html-button-response","64","610903","0.0-13.0-2.4","92374","","<p>Which tone was played second after the cadence?</p><p>Please respond as quickly and as accurately as possible!</p>","0","","2","new_stimuli/mp3/melody_v2_v1_.mp3"
"","null","audio-keyboard-response","65","620361","0.0-13.0-0.5","92374","","new_stimuli/mp3/melody_^3_v4+_buffer.mp3","","null","",""
"","6702.275000046939","html-button-response","66","627065","0.0-13.0-1.5","92374","","<p>Which tone was played first after the cadence?</p><p>Please respond as quickly and as accurately as possible!</p>","4","","1","new_stimuli/mp3/melody_^3_v4+_buffer.mp3"
"","587.9450000356883","html-button-response","67","627655","0.0-13.0-2.5","92374","","<p>Which tone was played second after the cadence?</p><p>Please respond as quickly and as accurately as possible!</p>","6","","2","new_stimuli/mp3/melody_^3_v4+_buffer.mp3"
"","null","audio-keyboard-response","68","636828","0.0-13.0-0.6","92374","","new_stimuli/mp3/melody_^2_v7-_.mp3","","null","",""
"","1937.8100000321865","html-button-response","69","638767","0.0-13.0-1.6","92374","","<p>Which tone was played first after the cadence?</p><p>Please respond as quickly and as accurately as possible!</p>","2","","1","new_stimuli/mp3/melody_^2_v7-_.mp3"
"","1022.57999998983","html-button-response","70","639791","0.0-13.0-2.6","92374","","<p>Which tone was played second after the cadence?</p><p>Please respond as quickly and as accurately as possible!</p>","10","","2","new_stimuli/mp3/melody_^2_v7-_.mp3"
"","null","audio-keyboard-response","71","649090","0.0-13.0-0.7","92374","","new_stimuli/mp3/melody_3_^6_buffer.mp3","","null","",""
"","2292.075000004843","html-button-response","72","651383","0.0-13.0-1.7","92374","","<p>Which tone was played first after the cadence?</p><p>Please respond as quickly and as accurately as possible!</p>","4","","1","new_stimuli/mp3/melody_3_^6_buffer.mp3"
"","1166.6299999924377","html-button-response","73","652551","0.0-13.0-2.7","92374","","<p>Which tone was played second after the cadence?</p><p>Please respond as quickly and as accurately as possible!</p>","9","","2","new_stimuli/mp3/melody_3_^6_buffer.mp3"
"","null","audio-keyboard-response","74","661717","0.0-13.0-0.8","92374","","new_stimuli/mp3/melody_v5_v1+_.mp3","","null","",""
"","1225.2449999796227","html-button-response","75","662943","0.0-13.0-1.8","92374","","<p>Which tone was played first after the cadence?</p><p>Please respond as quickly and as accurately as possible!</p>","7","","1","new_stimuli/mp3/melody_v5_v1+_.mp3"
"","808.1900000106543","html-button-response","76","663752","0.0-13.0-2.8","92374","","<p>Which tone was played second after the cadence?</p><p>Please respond as quickly and as accurately as possible!</p>","1","","2","new_stimuli/mp3/melody_v5_v1+_.mp3"
"","null","audio-keyboard-response","77","672760","0.0-13.0-0.9","92374","","new_stimuli/mp3/melody_^1_^2+_.mp3","","null","",""
"","2119.774999911897","html-button-response","78","674881","0.0-13.0-1.9","92374","","<p>Which tone was played first after the cadence?</p><p>Please respond as quickly and as accurately as possible!</p>","0","","1","new_stimuli/mp3/melody_^1_^2+_.mp3"
"","931.7949999822304","html-button-response","79","675815","0.0-13.0-2.9","92374","","<p>Which tone was played second after the cadence?</p><p>Please respond as quickly and as accurately as possible!</p>","3","","2","new_stimuli/mp3/melody_^1_^2+_.mp3"
"[{""page_index"":0,""viewing_time"":8246.885000029579},{""page_index"":1,""viewing_time"":1431.9799999939278},{""page_index"":2,""viewing_time"":1839.9999999674037}]","11519.094999996014","instructions","80","687335","0.0-14.0","92374","","","","","",""
"","null","audio-keyboard-response","81","696896","0.0-15.0-0.0","92374","","new_stimuli/mp3/melody_v1_v7-_^7_.mp3","","null","",""
"","1709.6750000491738","html-button-response","82","698608","0.0-15.0-1.0","92374","","<p>Which tone was played first after the cadence?</p><p>Please respond as quickly and as accurately as possible!</p>","12","","1","new_stimuli/mp3/melody_v1_v7-_^7_.mp3"
"","982.3450000258163","html-button-response","83","699591","0.0-15.0-2.0","92374","","<p>Which tone was played second after the cadence?</p><p>Please respond as quickly and as accurately as possible!</p>","10","","2","new_stimuli/mp3/melody_v1_v7-_^7_.mp3"
"","942.7399999694899","html-button-response","84","700535","0.0-15.0-3.0","92374","","<p>Which tone was played third after the cadence?</p><p>Please respond as quickly and as accurately as possible!</p>","11","","3","new_stimuli/mp3/melody_v1_v7-_^7_.mp3"
"","null","audio-keyboard-response","85","710519","0.0-15.0-0.1","92374","","new_stimuli/mp3/melody_v2_v5_^3_buffer.mp3","","null","",""
"","1279.2500000214204","html-button-response","86","711800","0.0-15.0-1.1","92374","","<p>Which tone was played first after the cadence?</p><p>Please respond as quickly and as accurately as possible!</p>","2","","1","new_stimuli/mp3/melody_v2_v5_^3_buffer.mp3"
"","1205.750000081025","html-button-response","87","713007","0.0-15.0-2.1","92374","","<p>Which tone was played second after the cadence?</p><p>Please respond as quickly and as accurately as possible!</p>","7","","2","new_stimuli/mp3/melody_v2_v5_^3_buffer.mp3"
"","814.7349999053404","html-button-response","88","713822","0.0-15.0-3.1","92374","","<p>Which tone was played third after the cadence?</p><p>Please respond as quickly and as accurately as possible!</p>","4","","3","new_stimuli/mp3/melody_v2_v5_^3_buffer.mp3"
"","null","audio-keyboard-response","89","723461","0.0-15.0-0.2","92374","","new_stimuli/mp3/melody_6_^1_v5_.mp3","","null","",""
"","968.1449999334291","html-button-response","90","724430","0.0-15.0-1.2","92374","","<p>Which tone was played first after the cadence?</p><p>Please respond as quickly and as accurately as possible!</p>","9","","1","new_stimuli/mp3/melody_6_^1_v5_.mp3"
"","894.5650000823662","html-button-response","91","725327","0.0-15.0-2.2","92374","","<p>Which tone was played second after the cadence?</p><p>Please respond as quickly and as accurately as possible!</p>","12","","2","new_stimuli/mp3/melody_6_^1_v5_.mp3"
"","588.6649999301881","html-button-response","92","725918","0.0-15.0-3.2","92374","","<p>Which tone was played third after the cadence?</p><p>Please respond as quickly and as accurately as possible!</p>","7","","3","new_stimuli/mp3/melody_6_^1_v5_.mp3"
"","null","audio-keyboard-response","93","735875","0.0-15.0-0.3","92374","","new_stimuli/mp3/melody_v5_v4_v3_buffer.mp3","","null","",""
"","1131.9649999495596","html-button-response","94","737008","0.0-15.0-1.3","92374","","<p>Which tone was played first after the cadence?</p><p>Please respond as quickly and as accurately as possible!</p>","7","","1","new_stimuli/mp3/melody_v5_v4_v3_buffer.mp3"
"","933.2299999659881","html-button-response","95","737943","0.0-15.0-2.3","92374","","<p>Which tone was played second after the cadence?</p><p>Please respond as quickly and as accurately as possible!</p>","5","","2","new_stimuli/mp3/melody_v5_v4_v3_buffer.mp3"
"","686.5649999817833","html-button-response","96","738630","0.0-15.0-3.3","92374","","<p>Which tone was played third after the cadence?</p><p>Please respond as quickly and as accurately as possible!</p>","4","","3","new_stimuli/mp3/melody_v5_v4_v3_buffer.mp3"
"","null","audio-keyboard-response","97","748136","0.0-15.0-0.4","92374","","new_stimuli/mp3/melody_1_v1+_^2_.mp3","","null","",""
"","1204.7099999617785","html-button-response","98","749342","0.0-15.0-1.4","92374","","<p>Which tone was played first after the cadence?</p><p>Please respond as quickly and as accurately as possible!</p>","0","","1","new_stimuli/mp3/melody_1_v1+_^2_.mp3"
"","518.7900000018999","html-button-response","99","749862","0.0-15.0-2.4","92374","","<p>Which tone was played second after the cadence?</p><p>Please respond as quickly and as accurately as possible!</p>","1","","2","new_stimuli/mp3/melody_1_v1+_^2_.mp3"
"","518.7850000802428","html-button-response","100","750382","0.0-15.0-3.4","92374","","<p>Which tone was played third after the cadence?</p><p>Please respond as quickly and as accurately as possible!</p>","2","","3","new_stimuli/mp3/melody_1_v1+_^2_.mp3"
"","null","audio-keyboard-response","101","759941","0.0-15.0-0.5","92374","","new_stimuli/mp3/melody_v3_v2_v1_.mp3","","null","",""
"","1473.9850000478327","html-button-response","102","761416","0.0-15.0-1.5","92374","","<p>Which tone was played first after the cadence?</p><p>Please respond as quickly and as accurately as possible!</p>","4","","1","new_stimuli/mp3/melody_v3_v2_v1_.mp3"
"","727.4149999720976","html-button-response","103","762145","0.0-15.0-2.5","92374","","<p>Which tone was played second after the cadence?</p><p>Please respond as quickly and as accurately as possible!</p>","2","","2","new_stimuli/mp3/melody_v3_v2_v1_.mp3"
"","675.8899999549612","html-button-response","104","762823","0.0-15.0-3.5","92374","","<p>Which tone was played third after the cadence?</p><p>Please respond as quickly and as accurately as possible!</p>","0","","3","new_stimuli/mp3/melody_v3_v2_v1_.mp3"
"","null","audio-keyboard-response","105","772508","0.0-15.0-0.6","92374","","new_stimuli/mp3/melody_v4_v3_v2_buffer.mp3","","null","",""
"","1352.140000090003","html-button-response","106","773863","0.0-15.0-1.6","92374","","<p>Which tone was played first after the cadence?</p><p>Please respond as quickly and as accurately as possible!</p>","5","","1","new_stimuli/mp3/melody_v4_v3_v2_buffer.mp3"
"","848.9249999402091","html-button-response","107","774713","0.0-15.0-2.6","92374","","<p>Which tone was played second after the cadence?</p><p>Please respond as quickly and as accurately as possible!</p>","4","","2","new_stimuli/mp3/melody_v4_v3_v2_buffer.mp3"
"","692.1149999834597","html-button-response","108","775407","0.0-15.0-3.6","92374","","<p>Which tone was played third after the cadence?</p><p>Please respond as quickly and as accurately as possible!</p>","2","","3","new_stimuli/mp3/melody_v4_v3_v2_buffer.mp3"
"","null","audio-keyboard-response","109","784992","0.0-15.0-0.7","92374","","new_stimuli/mp3/melody_v1_v7-_7-_buffer.mp3","","null","",""
"","3333.28000002075","html-button-response","110","788327","0.0-15.0-1.7","92374","","<p>Which tone was played first after the cadence?</p><p>Please respond as quickly and as accurately as possible!</p>","12","","1","new_stimuli/mp3/melody_v1_v7-_7-_buffer.mp3"
"","1032.160000060685","html-button-response","111","789360","0.0-15.0-2.7","92374","","<p>Which tone was played second after the cadence?</p><p>Please respond as quickly and as accurately as possible!</p>","10","","2","new_stimuli/mp3/melody_v1_v7-_7-_buffer.mp3"
"","556.9599999580532","html-button-response","112","789918","0.0-15.0-3.7","92374","","<p>Which tone was played third after the cadence?</p><p>Please respond as quickly and as accurately as possible!</p>","10","","3","new_stimuli/mp3/melody_v1_v7-_7-_buffer.mp3"
"","null","audio-keyboard-response","113","799814","0.0-15.0-0.8","92374","","new_stimuli/mp3/melody_^1_v6_v5+_.mp3","","null","",""
"","1583.030000096187","html-button-response","114","801399","0.0-15.0-1.8","92374","","<p>Which tone was played first after the cadence?</p><p>Please respond as quickly and as accurately as possible!</p>","12","","1","new_stimuli/mp3/melody_^1_v6_v5+_.mp3"
"","1318.6350000323728","html-button-response","115","802719","0.0-15.0-2.8","92374","","<p>Which tone was played second after the cadence?</p><p>Please respond as quickly and as accurately as possible!</p>","9","","2","new_stimuli/mp3/melody_^1_v6_v5+_.mp3"
"","606.8250000244007","html-button-response","116","803327","0.0-15.0-3.8","92374","","<p>Which tone was played third after the cadence?</p><p>Please respond as quickly and as accurately as possible!</p>","8","","3","new_stimuli/mp3/melody_^1_v6_v5+_.mp3"
"[{""page_index"":0,""viewing_time"":6542.955000069924},{""page_index"":1,""viewing_time"":2480.020000017248},{""page_index"":2,""viewing_time"":1417.6399999996647}]","10440.910000004806","instructions","117","813768","0.0-16.0","92374","","","","","",""
"","null","audio-keyboard-response","118","824347","0.0-17.0-0.0","92374","","new_stimuli/mp3/melody_v2_2_^3_^4_v2_.mp3","","null","",""
"","1746.5899999951944","html-button-response","119","826097","0.0-17.0-1.0","92374","","<p>Which tone was played first after the cadence?</p><p>Please respond as quickly and as accurately as possible!</p>","2","","1","new_stimuli/mp3/melody_v2_2_^3_^4_v2_.mp3"
"","556.5049999859184","html-button-response","120","826654","0.0-17.0-2.0","92374","","<p>Which tone was played second after the cadence?</p><p>Please respond as quickly and as accurately as possible!</p>","2","","2","new_stimuli/mp3/melody_v2_2_^3_^4_v2_.mp3"
"","686.8849999736995","html-button-response","121","827342","0.0-17.0-3.0","92374","","<p>Which tone was played third after the cadence?</p><p>Please respond as quickly and as accurately as possible!</p>","4","","3","new_stimuli/mp3/melody_v2_2_^3_^4_v2_.mp3"
"","518.7500000465661","html-button-response","122","827864","0.0-17.0-4.0","92374","","<p>Which tone was played fourth after the cadence?</p><p>Please respond as quickly and as accurately as possible!</p>","5","","4","new_stimuli/mp3/melody_v2_2_^3_^4_v2_.mp3"
"","733.6649999488145","html-button-response","123","828600","0.0-17.0-5.0","92374","","<p>Which tone was played fifth after the cadence?</p><p>Please respond as quickly and as accurately as possible!</p>","2","","5","new_stimuli/mp3/melody_v2_2_^3_^4_v2_.mp3"
"","null","audio-keyboard-response","124","839311","0.0-17.0-0.1","92374","","new_stimuli/mp3/melody_^6_v5_v4_v3_v2_buffer.mp3","","null","",""
"","1605.0700000487268","html-button-response","125","840918","0.0-17.0-1.1","92374","","<p>Which tone was played first after the cadence?</p><p>Please respond as quickly and as accurately as possible!</p>","9","","1","new_stimuli/mp3/melody_^6_v5_v4_v3_v2_buffer.mp3"
"","759.9499999778345","html-button-response","126","841679","0.0-17.0-2.1","92374","","<p>Which tone was played second after the cadence?</p><p>Please respond as quickly and as accurately as possible!</p>","7","","2","new_stimuli/mp3/melody_^6_v5_v4_v3_v2_buffer.mp3"
"","693.8399999635294","html-button-response","127","842375","0.0-17.0-3.1","92374","","<p>Which tone was played third after the cadence?</p><p>Please respond as quickly and as accurately as possible!</p>","5","","3","new_stimuli/mp3/melody_^6_v5_v4_v3_v2_buffer.mp3"
"","558.2749999593943","html-button-response","128","842934","0.0-17.0-4.1","92374","","<p>Which tone was played fourth after the cadence?</p><p>Please respond as quickly and as accurately as possible!</p>","4","","4","new_stimuli/mp3/melody_^6_v5_v4_v3_v2_buffer.mp3"
"","942.795000039041","html-button-response","129","843879","0.0-17.0-5.1","92374","","<p>Which tone was played fifth after the cadence?</p><p>Please respond as quickly and as accurately as possible!</p>","2","","5","new_stimuli/mp3/melody_^6_v5_v4_v3_v2_buffer.mp3"
"","null","audio-keyboard-response","130","854509","0.0-17.0-0.2","92374","","new_stimuli/mp3/melody_v5_^6+_^7_^1_5_.mp3","","null","",""
"","1592.3999999649823","html-button-response","131","856102","0.0-17.0-1.2","92374","","<p>Which tone was played first after the cadence?</p><p>Please respond as quickly and as accurately as possible!</p>","7","","1","new_stimuli/mp3/melody_v5_^6+_^7_^1_5_.mp3"
"","702.8699999209493","html-button-response","132","856806","0.0-17.0-2.2","92374","","<p>Which tone was played second after the cadence?</p><p>Please respond as quickly and as accurately as possible!</p>","9","","2","new_stimuli/mp3/melody_v5_^6+_^7_^1_5_.mp3"
"","854.9650000641122","html-button-response","133","857663","0.0-17.0-3.2","92374","","<p>Which tone was played third after the cadence?</p><p>Please respond as quickly and as accurately as possible!</p>","11","","3","new_stimuli/mp3/melody_v5_^6+_^7_^1_5_.mp3"
"","832.18999998644","html-button-response","134","858496","0.0-17.0-4.2","92374","","<p>Which tone was played fourth after the cadence?</p><p>Please respond as quickly and as accurately as possible!</p>","12","","4","new_stimuli/mp3/melody_v5_^6+_^7_^1_5_.mp3"
"","813.4150000987574","html-button-response","135","859312","0.0-17.0-5.2","92374","","<p>Which tone was played fifth after the cadence?</p><p>Please respond as quickly and as accurately as possible!</p>","7","","5","new_stimuli/mp3/melody_v5_^6+_^7_^1_5_.mp3"
"","null","audio-keyboard-response","136","869890","0.0-17.0-0.3","92374","","new_stimuli/mp3/melody_v5_v4_v3_v2_v1_.mp3","","null","",""
"","1626.9350000657141","html-button-response","137","871518","0.0-17.0-1.3","92374","","<p>Which tone was played first after the cadence?</p><p>Please respond as quickly and as accurately as possible!</p>","7","","1","new_stimuli/mp3/melody_v5_v4_v3_v2_v1_.mp3"
"","686.6199999349192","html-button-response","138","872207","0.0-17.0-2.3","92374","","<p>Which tone was played second after the cadence?</p><p>Please respond as quickly and as accurately as possible!</p>","5","","2","new_stimuli/mp3/melody_v5_v4_v3_v2_v1_.mp3"
"","476.69000003952533","html-button-response","139","872686","0.0-17.0-3.3","92374","","<p>Which tone was played third after the cadence?</p><p>Please respond as quickly and as accurately as possible!</p>","4","","3","new_stimuli/mp3/melody_v5_v4_v3_v2_v1_.mp3"
"","566.9100000523031","html-button-response","140","873254","0.0-17.0-4.3","92374","","<p>Which tone was played fourth after the cadence?</p><p>Please respond as quickly and as accurately as possible!</p>","2","","4","new_stimuli/mp3/melody_v5_v4_v3_v2_v1_.mp3"
"","598.9899999694899","html-button-response","141","873855","0.0-17.0-5.3","92374","","<p>Which tone was played fifth after the cadence?</p><p>Please respond as quickly and as accurately as possible!</p>","0","","5","new_stimuli/mp3/melody_v5_v4_v3_v2_v1_.mp3"
"","null","audio-keyboard-response","142","884802","0.0-17.0-0.4","92374","","new_stimuli/mp3/melody_^5_^6_v5_v4_v3_buffer.mp3","","null","",""
"","1418.7999999849126","html-button-response","143","886224","0.0-17.0-1.4","92374","","<p>Which tone was played first after the cadence?</p><p>Please respond as quickly and as accurately as possible!</p>","7","","1","new_stimuli/mp3/melody_^5_^6_v5_v4_v3_buffer.mp3"
"","893.3599999872968","html-button-response","144","887119","0.0-17.0-2.4","92374","","<p>Which tone was played second after the cadence?</p><p>Please respond as quickly and as accurately as possible!</p>","9","","2","new_stimuli/mp3/melody_^5_^6_v5_v4_v3_buffer.mp3"
"","718.5899999458343","html-button-response","145","887838","0.0-17.0-3.4","92374","","<p>Which tone was played third after the cadence?</p><p>Please respond as quickly and as accurately as possible!</p>","7","","3","new_stimuli/mp3/melody_^5_^6_v5_v4_v3_buffer.mp3"
"","757.1250000037253","html-button-response","146","888598","0.0-17.0-4.4","92374","","<p>Which tone was played fourth after the cadence?</p><p>Please respond as quickly and as accurately as possible!</p>","5","","4","new_stimuli/mp3/melody_^5_^6_v5_v4_v3_buffer.mp3"
"","560.4299999540672","html-button-response","147","889160","0.0-17.0-5.4","92374","","<p>Which tone was played fifth after the cadence?</p><p>Please respond as quickly and as accurately as possible!</p>","4","","5","new_stimuli/mp3/melody_^5_^6_v5_v4_v3_buffer.mp3"
"","null","audio-keyboard-response","148","899745","0.0-17.0-0.5","92374","","new_stimuli/mp3/melody_v5_v4_v3_v2_v1 _buffer.mp3","","null","",""
"","1515.184999909252","html-button-response","149","901262","0.0-17.0-1.5","92374","","<p>Which tone was played first after the cadence?</p><p>Please respond as quickly and as accurately as possible!</p>","7","","1","new_stimuli/mp3/melody_v5_v4_v3_v2_v1 _buffer.mp3"
"","678.7150000454858","html-button-response","150","901942","0.0-17.0-2.5","92374","","<p>Which tone was played second after the cadence?</p><p>Please respond as quickly and as accurately as possible!</p>","5","","2","new_stimuli/mp3/melody_v5_v4_v3_v2_v1 _buffer.mp3"
"","1422.554999939166","html-button-response","151","903366","0.0-17.0-3.5","92374","","<p>Which tone was played third after the cadence?</p><p>Please respond as quickly and as accurately as possible!</p>","4","","3","new_stimuli/mp3/melody_v5_v4_v3_v2_v1 _buffer.mp3"
"","558.9100000215694","html-button-response","152","903926","0.0-17.0-4.5","92374","","<p>Which tone was played fourth after the cadence?</p><p>Please respond as quickly and as accurately as possible!</p>","2","","4","new_stimuli/mp3/melody_v5_v4_v3_v2_v1 _buffer.mp3"
"","638.7699999613687","html-button-response","153","904566","0.0-17.0-5.5","92374","","<p>Which tone was played fifth after the cadence?</p><p>Please respond as quickly and as accurately as possible!</p>","0","","5","new_stimuli/mp3/melody_v5_v4_v3_v2_v1 _buffer.mp3"
"","null","audio-keyboard-response","154","915196","0.0-17.0-0.6","92374","","new_stimuli/mp3/melody_^6_v4_v3_^4_^5_.mp3","","null","",""
"","1616.9349999399856","html-button-response","155","916814","0.0-17.0-1.6","92374","","<p>Which tone was played first after the cadence?</p><p>Please respond as quickly and as accurately as possible!</p>","9","","1","new_stimuli/mp3/melody_^6_v4_v3_^4_^5_.mp3"
"","918.7600000295788","html-button-response","156","917734","0.0-17.0-2.6","92374","","<p>Which tone was played second after the cadence?</p><p>Please respond as quickly and as accurately as possible!</p>","5","","2","new_stimuli/mp3/melody_^6_v4_v3_^4_^5_.mp3"
"","503.24500002898276","html-button-response","157","918239","0.0-17.0-3.6","92374","","<p>Which tone was played third after the cadence?</p><p>Please respond as quickly and as accurately as possible!</p>","4","","3","new_stimuli/mp3/melody_^6_v4_v3_^4_^5_.mp3"
"","630.4449999006465","html-button-response","158","918871","0.0-17.0-4.6","92374","","<p>Which tone was played fourth after the cadence?</p><p>Please respond as quickly and as accurately as possible!</p>","5","","4","new_stimuli/mp3/melody_^6_v4_v3_^4_^5_.mp3"
"","469.29000003729016","html-button-response","159","919342","0.0-17.0-5.6","92374","","<p>Which tone was played fifth after the cadence?</p><p>Please respond as quickly and as accurately as possible!</p>","7","","5","new_stimuli/mp3/melody_^6_v4_v3_^4_^5_.mp3"
"","null","audio-keyboard-response","160","930292","0.0-17.0-0.7","92374","","new_stimuli/mp3/melody_v5-_v3_3_^4+_v3_.mp3","","null","",""
"","2137.2550000669435","html-button-response","161","932431","0.0-17.0-1.7","92374","","<p>Which tone was played first after the cadence?</p><p>Please respond as quickly and as accurately as possible!</p>","6","","1","new_stimuli/mp3/melody_v5-_v3_3_^4+_v3_.mp3"
"","622.1300000324845","html-button-response","162","933054","0.0-17.0-2.7","92374","","<p>Which tone was played second after the cadence?</p><p>Please respond as quickly and as accurately as possible!</p>","4","","2","new_stimuli/mp3/melody_v5-_v3_3_^4+_v3_.mp3"
"","525.9199999272823","html-button-response","163","933582","0.0-17.0-3.7","92374","","<p>Which tone was played third after the cadence?</p><p>Please respond as quickly and as accurately as possible!</p>","4","","3","new_stimuli/mp3/melody_v5-_v3_3_^4+_v3_.mp3"
"","504.5800000661984","html-button-response","164","934088","0.0-17.0-4.7","92374","","<p>Which tone was played fourth after the cadence?</p><p>Please respond as quickly and as accurately as possible!</p>","6","","4","new_stimuli/mp3/melody_v5-_v3_3_^4+_v3_.mp3"
"","685.0199999753386","html-button-response","165","934774","0.0-17.0-5.7","92374","","<p>Which tone was played fifth after the cadence?</p><p>Please respond as quickly and as accurately as possible!</p>","4","","5","new_stimuli/mp3/melody_v5-_v3_3_^4+_v3_.mp3"
"[{""page_index"":0,""viewing_time"":110463.02499994636},{""page_index"":1,""viewing_time"":1808.0250000348315},{""page_index"":2,""viewing_time"":1808.0299999564886}]","114079.30999994278","instructions","166","1048854","0.0-18.0","92374","","","","","",""
"","null","audio-keyboard-response","167","1060434","0.0-19.0-0.0","92374","","new_stimuli/mp3/melody_^5_^6_v5_v4_v3_v2_v1_buffer.mp3","","null","",""
"","866.634999983944","html-button-response","168","1061302","0.0-19.0-1.0","92374","","<p>Which tone was played first after the cadence?</p><p>Please respond as quickly and as accurately as possible!</p>","7","","1","new_stimuli/mp3/melody_^5_^6_v5_v4_v3_v2_v1_buffer.mp3"
"","774.7550000203773","html-button-response","169","1062078","0.0-19.0-2.0","92374","","<p>Which tone was played second after the cadence?</p><p>Please respond as quickly and as accurately as possible!</p>","9","","2","new_stimuli/mp3/melody_^5_^6_v5_v4_v3_v2_v1_buffer.mp3"
"","639.1849999781698","html-button-response","170","1062719","0.0-19.0-3.0","92374","","<p>Which tone was played third after the cadence?</p><p>Please respond as quickly and as accurately as possible!</p>","7","","3","new_stimuli/mp3/melody_^5_^6_v5_v4_v3_v2_v1_buffer.mp3"
"","1014.6149999927729","html-button-response","171","1063734","0.0-19.0-4.0","92374","","<p>Which tone was played fourth after the cadence?</p><p>Please respond as quickly and as accurately as possible!</p>","5","","4","new_stimuli/mp3/melody_^5_^6_v5_v4_v3_v2_v1_buffer.mp3"
"","438.75999993178993","html-button-response","172","1064174","0.0-19.0-5.0","92374","","<p>Which tone was played fifth after the cadence?</p><p>Please respond as quickly and as accurately as possible!</p>","4","","5","new_stimuli/mp3/melody_^5_^6_v5_v4_v3_v2_v1_buffer.mp3"
"","702.7649999363348","html-button-response","173","1064878","0.0-19.0-6.0","92374","","<p>Which tone was played sixth after the cadence?</p><p>Please respond as quickly and as accurately as possible!</p>","2","","6","new_stimuli/mp3/melody_^5_^6_v5_v4_v3_v2_v1_buffer.mp3"
"","640.0399999693036","html-button-response","174","1065520","0.0-19.0-7.0","92374","","<p>Which tone was played seventh after the cadence?</p><p>Please respond as quickly and as accurately as possible!</p>","0","","7","new_stimuli/mp3/melody_^5_^6_v5_v4_v3_v2_v1_buffer.mp3"
"","null","audio-keyboard-response","175","1077217","0.0-19.0-0.1","92374","","new_stimuli/mp3/melody_v1_^2_v1_v7_^1_^3_v2_.mp3","","null","",""
"","1397.2500000381842","html-button-response","176","1078616","0.0-19.0-1.1","92374","","<p>Which tone was played first after the cadence?</p><p>Please respond as quickly and as accurately as possible!</p>","0","","1","new_stimuli/mp3/melody_v1_^2_v1_v7_^1_^3_v2_.mp3"
"","709.5500000286847","html-button-response","177","1079326","0.0-19.0-2.1","92374","","<p>Which tone was played second after the cadence?</p><p>Please respond as quickly and as accurately as possible!</p>","2","","2","new_stimuli/mp3/melody_v1_^2_v1_v7_^1_^3_v2_.mp3"
"","727.1399999735877","html-button-response","178","1080054","0.0-19.0-3.1","92374","","<p>Which tone was played third after the cadence?</p><p>Please respond as quickly and as accurately as possible!</p>","0","","3","new_stimuli/mp3/melody_v1_^2_v1_v7_^1_^3_v2_.mp3"
"","1063.135000062175","html-button-response","179","1081119","0.0-19.0-4.1","92374","","<p>Which tone was played fourth after the cadence?</p><p>Please respond as quickly and as accurately as possible!</p>","11","","4","new_stimuli/mp3/melody_v1_^2_v1_v7_^1_^3_v2_.mp3"
"","990.3749999357387","html-button-response","180","1082110","0.0-19.0-5.1","92374","","<p>Which tone was played fifth after the cadence?</p><p>Please respond as quickly and as accurately as possible!</p>","0","","5","new_stimuli/mp3/melody_v1_^2_v1_v7_^1_^3_v2_.mp3"
"","1086.8299999274313","html-button-response","181","1083198","0.0-19.0-6.1","92374","","<p>Which tone was played sixth after the cadence?</p><p>Please respond as quickly and as accurately as possible!</p>","4","","6","new_stimuli/mp3/melody_v1_^2_v1_v7_^1_^3_v2_.mp3"
"","894.4650000194088","html-button-response","182","1084094","0.0-19.0-7.1","92374","","<p>Which tone was played seventh after the cadence?</p><p>Please respond as quickly and as accurately as possible!</p>","2","","7","new_stimuli/mp3/melody_v1_^2_v1_v7_^1_^3_v2_.mp3"
"","null","audio-keyboard-response","183","1095798","0.0-19.0-0.2","92374","","new_stimuli/mp3/melody_^1_v7_v6_v5_v4_v3_v2_buffer.mp3","","null","",""
"","1206.294999923557","html-button-response","184","1097006","0.0-19.0-1.2","92374","","<p>Which tone was played first after the cadence?</p><p>Please respond as quickly and as accurately as possible!</p>","12","","1","new_stimuli/mp3/melody_^1_v7_v6_v5_v4_v3_v2_buffer.mp3"
"","1038.8249999377877","html-button-response","185","1098046","0.0-19.0-2.2","92374","","<p>Which tone was played second after the cadence?</p><p>Please respond as quickly and as accurately as possible!</p>","11","","2","new_stimuli/mp3/melody_^1_v7_v6_v5_v4_v3_v2_buffer.mp3"
"","782.6099999947473","html-button-response","186","1098830","0.0-19.0-3.2","92374","","<p>Which tone was played third after the cadence?</p><p>Please respond as quickly and as accurately as possible!</p>","9","","3","new_stimuli/mp3/melody_^1_v7_v6_v5_v4_v3_v2_buffer.mp3"
"","590.5849999981001","html-button-response","187","1099422","0.0-19.0-4.2","92374","","<p>Which tone was played fourth after the cadence?</p><p>Please respond as quickly and as accurately as possible!</p>","7","","4","new_stimuli/mp3/melody_^1_v7_v6_v5_v4_v3_v2_buffer.mp3"
"","718.8999999780208","html-button-response","188","1100142","0.0-19.0-5.2","92374","","<p>Which tone was played fifth after the cadence?</p><p>Please respond as quickly and as accurately as possible!</p>","5","","5","new_stimuli/mp3/melody_^1_v7_v6_v5_v4_v3_v2_buffer.mp3"
"","544.4900000002235","html-button-response","189","1100688","0.0-19.0-6.2","92374","","<p>Which tone was played sixth after the cadence?</p><p>Please respond as quickly and as accurately as possible!</p>","4","","6","new_stimuli/mp3/melody_^1_v7_v6_v5_v4_v3_v2_buffer.mp3"
"","701.119999983348","html-button-response","190","1101390","0.0-19.0-7.2","92374","","<p>Which tone was played seventh after the cadence?</p><p>Please respond as quickly and as accurately as possible!</p>","2","","7","new_stimuli/mp3/melody_^1_v7_v6_v5_v4_v3_v2_buffer.mp3"
"","null","audio-keyboard-response","191","1113352","0.0-19.0-0.3","92374","","new_stimuli/mp3/melody_1_^3_v1_^5_v3_v2_^3_.mp3","","null","",""
"","1583.0550000537187","html-button-response","192","1114936","0.0-19.0-1.3","92374","","<p>Which tone was played first after the cadence?</p><p>Please respond as quickly and as accurately as possible!</p>","0","","1","new_stimuli/mp3/melody_1_^3_v1_^5_v3_v2_^3_.mp3"
"","725.389999919571","html-button-response","193","1115663","0.0-19.0-2.3","92374","","<p>Which tone was played second after the cadence?</p><p>Please respond as quickly and as accurately as possible!</p>","2","","2","new_stimuli/mp3/melody_1_^3_v1_^5_v3_v2_^3_.mp3"
"","678.055000025779","html-button-response","194","1116343","0.0-19.0-3.3","92374","","<p>Which tone was played third after the cadence?</p><p>Please respond as quickly and as accurately as possible!</p>","0","","3","new_stimuli/mp3/melody_1_^3_v1_^5_v3_v2_^3_.mp3"
"","1438.6500000255182","html-button-response","195","1117783","0.0-19.0-4.3","92374","","<p>Which tone was played fourth after the cadence?</p><p>Please respond as quickly and as accurately as possible!</p>","7","","4","new_stimuli/mp3/melody_1_^3_v1_^5_v3_v2_^3_.mp3"
"","1103.0449999962002","html-button-response","196","1118888","0.0-19.0-5.3","92374","","<p>Which tone was played fifth after the cadence?</p><p>Please respond as quickly and as accurately as possible!</p>","4","","5","new_stimuli/mp3/melody_1_^3_v1_^5_v3_v2_^3_.mp3"
"","596.7849999433383","html-button-response","197","1119487","0.0-19.0-6.3","92374","","<p>Which tone was played sixth after the cadence?</p><p>Please respond as quickly and as accurately as possible!</p>","2","","6","new_stimuli/mp3/melody_1_^3_v1_^5_v3_v2_^3_.mp3"
"","628.8249999051914","html-button-response","198","1120119","0.0-19.0-7.3","92374","","<p>Which tone was played seventh after the cadence?</p><p>Please respond as quickly and as accurately as possible!</p>","4","","7","new_stimuli/mp3/melody_1_^3_v1_^5_v3_v2_^3_.mp3"
"","null","audio-keyboard-response","199","1131821","0.0-19.0-0.4","92374","","new_stimuli/mp3/melody_^4_^5_^6_v5_v4_v3_v2_.mp3","","null","",""
"","1281.3549999846146","html-button-response","200","1133105","0.0-19.0-1.4","92374","","<p>Which tone was played first after the cadence?</p><p>Please respond as quickly and as accurately as possible!</p>","5","","1","new_stimuli/mp3/melody_^4_^5_^6_v5_v4_v3_v2_.mp3"
"","693.1450000265613","html-button-response","201","1133799","0.0-19.0-2.4","92374","","<p>Which tone was played second after the cadence?</p><p>Please respond as quickly and as accurately as possible!</p>","7","","2","new_stimuli/mp3/melody_^4_^5_^6_v5_v4_v3_v2_.mp3"
"","582.6550000347197","html-button-response","202","1134383","0.0-19.0-3.4","92374","","<p>Which tone was played third after the cadence?</p><p>Please respond as quickly and as accurately as possible!</p>","9","","3","new_stimuli/mp3/melody_^4_^5_^6_v5_v4_v3_v2_.mp3"
"","688.6100000701845","html-button-response","203","1135073","0.0-19.0-4.4","92374","","<p>Which tone was played fourth after the cadence?</p><p>Please respond as quickly and as accurately as possible!</p>","7","","4","new_stimuli/mp3/melody_^4_^5_^6_v5_v4_v3_v2_.mp3"
"","740.9700000425801","html-button-response","204","1135815","0.0-19.0-5.4","92374","","<p>Which tone was played fifth after the cadence?</p><p>Please respond as quickly and as accurately as possible!</p>","5","","5","new_stimuli/mp3/melody_^4_^5_^6_v5_v4_v3_v2_.mp3"
"","646.6549999313429","html-button-response","205","1136463","0.0-19.0-6.4","92374","","<p>Which tone was played sixth after the cadence?</p><p>Please respond as quickly and as accurately as possible!</p>","4","","6","new_stimuli/mp3/melody_^4_^5_^6_v5_v4_v3_v2_.mp3"
"","598.8150000339374","html-button-response","206","1137063","0.0-19.0-7.4","92374","","<p>Which tone was played seventh after the cadence?</p><p>Please respond as quickly and as accurately as possible!</p>","2","","7","new_stimuli/mp3/melody_^4_^5_^6_v5_v4_v3_v2_.mp3"
"","null","audio-keyboard-response","207","1148715","0.0-19.0-0.5","92374","","new_stimuli/mp3/melody_^6_v5+_v4_^5+_v3_v1_v7-_.mp3","","null","",""
"","1755.9950000140816","html-button-response","208","1150472","0.0-19.0-1.5","92374","","<p>Which tone was played first after the cadence?</p><p>Please respond as quickly and as accurately as possible!</p>","9","","1","new_stimuli/mp3/melody_^6_v5+_v4_^5+_v3_v1_v7-_.mp3"
"","621.8649999937043","html-button-response","209","1151095","0.0-19.0-2.5","92374","","<p>Which tone was played second after the cadence?</p><p>Please respond as quickly and as accurately as possible!</p>","8","","2","new_stimuli/mp3/melody_^6_v5+_v4_^5+_v3_v1_v7-_.mp3"
"","446.7599999625236","html-button-response","210","1151543","0.0-19.0-3.5","92374","","<p>Which tone was played third after the cadence?</p><p>Please respond as quickly and as accurately as possible!</p>","9","","3","new_stimuli/mp3/melody_^6_v5+_v4_^5+_v3_v1_v7-_.mp3"
"","1238.8250000076368","html-button-response","211","1152783","0.0-19.0-4.5","92374","","<p>Which tone was played fourth after the cadence?</p><p>Please respond as quickly and as accurately as possible!</p>","5","","4","new_stimuli/mp3/melody_^6_v5+_v4_^5+_v3_v1_v7-_.mp3"
"","590.8999999519438","html-button-response","212","1153375","0.0-19.0-5.5","92374","","<p>Which tone was played fifth after the cadence?</p><p>Please respond as quickly and as accurately as possible!</p>","4","","5","new_stimuli/mp3/melody_^6_v5+_v4_^5+_v3_v1_v7-_.mp3"
"","686.7600000696257","html-button-response","213","1154063","0.0-19.0-6.5","92374","","<p>Which tone was played sixth after the cadence?</p><p>Please respond as quickly and as accurately as possible!</p>","0","","6","new_stimuli/mp3/melody_^6_v5+_v4_^5+_v3_v1_v7-_.mp3"
"","599.019999965094","html-button-response","214","1154663","0.0-19.0-7.5","92374","","<p>Which tone was played seventh after the cadence?</p><p>Please respond as quickly and as accurately as possible!</p>","10","","7","new_stimuli/mp3/melody_^6_v5+_v4_^5+_v3_v1_v7-_.mp3"
"","null","audio-keyboard-response","215","1166340","0.0-19.0-0.6","92374","","new_stimuli/mp3/melody_^4_v6-_v5-_^6-_^4_v2-_2-_.mp3","","null","",""
"","2057.4150000466034","html-button-response","216","1168399","0.0-19.0-1.6","92374","","<p>Which tone was played first after the cadence?</p><p>Please respond as quickly and as accurately as possible!</p>","5","","1","new_stimuli/mp3/melody_^4_v6-_v5-_^6-_^4_v2-_2-_.mp3"
"","2750.844999914989","html-button-response","217","1171151","0.0-19.0-2.6","92374","","<p>Which tone was played second after the cadence?</p><p>Please respond as quickly and as accurately as possible!</p>","8","","2","new_stimuli/mp3/melody_^4_v6-_v5-_^6-_^4_v2-_2-_.mp3"
"","2310.6549999210984","html-button-response","218","1173463","0.0-19.0-3.6","92374","","<p>Which tone was played third after the cadence?</p><p>Please respond as quickly and as accurately as possible!</p>","6","","3","new_stimuli/mp3/melody_^4_v6-_v5-_^6-_^4_v2-_2-_.mp3"
"","742.8650000365451","html-button-response","219","1174207","0.0-19.0-4.6","92374","","<p>Which tone was played fourth after the cadence?</p><p>Please respond as quickly and as accurately as possible!</p>","8","","4","new_stimuli/mp3/melody_^4_v6-_v5-_^6-_^4_v2-_2-_.mp3"
"","1118.9950000261888","html-button-response","220","1175328","0.0-19.0-5.6","92374","","<p>Which tone was played fifth after the cadence?</p><p>Please respond as quickly and as accurately as possible!</p>","5","","5","new_stimuli/mp3/melody_^4_v6-_v5-_^6-_^4_v2-_2-_.mp3"
"","740.7649999950081","html-button-response","221","1176071","0.0-19.0-6.6","92374","","<p>Which tone was played sixth after the cadence?</p><p>Please respond as quickly and as accurately as possible!</p>","1","","6","new_stimuli/mp3/melody_^4_v6-_v5-_^6-_^4_v2-_2-_.mp3"
"","798.9899999229237","html-button-response","222","1176871","0.0-19.0-7.6","92374","","<p>Which tone was played seventh after the cadence?</p><p>Please respond as quickly and as accurately as possible!</p>","1","","7","new_stimuli/mp3/melody_^4_v6-_v5-_^6-_^4_v2-_2-_.mp3"
"[{""page_index"":0,""viewing_time"":4799.0549999522045},{""page_index"":1,""viewing_time"":1768.0650000693277},{""page_index"":2,""viewing_time"":1200.5499999504536}]","7767.8999999770895","instructions","223","1184639","0.0-20.0","92374","","","","","",""
"","null","audio-keyboard-response","224","1197568","0.0-21.0-0.0","92374","","new_stimuli/mp3/melody_^2_^4_v3_v2_v1_v3_v2+_^3_^5+_.mp3","","null","",""
"","4021.444999962114","html-button-response","225","1201591","0.0-21.0-1.0","92374","","<p>Which tone was played first after the cadence?</p><p>Please respond as quickly and as accurately as possible!</p>","0","","1","new_stimuli/mp3/melody_^2_^4_v3_v2_v1_v3_v2+_^3_^5+_.mp3"
"","742.5950000761077","html-button-response","226","1202335","0.0-21.0-2.0","92374","","<p>Which tone was played second after the cadence?</p><p>Please respond as quickly and as accurately as possible!</p>","5","","2","new_stimuli/mp3/melody_^2_^4_v3_v2_v1_v3_v2+_^3_^5+_.mp3"
"","542.8300000494346","html-button-response","227","1202879","0.0-21.0-3.0","92374","","<p>Which tone was played third after the cadence?</p><p>Please respond as quickly and as accurately as possible!</p>","4","","3","new_stimuli/mp3/melody_^2_^4_v3_v2_v1_v3_v2+_^3_^5+_.mp3"
"","1111.5450001088902","html-button-response","228","1203992","0.0-21.0-4.0","92374","","<p>Which tone was played fourth after the cadence?</p><p>Please respond as quickly and as accurately as possible!</p>","2","","4","new_stimuli/mp3/melody_^2_^4_v3_v2_v1_v3_v2+_^3_^5+_.mp3"
"","615.7300000777468","html-button-response","229","1204609","0.0-21.0-5.0","92374","","<p>Which tone was played fifth after the cadence?</p><p>Please respond as quickly and as accurately as possible!</p>","0","","5","new_stimuli/mp3/melody_^2_^4_v3_v2_v1_v3_v2+_^3_^5+_.mp3"
"","789.310000021942","html-button-response","230","1205399","0.0-21.0-6.0","92374","","<p>Which tone was played sixth after the cadence?</p><p>Please respond as quickly and as accurately as possible!</p>","4","","6","new_stimuli/mp3/melody_^2_^4_v3_v2_v1_v3_v2+_^3_^5+_.mp3"
"","743.6799999559298","html-button-response","231","1206144","0.0-21.0-7.0","92374","","<p>Which tone was played seventh after the cadence?</p><p>Please respond as quickly and as accurately as possible!</p>","3","","7","new_stimuli/mp3/melody_^2_^4_v3_v2_v1_v3_v2+_^3_^5+_.mp3"
"","701.7750000813976","html-button-response","232","1206847","0.0-21.0-8.0","92374","","<p>Which tone was played eight after the cadence?</p><p>Please respond as quickly and as accurately as possible!</p>","4","","8","new_stimuli/mp3/melody_^2_^4_v3_v2_v1_v3_v2+_^3_^5+_.mp3"
"","4085.9049999853596","html-button-response","233","1210935","0.0-21.0-9.0","92374","","<p>Which tone was played nineth after the cadence?</p><p>Please respond as quickly and as accurately as possible!</p>","8","","9","new_stimuli/mp3/melody_^2_^4_v3_v2_v1_v3_v2+_^3_^5+_.mp3"
"","null","audio-keyboard-response","234","1223889","0.0-21.0-0.1","92374","","new_stimuli/mp3/melody_^5_^6_v5_v4_v3_v2_v1_^2_^3_buffer.mp3","","null","",""
"","1316.7099999263883","html-button-response","235","1225207","0.0-21.0-1.1","92374","","<p>Which tone was played first after the cadence?</p><p>Please respond as quickly and as accurately as possible!</p>","7","","1","new_stimuli/mp3/melody_^5_^6_v5_v4_v3_v2_v1_^2_^3_buffer.mp3"
"","614.6200000075623","html-button-response","236","1225823","0.0-21.0-2.1","92374","","<p>Which tone was played second after the cadence?</p><p>Please respond as quickly and as accurately as possible!</p>","9","","2","new_stimuli/mp3/melody_^5_^6_v5_v4_v3_v2_v1_^2_^3_buffer.mp3"
"","607.2450000792742","html-button-response","237","1226432","0.0-21.0-3.1","92374","","<p>Which tone was played third after the cadence?</p><p>Please respond as quickly and as accurately as possible!</p>","7","","3","new_stimuli/mp3/melody_^5_^6_v5_v4_v3_v2_v1_^2_^3_buffer.mp3"
"","669.9500000104308","html-button-response","238","1227103","0.0-21.0-4.1","92374","","<p>Which tone was played fourth after the cadence?</p><p>Please respond as quickly and as accurately as possible!</p>","5","","4","new_stimuli/mp3/melody_^5_^6_v5_v4_v3_v2_v1_^2_^3_buffer.mp3"
"","750.8800000650808","html-button-response","239","1227855","0.0-21.0-5.1","92374","","<p>Which tone was played fifth after the cadence?</p><p>Please respond as quickly and as accurately as possible!</p>","4","","5","new_stimuli/mp3/melody_^5_^6_v5_v4_v3_v2_v1_^2_^3_buffer.mp3"
"","830.7999999960884","html-button-response","240","1228687","0.0-21.0-6.1","92374","","<p>Which tone was played sixth after the cadence?</p><p>Please respond as quickly and as accurately as possible!</p>","2","","6","new_stimuli/mp3/melody_^5_^6_v5_v4_v3_v2_v1_^2_^3_buffer.mp3"
"","742.9299999494106","html-button-response","241","1229432","0.0-21.0-7.1","92374","","<p>Which tone was played seventh after the cadence?</p><p>Please respond as quickly and as accurately as possible!</p>","0","","7","new_stimuli/mp3/melody_^5_^6_v5_v4_v3_v2_v1_^2_^3_buffer.mp3"
"","572.7050000568852","html-button-response","242","1230007","0.0-21.0-8.1","92374","","<p>Which tone was played eight after the cadence?</p><p>Please respond as quickly and as accurately as possible!</p>","2","","8","new_stimuli/mp3/melody_^5_^6_v5_v4_v3_v2_v1_^2_^3_buffer.mp3"
"","560.1900001056492","html-button-response","243","1230568","0.0-21.0-9.1","92374","","<p>Which tone was played nineth after the cadence?</p><p>Please respond as quickly and as accurately as possible!</p>","4","","9","new_stimuli/mp3/melody_^5_^6_v5_v4_v3_v2_v1_^2_^3_buffer.mp3"
"","null","audio-keyboard-response","244","1243212","0.0-21.0-0.2","92374","","new_stimuli/mp3/melody_v5_v4_v6+_^7_^3+_v3_v2_v5_^4_.mp3","","null","",""
"","1656.6999999340624","html-button-response","245","1244871","0.0-21.0-1.2","92374","","<p>Which tone was played first after the cadence?</p><p>Please respond as quickly and as accurately as possible!</p>","7","","1","new_stimuli/mp3/melody_v5_v4_v6+_^7_^3+_v3_v2_v5_^4_.mp3"
"","559.2249999754131","html-button-response","246","1245433","0.0-21.0-2.2","92374","","<p>Which tone was played second after the cadence?</p><p>Please respond as quickly and as accurately as possible!</p>","5","","2","new_stimuli/mp3/melody_v5_v4_v6+_^7_^3+_v3_v2_v5_^4_.mp3"
"","582.0700000040233","html-button-response","247","1246017","0.0-21.0-3.2","92374","","<p>Which tone was played third after the cadence?</p><p>Please respond as quickly and as accurately as possible!</p>","4","","3","new_stimuli/mp3/melody_v5_v4_v6+_^7_^3+_v3_v2_v5_^4_.mp3"
"","868.6649999581277","html-button-response","248","1246887","0.0-21.0-4.2","92374","","<p>Which tone was played fourth after the cadence?</p><p>Please respond as quickly and as accurately as possible!</p>","2","","4","new_stimuli/mp3/melody_v5_v4_v6+_^7_^3+_v3_v2_v5_^4_.mp3"
"","822.7449998958036","html-button-response","249","1247711","0.0-21.0-5.2","92374","","<p>Which tone was played fifth after the cadence?</p><p>Please respond as quickly and as accurately as possible!</p>","4","","5","new_stimuli/mp3/melody_v5_v4_v6+_^7_^3+_v3_v2_v5_^4_.mp3"
"","863.3300000801682","html-button-response","250","1248575","0.0-21.0-6.2","92374","","<p>Which tone was played sixth after the cadence?</p><p>Please respond as quickly and as accurately as possible!</p>","8","","6","new_stimuli/mp3/melody_v5_v4_v6+_^7_^3+_v3_v2_v5_^4_.mp3"
"","470.42999998666346","html-button-response","251","1249047","0.0-21.0-7.2","92374","","<p>Which tone was played seventh after the cadence?</p><p>Please respond as quickly and as accurately as possible!</p>","7","","7","new_stimuli/mp3/melody_v5_v4_v6+_^7_^3+_v3_v2_v5_^4_.mp3"
"","2440.455000032671","html-button-response","252","1251489","0.0-21.0-8.2","92374","","<p>Which tone was played eight after the cadence?</p><p>Please respond as quickly and as accurately as possible!</p>","9","","8","new_stimuli/mp3/melody_v5_v4_v6+_^7_^3+_v3_v2_v5_^4_.mp3"
"","1036.5299999248236","html-button-response","253","1252527","0.0-21.0-9.2","92374","","<p>Which tone was played nineth after the cadence?</p><p>Please respond as quickly and as accurately as possible!</p>","4","","9","new_stimuli/mp3/melody_v5_v4_v6+_^7_^3+_v3_v2_v5_^4_.mp3"
"","null","audio-keyboard-response","254","1265175","0.0-21.0-0.3","92374","","new_stimuli/mp3/melody_v7_v6_v5_^6_v5_v4_^5_^6_v5_.mp3","","null","",""
"","4151.139999972656","html-button-response","255","1269328","0.0-21.0-1.3","92374","","<p>Which tone was played first after the cadence?</p><p>Please respond as quickly and as accurately as possible!</p>","11","","1","new_stimuli/mp3/melody_v7_v6_v5_^6_v5_v4_^5_^6_v5_.mp3"
"","581.6849999828264","html-button-response","256","1269911","0.0-21.0-2.3","92374","","<p>Which tone was played second after the cadence?</p><p>Please respond as quickly and as accurately as possible!</p>","9","","2","new_stimuli/mp3/melody_v7_v6_v5_^6_v5_v4_^5_^6_v5_.mp3"
"","638.8749999459833","html-button-response","257","1270551","0.0-21.0-3.3","92374","","<p>Which tone was played third after the cadence?</p><p>Please respond as quickly and as accurately as possible!</p>","7","","3","new_stimuli/mp3/melody_v7_v6_v5_^6_v5_v4_^5_^6_v5_.mp3"
"","623.5149999847636","html-button-response","258","1271176","0.0-21.0-4.3","92374","","<p>Which tone was played fourth after the cadence?</p><p>Please respond as quickly and as accurately as possible!</p>","9","","4","new_stimuli/mp3/melody_v7_v6_v5_^6_v5_v4_^5_^6_v5_.mp3"
"","766.5950000518933","html-button-response","259","1271944","0.0-21.0-5.3","92374","","<p>Which tone was played fifth after the cadence?</p><p>Please respond as quickly and as accurately as possible!</p>","7","","5","new_stimuli/mp3/melody_v7_v6_v5_^6_v5_v4_^5_^6_v5_.mp3"
"","526.2199999997392","html-button-response","260","1272471","0.0-21.0-6.3","92374","","<p>Which tone was played sixth after the cadence?</p><p>Please respond as quickly and as accurately as possible!</p>","5","","6","new_stimuli/mp3/melody_v7_v6_v5_^6_v5_v4_^5_^6_v5_.mp3"
"","582.5300000142306","html-button-response","261","1273055","0.0-21.0-7.3","92374","","<p>Which tone was played seventh after the cadence?</p><p>Please respond as quickly and as accurately as possible!</p>","7","","7","new_stimuli/mp3/melody_v7_v6_v5_^6_v5_v4_^5_^6_v5_.mp3"
"","382.64999992679805","html-button-response","262","1273439","0.0-21.0-8.3","92374","","<p>Which tone was played eight after the cadence?</p><p>Please respond as quickly and as accurately as possible!</p>","9","","8","new_stimuli/mp3/melody_v7_v6_v5_^6_v5_v4_^5_^6_v5_.mp3"
"","622.8600000031292","html-button-response","263","1274063","0.0-21.0-9.3","92374","","<p>Which tone was played nineth after the cadence?</p><p>Please respond as quickly and as accurately as possible!</p>","7","","9","new_stimuli/mp3/melody_v7_v6_v5_^6_v5_v4_^5_^6_v5_.mp3"
"","null","audio-keyboard-response","264","1286711","0.0-21.0-0.4","92374","","new_stimuli/mp3/melody_^3_^4_v2_v7_^1_^2_^3_3_^4_.mp3","","null","",""
"","1454.2250001104549","html-button-response","265","1288168","0.0-21.0-1.4","92374","","<p>Which tone was played first after the cadence?</p><p>Please respond as quickly and as accurately as possible!</p>","4","","1","new_stimuli/mp3/melody_^3_^4_v2_v7_^1_^2_^3_3_^4_.mp3"
"","566.069999942556","html-button-response","266","1288735","0.0-21.0-2.4","92374","","<p>Which tone was played second after the cadence?</p><p>Please respond as quickly and as accurately as possible!</p>","5","","2","new_stimuli/mp3/melody_^3_^4_v2_v7_^1_^2_^3_3_^4_.mp3"
"","526.8400000641122","html-button-response","267","1289263","0.0-21.0-3.4","92374","","<p>Which tone was played third after the cadence?</p><p>Please respond as quickly and as accurately as possible!</p>","2","","3","new_stimuli/mp3/melody_^3_^4_v2_v7_^1_^2_^3_3_^4_.mp3"
"","1382.975000073202","html-button-response","268","1290647","0.0-21.0-4.4","92374","","<p>Which tone was played fourth after the cadence?</p><p>Please respond as quickly and as accurately as possible!</p>","11","","4","new_stimuli/mp3/melody_^3_^4_v2_v7_^1_^2_^3_3_^4_.mp3"
"","1080.405000015162","html-button-response","269","1291729","0.0-21.0-5.4","92374","","<p>Which tone was played fifth after the cadence?</p><p>Please respond as quickly and as accurately as possible!</p>","0","","5","new_stimuli/mp3/melody_^3_^4_v2_v7_^1_^2_^3_3_^4_.mp3"
"","766.0550000146031","html-button-response","270","1292497","0.0-21.0-6.4","92374","","<p>Which tone was played sixth after the cadence?</p><p>Please respond as quickly and as accurately as possible!</p>","2","","6","new_stimuli/mp3/melody_^3_^4_v2_v7_^1_^2_^3_3_^4_.mp3"
"","868.9899999881163","html-button-response","271","1293367","0.0-21.0-7.4","92374","","<p>Which tone was played seventh after the cadence?</p><p>Please respond as quickly and as accurately as possible!</p>","4","","7","new_stimuli/mp3/melody_^3_^4_v2_v7_^1_^2_^3_3_^4_.mp3"
"","414.71000004094094","html-button-response","272","1293783","0.0-21.0-8.4","92374","","<p>Which tone was played eight after the cadence?</p><p>Please respond as quickly and as accurately as possible!</p>","4","","8","new_stimuli/mp3/melody_^3_^4_v2_v7_^1_^2_^3_3_^4_.mp3"
"","526.8200000282377","html-button-response","273","1294311","0.0-21.0-9.4","92374","","<p>Which tone was played nineth after the cadence?</p><p>Please respond as quickly and as accurately as possible!</p>","5","","9","new_stimuli/mp3/melody_^3_^4_v2_v7_^1_^2_^3_3_^4_.mp3"
"","null","audio-keyboard-response","274","1307008","0.0-21.0-0.5","92374","","new_stimuli/mp3/melody_^2_^3_^4_^5_^6_v5_v4_v3_v2_buffer.mp3","","null","",""
"","1227.894999901764","html-button-response","275","1308238","0.0-21.0-1.5","92374","","<p>Which tone was played first after the cadence?</p><p>Please respond as quickly and as accurately as possible!</p>","2","","1","new_stimuli/mp3/melody_^2_^3_^4_^5_^6_v5_v4_v3_v2_buffer.mp3"
"","694.7399999480695","html-button-response","276","1308934","0.0-21.0-2.5","92374","","<p>Which tone was played second after the cadence?</p><p>Please respond as quickly and as accurately as possible!</p>","4","","2","new_stimuli/mp3/melody_^2_^3_^4_^5_^6_v5_v4_v3_v2_buffer.mp3"
"","527.9800000134856","html-button-response","277","1309464","0.0-21.0-3.5","92374","","<p>Which tone was played third after the cadence?</p><p>Please respond as quickly and as accurately as possible!</p>","5","","3","new_stimuli/mp3/melody_^2_^3_^4_^5_^6_v5_v4_v3_v2_buffer.mp3"
"","605.7250000303611","html-button-response","278","1310070","0.0-21.0-4.5","92374","","<p>Which tone was played fourth after the cadence?</p><p>Please respond as quickly and as accurately as possible!</p>","7","","4","new_stimuli/mp3/melody_^2_^3_^4_^5_^6_v5_v4_v3_v2_buffer.mp3"
"","598.8350000698119","html-button-response","279","1310671","0.0-21.0-5.5","92374","","<p>Which tone was played fifth after the cadence?</p><p>Please respond as quickly and as accurately as possible!</p>","9","","5","new_stimuli/mp3/melody_^2_^3_^4_^5_^6_v5_v4_v3_v2_buffer.mp3"
"","743.9850000664592","html-button-response","280","1311416","0.0-21.0-6.5","92374","","<p>Which tone was played sixth after the cadence?</p><p>Please respond as quickly and as accurately as possible!</p>","7","","6","new_stimuli/mp3/melody_^2_^3_^4_^5_^6_v5_v4_v3_v2_buffer.mp3"
"","445.8050000248477","html-button-response","281","1311864","0.0-21.0-7.5","92374","","<p>Which tone was played seventh after the cadence?</p><p>Please respond as quickly and as accurately as possible!</p>","5","","7","new_stimuli/mp3/melody_^2_^3_^4_^5_^6_v5_v4_v3_v2_buffer.mp3"
"","917.6100000040606","html-button-response","282","1312783","0.0-21.0-8.5","92374","","<p>Which tone was played eight after the cadence?</p><p>Please respond as quickly and as accurately as possible!</p>","4","","8","new_stimuli/mp3/melody_^2_^3_^4_^5_^6_v5_v4_v3_v2_buffer.mp3"
"","582.094999961555","html-button-response","283","1313367","0.0-21.0-9.5","92374","","<p>Which tone was played nineth after the cadence?</p><p>Please respond as quickly and as accurately as possible!</p>","2","","9","new_stimuli/mp3/melody_^2_^3_^4_^5_^6_v5_v4_v3_v2_buffer.mp3"
"","null","audio-keyboard-response","284","1325933","0.0-21.0-0.6","92374","","new_stimuli/mp3/melody_^3_^4_^5 _^6_v5_v4_v3_v2_v1_.mp3","","null","",""
"","1464.4100000150502","html-button-response","285","1327399","0.0-21.0-1.6","92374","","<p>Which tone was played first after the cadence?</p><p>Please respond as quickly and as accurately as possible!</p>","4","","1","new_stimuli/mp3/melody_^3_^4_^5 _^6_v5_v4_v3_v2_v1_.mp3"
"","470.6599999917671","html-button-response","286","1327871","0.0-21.0-2.6","92374","","<p>Which tone was played second after the cadence?</p><p>Please respond as quickly and as accurately as possible!</p>","5","","2","new_stimuli/mp3/melody_^3_^4_^5 _^6_v5_v4_v3_v2_v1_.mp3"
"","766.6350000072271","html-button-response","287","1328638","0.0-21.0-3.6","92374","","<p>Which tone was played third after the cadence?</p><p>Please respond as quickly and as accurately as possible!</p>","7","","3","new_stimuli/mp3/melody_^3_^4_^5 _^6_v5_v4_v3_v2_v1_.mp3"
"","638.7999999569729","html-button-response","288","1329278","0.0-21.0-4.6","92374","","<p>Which tone was played fourth after the cadence?</p><p>Please respond as quickly and as accurately as possible!</p>","9","","4","new_stimuli/mp3/melody_^3_^4_^5 _^6_v5_v4_v3_v2_v1_.mp3"
"","638.7499999254942","html-button-response","289","1329918","0.0-21.0-5.6","92374","","<p>Which tone was played fifth after the cadence?</p><p>Please respond as quickly and as accurately as possible!</p>","7","","5","new_stimuli/mp3/melody_^3_^4_^5 _^6_v5_v4_v3_v2_v1_.mp3"
"","854.784999974072","html-button-response","290","1330774","0.0-21.0-6.6","92374","","<p>Which tone was played sixth after the cadence?</p><p>Please respond as quickly and as accurately as possible!</p>","5","","6","new_stimuli/mp3/melody_^3_^4_^5 _^6_v5_v4_v3_v2_v1_.mp3"
"","510.8250000048429","html-button-response","291","1331286","0.0-21.0-7.6","92374","","<p>Which tone was played seventh after the cadence?</p><p>Please respond as quickly and as accurately as possible!</p>","4","","7","new_stimuli/mp3/melody_^3_^4_^5 _^6_v5_v4_v3_v2_v1_.mp3"
"","774.8949999222532","html-button-response","292","1332062","0.0-21.0-8.6","92374","","<p>Which tone was played eight after the cadence?</p><p>Please respond as quickly and as accurately as possible!</p>","2","","8","new_stimuli/mp3/melody_^3_^4_^5 _^6_v5_v4_v3_v2_v1_.mp3"
"","742.8800000343472","html-button-response","293","1332806","0.0-21.0-9.6","92374","","<p>Which tone was played nineth after the cadence?</p><p>Please respond as quickly and as accurately as possible!</p>","0","","9","new_stimuli/mp3/melody_^3_^4_^5 _^6_v5_v4_v3_v2_v1_.mp3"
"","39352.07999998238","survey-text","294","1372159","0.0-22.0","92374","{""Q0"":""Singing the tonic triad, then singing the prompt. Where thr prompt began or ended on a tendency tone, I would reolve that tendency tone and compare the resolution to the tonic. ""}","","","","",""
"","85517.99999992363","survey-text","295","1457679","0.0-23.0","92374","{""Q0"":""I had fun doing this, and was a little disappointed in myself for how much trouble I had with the 9-tone prompts. It seems to me that the experiment was to assess our ability to hear tones within the context of common musical patterns, vs. more \""far-out\"" or random-sounding groups. (i.e., those with a lot of chromaticism.) ""}","","","","",""
"","7103.620000067167","survey-text","296","1464784","0.0-24.0","92374","{""Q0"":""No. Just singing.""}","","","","",""
"","6925.410000025295","survey-text","297","1471711","0.0-25.0","92374","{""Q0"":""Headphones""}","","","","",""
"","6638.915000017732","survey-text","298","1478351","0.0-26.0","92374","{""Q0"":""Female""}","","","","",""
"","3751.4150000642985","survey-text","299","1482103","0.0-27.0","92374","{""Q0"":""Yes""}","","","","",""
"[{""page_index"":0,""viewing_time"":7886.615000083111}]","7886.865000007674","instructions","300","1489990","0.0-28.0","92374","","","","","",""
