"view_history","rt","trial_type","trial_index","time_elapsed","internal_node_id","subject","responses","stimulus","button_pressed","key_press","response_sequence","melody"
"[{""page_index"":0,""viewing_time"":1259.6100000009756},{""page_index"":1,""viewing_time"":780.7700000012119},{""page_index"":2,""viewing_time"":920.9699999992154}]","2962.5599999999395","instructions","0","3087","0.0-0.0","94708","","","","","",""
"","1917.8399999982503","survey-text","1","5008","0.0-1.0","94708","{""Q0"":""24""}","","","","",""
"","5935.994999999821","survey-text","2","10946","0.0-2.0","94708","{""Q0"":""Master's Student""}","","","","",""
"","7592.749999999796","survey-text","3","18540","0.0-3.0","94708","{""Q0"":""Fixed-Do""}","","","","",""
"","3344.4200000012643","survey-text","4","21886","0.0-4.0","94708","{""Q0"":""yes""}","","","","",""
"","2887.480000001233","survey-text","5","24775","0.0-5.0","94708","{""Q0"":""60""}","","","","",""
"","2430.899999999383","survey-text","6","27208","0.0-6.0","94708","{""Q0"":""0""}","","","","",""
"[{""page_index"":0,""viewing_time"":951.8099999986589},{""page_index"":1,""viewing_time"":15728.230000000622},{""page_index"":2,""viewing_time"":1323.100000001432}]","18003.57499999882","instructions","7","45213","0.0-7.0","94708","","","","","",""
"","7616.790000000037","audio-button-response","8","52838","0.0-8.0","94708","","stimuli/long/c-do.mp3","12","","",""
"","12488.925000001473","audio-button-response","9","65330","0.0-9.0","94708","","stimuli/long/a-le.mp3","8","","",""
"[{""page_index"":0,""viewing_time"":1794.9249999983294},{""page_index"":1,""viewing_time"":72117.37999999968}]","73912.72499999832","instructions","10","139245","0.0-10.0","94708","","","","","",""
"","8259.495000002062","audio-button-response","11","147508","0.0-11.0-0.0","94708","","stimuli/long/e-ra.mp3","5","","",""
"","9794.425000000047","audio-button-response","12","157306","0.0-11.0-0.1","94708","","stimuli/long/c-mi.mp3","4","","",""
"","8782.66000000076","audio-button-response","13","166091","0.0-11.0-0.2","94708","","stimuli/long/e-do8.mp3","12","","",""
"","8715.155000001687","audio-button-response","14","174809","0.0-11.0-0.3","94708","","stimuli/long/e-mi.mp3","9","","",""
"","7499.135000001843","audio-button-response","15","182310","0.0-11.0-0.4","94708","","stimuli/long/c-do8.mp3","12","","",""
"","8510.115000000951","audio-button-response","16","190823","0.0-11.0-0.5","94708","","stimuli/long/a-le.mp3","8","","",""
"","8324.015000001964","audio-button-response","17","199149","0.0-11.0-0.6","94708","","stimuli/long/c-re.mp3","2","","",""
"","7377.585000002","audio-button-response","18","206530","0.0-11.0-0.7","94708","","stimuli/long/c-la.mp3","9","","",""
"","16552.494999999908","audio-button-response","19","223085","0.0-11.0-0.8","94708","","stimuli/long/a-la.mp3","5","","",""
"","8014.030000002094","audio-button-response","20","231102","0.0-11.0-0.9","94708","","stimuli/long/c-fi.mp3","4","","",""
"","7734.914999997272","audio-button-response","21","238839","0.0-11.0-0.10","94708","","stimuli/long/c-le.mp3","9","","",""
"","12742.99500000052","audio-button-response","22","251586","0.0-11.0-0.11","94708","","stimuli/long/a-me.mp3","11","","",""
"","7837.3350000001665","audio-button-response","23","259425","0.0-11.0-0.12","94708","","stimuli/long/a-mi.mp3","4","","",""
"","13170.985000000655","audio-button-response","24","272599","0.0-11.0-0.13","94708","","stimuli/long/e-me.mp3","11","","",""
"","8992.940000000119","audio-button-response","25","281595","0.0-11.0-0.14","94708","","stimuli/long/e-sol.mp3","7","","",""
"","10949.605000001611","audio-button-response","26","292547","0.0-11.0-0.15","94708","","stimuli/long/e-fi.mp3","10","","",""
"","7895.83500000299","audio-button-response","27","300445","0.0-11.0-0.16","94708","","stimuli/long/a-ti.mp3","4","","",""
"","14572.49000000226","audio-button-response","28","315019","0.0-11.0-0.17","94708","","stimuli/long/a-ra.mp3","11","","",""
"","8169.324999998964","audio-button-response","29","323191","0.0-11.0-0.18","94708","","stimuli/long/e-do.mp3","12","","",""
"","14717.020000000019","audio-button-response","30","337911","0.0-11.0-0.19","94708","","stimuli/long/e-re.mp3","2","","",""
"","7419.095000001078","audio-button-response","31","345332","0.0-11.0-0.20","94708","","stimuli/long/c-me.mp3","3","","",""
"","10597.649999999732","audio-button-response","32","355932","0.0-11.0-0.21","94708","","stimuli/long/e-la.mp3","9","","",""
"","11238.600000000617","audio-button-response","33","367173","0.0-11.0-0.22","94708","","stimuli/long/e-ti.mp3","10","","",""
"","10709.924999999232","audio-button-response","34","377885","0.0-11.0-0.23","94708","","stimuli/long/e-te.mp3","9","","",""
"","null","audio-button-response","35","397888","0.0-11.0-0.24","94708","","stimuli/long/e-fa.mp3","null","","",""
"","7953.9999999979045","audio-button-response","36","405844","0.0-11.0-0.25","94708","","stimuli/long/c-sol.mp3","7","","",""
"","8326.469999999972","audio-button-response","37","414173","0.0-11.0-0.26","94708","","stimuli/long/a-do.mp3","12","","",""
"","13789.085000000312","audio-button-response","38","427965","0.0-11.0-0.27","94708","","stimuli/long/c-ra.mp3","1","","",""
"","8778.369999999995","audio-button-response","39","436745","0.0-11.0-0.28","94708","","stimuli/long/a-sol.mp3","3","","",""
"","8055.65999999817","audio-button-response","40","444803","0.0-11.0-0.29","94708","","stimuli/long/a-fi.mp3","3","","",""
"","8050.280000003055","audio-button-response","41","452856","0.0-11.0-0.30","94708","","stimuli/long/a-do8.mp3","12","","",""
"","7964.089999997639","audio-button-response","42","460823","0.0-11.0-0.31","94708","","stimuli/long/c-ti.mp3","11","","",""
"","17091.244999999646","audio-button-response","43","477917","0.0-11.0-0.32","94708","","stimuli/long/e-le.mp3","7","","",""
"","7441.274999997404","audio-button-response","44","485360","0.0-11.0-0.33","94708","","stimuli/long/c-do.mp3","12","","",""
"","17516.744999997143","audio-button-response","45","502879","0.0-11.0-0.34","94708","","stimuli/long/a-re.mp3","7","","",""
"","14619.889999998093","audio-button-response","46","517502","0.0-11.0-0.35","94708","","stimuli/long/a-te.mp3","5","","",""
"","7175.105000002077","audio-button-response","47","524691","0.0-11.0-0.36","94708","","stimuli/long/c-fa.mp3","5","","",""
"","16298.05000000121","audio-button-response","48","541007","0.0-11.0-0.37","94708","","stimuli/long/a-fa.mp3","5","","",""
"[{""page_index"":0,""viewing_time"":2602.904999999795},{""page_index"":1,""viewing_time"":1355.714999997872},{""page_index"":0,""viewing_time"":24875.254999999073},{""page_index"":1,""viewing_time"":1037.525000003283}]","29871.769999997923","instructions","49","570887","0.0-12.0","94708","","","","","",""
"","null","audio-keyboard-response","50","580069","0.0-13.0-0.0","94708","","new_stimuli/mp3/melody_^2_v7-_.mp3","","null","",""
"","7220.89000000048","html-button-response","51","587292","0.0-13.0-1.0","94708","","<p>Which tone was played first after the cadence?</p><p>Please respond as quickly and as accurately as possible!</p>","2","","1","new_stimuli/mp3/melody_^2_v7-_.mp3"
"","6676.260000000242","html-button-response","52","593971","0.0-13.0-2.0","94708","","<p>Which tone was played second after the cadence?</p><p>Please respond as quickly and as accurately as possible!</p>","11","","2","new_stimuli/mp3/melody_^2_v7-_.mp3"
"","null","audio-keyboard-response","53","602987","0.0-13.0-0.1","94708","","new_stimuli/mp3/melody_^1_^2+_.mp3","","null","",""
"","1828.6499999994412","html-button-response","54","604818","0.0-13.0-1.1","94708","","<p>Which tone was played first after the cadence?</p><p>Please respond as quickly and as accurately as possible!</p>","0","","1","new_stimuli/mp3/melody_^1_^2+_.mp3"
"","1000.850000000326","html-button-response","55","605820","0.0-13.0-2.1","94708","","<p>Which tone was played second after the cadence?</p><p>Please respond as quickly and as accurately as possible!</p>","3","","2","new_stimuli/mp3/melody_^1_^2+_.mp3"
"","null","audio-keyboard-response","56","614992","0.0-13.0-0.2","94708","","new_stimuli/mp3/melody_^5_^1+_.mp3","","null","",""
"","5114.2799999979325","html-button-response","57","620109","0.0-13.0-1.2","94708","","<p>Which tone was played first after the cadence?</p><p>Please respond as quickly and as accurately as possible!</p>","6","","1","new_stimuli/mp3/melody_^5_^1+_.mp3"
"","6564.7150000005495","html-button-response","58","626675","0.0-13.0-2.2","94708","","<p>Which tone was played second after the cadence?</p><p>Please respond as quickly and as accurately as possible!</p>","1","","2","new_stimuli/mp3/melody_^5_^1+_.mp3"
"","null","audio-keyboard-response","59","636106","0.0-13.0-0.3","94708","","new_stimuli/mp3/melody_v4_v3_buffer.mp3","","null","",""
"","1198.8050000000512","html-button-response","60","637307","0.0-13.0-1.3","94708","","<p>Which tone was played first after the cadence?</p><p>Please respond as quickly and as accurately as possible!</p>","5","","1","new_stimuli/mp3/melody_v4_v3_buffer.mp3"
"","559.1400000011781","html-button-response","61","637867","0.0-13.0-2.3","94708","","<p>Which tone was played second after the cadence?</p><p>Please respond as quickly and as accurately as possible!</p>","4","","2","new_stimuli/mp3/melody_v4_v3_buffer.mp3"
"","null","audio-keyboard-response","62","646932","0.0-13.0-0.4","94708","","new_stimuli/mp3/melody_v2_v1_.mp3","","null","",""
"","2592.6199999994133","html-button-response","63","649527","0.0-13.0-1.4","94708","","<p>Which tone was played first after the cadence?</p><p>Please respond as quickly and as accurately as possible!</p>","2","","1","new_stimuli/mp3/melody_v2_v1_.mp3"
"","1128.6049999980023","html-button-response","64","650657","0.0-13.0-2.4","94708","","<p>Which tone was played second after the cadence?</p><p>Please respond as quickly and as accurately as possible!</p>","0","","2","new_stimuli/mp3/melody_v2_v1_.mp3"
"","null","audio-keyboard-response","65","659953","0.0-13.0-0.5","94708","","new_stimuli/mp3/melody_3_^6_buffer.mp3","","null","",""
"","3218.1000000018394","html-button-response","66","663174","0.0-13.0-1.5","94708","","<p>Which tone was played first after the cadence?</p><p>Please respond as quickly and as accurately as possible!</p>","4","","1","new_stimuli/mp3/melody_3_^6_buffer.mp3"
"","1087.619999998482","html-button-response","67","664264","0.0-13.0-2.5","94708","","<p>Which tone was played second after the cadence?</p><p>Please respond as quickly and as accurately as possible!</p>","9","","2","new_stimuli/mp3/melody_3_^6_buffer.mp3"
"","null","audio-keyboard-response","68","673433","0.0-13.0-0.6","94708","","new_stimuli/mp3/melody_v5_v1+_.mp3","","null","",""
"","2335.960000000312","html-button-response","69","675771","0.0-13.0-1.6","94708","","<p>Which tone was played first after the cadence?</p><p>Please respond as quickly and as accurately as possible!</p>","7","","1","new_stimuli/mp3/melody_v5_v1+_.mp3"
"","1945.0250000009546","html-button-response","70","677718","0.0-13.0-2.6","94708","","<p>Which tone was played second after the cadence?</p><p>Please respond as quickly and as accurately as possible!</p>","1","","2","new_stimuli/mp3/melody_v5_v1+_.mp3"
"","null","audio-keyboard-response","71","686912","0.0-13.0-0.7","94708","","new_stimuli/mp3/melody_v3_v2_buffer.mp3","","null","",""
"","1717.5099999986123","html-button-response","72","688632","0.0-13.0-1.7","94708","","<p>Which tone was played first after the cadence?</p><p>Please respond as quickly and as accurately as possible!</p>","4","","1","new_stimuli/mp3/melody_v3_v2_buffer.mp3"
"","631.1900000000605","html-button-response","73","689265","0.0-13.0-2.7","94708","","<p>Which tone was played second after the cadence?</p><p>Please respond as quickly and as accurately as possible!</p>","2","","2","new_stimuli/mp3/melody_v3_v2_buffer.mp3"
"","null","audio-keyboard-response","74","698720","0.0-13.0-0.8","94708","","new_stimuli/mp3/melody_^3_v4+_buffer.mp3","","null","",""
"","6163.029999999795","html-button-response","75","704886","0.0-13.0-1.8","94708","","<p>Which tone was played first after the cadence?</p><p>Please respond as quickly and as accurately as possible!</p>","4","","1","new_stimuli/mp3/melody_^3_v4+_buffer.mp3"
"","2585.2650000015274","html-button-response","76","707474","0.0-13.0-2.8","94708","","<p>Which tone was played second after the cadence?</p><p>Please respond as quickly and as accurately as possible!</p>","6","","2","new_stimuli/mp3/melody_^3_v4+_buffer.mp3"
"","null","audio-keyboard-response","77","716931","0.0-13.0-0.9","94708","","new_stimuli/mp3/melody_v7_v3_buffer.mp3","","null","",""
"","2694.3150000006426","html-button-response","78","719628","0.0-13.0-1.9","94708","","<p>Which tone was played first after the cadence?</p><p>Please respond as quickly and as accurately as possible!</p>","11","","1","new_stimuli/mp3/melody_v7_v3_buffer.mp3"
"","837.0600000016857","html-button-response","79","720469","0.0-13.0-2.9","94708","","<p>Which tone was played second after the cadence?</p><p>Please respond as quickly and as accurately as possible!</p>","4","","2","new_stimuli/mp3/melody_v7_v3_buffer.mp3"
"[{""page_index"":0,""viewing_time"":1849.5000000002328},{""page_index"":1,""viewing_time"":1237.665000000503},{""page_index"":2,""viewing_time"":1346.3400000000838}]","4433.870000000694","instructions","80","724904","0.0-14.0","94708","","","","","",""
"","null","audio-keyboard-response","81","734463","0.0-15.0-0.0","94708","","new_stimuli/mp3/melody_v3_v2_v1_.mp3","","null","",""
"","2111.650000002468","html-button-response","82","736577","0.0-15.0-1.0","94708","","<p>Which tone was played first after the cadence?</p><p>Please respond as quickly and as accurately as possible!</p>","4","","1","new_stimuli/mp3/melody_v3_v2_v1_.mp3"
"","1047.9149999992223","html-button-response","83","737627","0.0-15.0-2.0","94708","","<p>Which tone was played second after the cadence?</p><p>Please respond as quickly and as accurately as possible!</p>","2","","2","new_stimuli/mp3/melody_v3_v2_v1_.mp3"
"","1095.8849999988452","html-button-response","84","738725","0.0-15.0-3.0","94708","","<p>Which tone was played third after the cadence?</p><p>Please respond as quickly and as accurately as possible!</p>","0","","3","new_stimuli/mp3/melody_v3_v2_v1_.mp3"
"","null","audio-keyboard-response","85","748314","0.0-15.0-0.1","94708","","new_stimuli/mp3/melody_v1_v7-_7-_buffer.mp3","","null","",""
"","1937.7050000003073","html-button-response","86","750254","0.0-15.0-1.1","94708","","<p>Which tone was played first after the cadence?</p><p>Please respond as quickly and as accurately as possible!</p>","12","","1","new_stimuli/mp3/melody_v1_v7-_7-_buffer.mp3"
"","6580.699999998673","html-button-response","87","756837","0.0-15.0-2.1","94708","","<p>Which tone was played second after the cadence?</p><p>Please respond as quickly and as accurately as possible!</p>","10","","2","new_stimuli/mp3/melody_v1_v7-_7-_buffer.mp3"
"","678.6899999970337","html-button-response","88","757518","0.0-15.0-3.1","94708","","<p>Which tone was played third after the cadence?</p><p>Please respond as quickly and as accurately as possible!</p>","10","","3","new_stimuli/mp3/melody_v1_v7-_7-_buffer.mp3"
"","null","audio-keyboard-response","89","767024","0.0-15.0-0.2","94708","","new_stimuli/mp3/melody_1_v1+_^2_.mp3","","null","",""
"","943.6749999985332","html-button-response","90","767969","0.0-15.0-1.2","94708","","<p>Which tone was played first after the cadence?</p><p>Please respond as quickly and as accurately as possible!</p>","0","","1","new_stimuli/mp3/melody_1_v1+_^2_.mp3"
"","575.1200000012759","html-button-response","91","768548","0.0-15.0-2.2","94708","","<p>Which tone was played second after the cadence?</p><p>Please respond as quickly and as accurately as possible!</p>","1","","2","new_stimuli/mp3/melody_1_v1+_^2_.mp3"
"","2132.1900000002934","html-button-response","92","770682","0.0-15.0-3.2","94708","","<p>Which tone was played third after the cadence?</p><p>Please respond as quickly and as accurately as possible!</p>","2","","3","new_stimuli/mp3/melody_1_v1+_^2_.mp3"
"","null","audio-keyboard-response","93","780585","0.0-15.0-0.3","94708","","new_stimuli/mp3/melody_^1_v6_v5+_.mp3","","null","",""
"","1239.4849999982398","html-button-response","94","781827","0.0-15.0-1.3","94708","","<p>Which tone was played first after the cadence?</p><p>Please respond as quickly and as accurately as possible!</p>","12","","1","new_stimuli/mp3/melody_^1_v6_v5+_.mp3"
"","799.0649999992456","html-button-response","95","782628","0.0-15.0-2.3","94708","","<p>Which tone was played second after the cadence?</p><p>Please respond as quickly and as accurately as possible!</p>","9","","2","new_stimuli/mp3/melody_^1_v6_v5+_.mp3"
"","1087.6449999996694","html-button-response","96","783718","0.0-15.0-3.3","94708","","<p>Which tone was played third after the cadence?</p><p>Please respond as quickly and as accurately as possible!</p>","8","","3","new_stimuli/mp3/melody_^1_v6_v5+_.mp3"
"","null","audio-keyboard-response","97","793669","0.0-15.0-0.4","94708","","new_stimuli/mp3/melody_v5_v4_v3_buffer.mp3","","null","",""
"","1781.2400000002235","html-button-response","98","795453","0.0-15.0-1.4","94708","","<p>Which tone was played first after the cadence?</p><p>Please respond as quickly and as accurately as possible!</p>","7","","1","new_stimuli/mp3/melody_v5_v4_v3_buffer.mp3"
"","640.670000000624","html-button-response","99","796095","0.0-15.0-2.4","94708","","<p>Which tone was played second after the cadence?</p><p>Please respond as quickly and as accurately as possible!</p>","5","","2","new_stimuli/mp3/melody_v5_v4_v3_buffer.mp3"
"","575.1349999991944","html-button-response","100","796672","0.0-15.0-3.4","94708","","<p>Which tone was played third after the cadence?</p><p>Please respond as quickly and as accurately as possible!</p>","4","","3","new_stimuli/mp3/melody_v5_v4_v3_buffer.mp3"
"","null","audio-keyboard-response","101","806313","0.0-15.0-0.5","94708","","new_stimuli/mp3/melody_6_^1_v5_.mp3","","null","",""
"","1526.484999998589","html-button-response","102","807842","0.0-15.0-1.5","94708","","<p>Which tone was played first after the cadence?</p><p>Please respond as quickly and as accurately as possible!</p>","9","","1","new_stimuli/mp3/melody_6_^1_v5_.mp3"
"","767.5500000003958","html-button-response","103","808611","0.0-15.0-2.5","94708","","<p>Which tone was played second after the cadence?</p><p>Please respond as quickly and as accurately as possible!</p>","12","","2","new_stimuli/mp3/melody_6_^1_v5_.mp3"
"","766.5699999998324","html-button-response","104","809380","0.0-15.0-3.5","94708","","<p>Which tone was played third after the cadence?</p><p>Please respond as quickly and as accurately as possible!</p>","7","","3","new_stimuli/mp3/melody_6_^1_v5_.mp3"
"","null","audio-keyboard-response","105","818939","0.0-15.0-0.6","94708","","new_stimuli/mp3/melody_v1_v7-_^7_.mp3","","null","",""
"","2849.145000000135","html-button-response","106","821791","0.0-15.0-1.6","94708","","<p>Which tone was played first after the cadence?</p><p>Please respond as quickly and as accurately as possible!</p>","12","","1","new_stimuli/mp3/melody_v1_v7-_^7_.mp3"
"","5148.040000000037","html-button-response","107","826940","0.0-15.0-2.6","94708","","<p>Which tone was played second after the cadence?</p><p>Please respond as quickly and as accurately as possible!</p>","10","","2","new_stimuli/mp3/melody_v1_v7-_^7_.mp3"
"","670.095000001369","html-button-response","108","827613","0.0-15.0-3.6","94708","","<p>Which tone was played third after the cadence?</p><p>Please respond as quickly and as accurately as possible!</p>","11","","3","new_stimuli/mp3/melody_v1_v7-_^7_.mp3"
"","null","audio-keyboard-response","109","837592","0.0-15.0-0.7","94708","","new_stimuli/mp3/melody_v2_v5_^3_buffer.mp3","","null","",""
"","1256.330000000191","html-button-response","110","838850","0.0-15.0-1.7","94708","","<p>Which tone was played first after the cadence?</p><p>Please respond as quickly and as accurately as possible!</p>","2","","1","new_stimuli/mp3/melody_v2_v5_^3_buffer.mp3"
"","1291.7899999993388","html-button-response","111","840143","0.0-15.0-2.7","94708","","<p>Which tone was played second after the cadence?</p><p>Please respond as quickly and as accurately as possible!</p>","7","","2","new_stimuli/mp3/melody_v2_v5_^3_buffer.mp3"
"","823.0650000005262","html-button-response","112","840969","0.0-15.0-3.7","94708","","<p>Which tone was played third after the cadence?</p><p>Please respond as quickly and as accurately as possible!</p>","4","","3","new_stimuli/mp3/melody_v2_v5_^3_buffer.mp3"
"","null","audio-keyboard-response","113","850664","0.0-15.0-0.8","94708","","new_stimuli/mp3/melody_v4_v3_v2_buffer.mp3","","null","",""
"","1256.2050000014715","html-button-response","114","851923","0.0-15.0-1.8","94708","","<p>Which tone was played first after the cadence?</p><p>Please respond as quickly and as accurately as possible!</p>","5","","1","new_stimuli/mp3/melody_v4_v3_v2_buffer.mp3"
"","955.0200000011828","html-button-response","115","852879","0.0-15.0-2.8","94708","","<p>Which tone was played second after the cadence?</p><p>Please respond as quickly and as accurately as possible!</p>","4","","2","new_stimuli/mp3/melody_v4_v3_v2_buffer.mp3"
"","1088.374999999418","html-button-response","116","853969","0.0-15.0-3.8","94708","","<p>Which tone was played third after the cadence?</p><p>Please respond as quickly and as accurately as possible!</p>","2","","3","new_stimuli/mp3/melody_v4_v3_v2_buffer.mp3"
"[{""page_index"":0,""viewing_time"":3381.8449999998556},{""page_index"":1,""viewing_time"":2111.624999997788},{""page_index"":2,""viewing_time"":880.7900000028312}]","6374.615000000573","instructions","117","860344","0.0-16.0","94708","","","","","",""
"","null","audio-keyboard-response","118","870925","0.0-17.0-0.0","94708","","new_stimuli/mp3/melody_v5_v4_v3_v2_v1 _buffer.mp3","","null","",""
"","3293.8649999996414","html-button-response","119","874220","0.0-17.0-1.0","94708","","<p>Which tone was played first after the cadence?</p><p>Please respond as quickly and as accurately as possible!</p>","7","","1","new_stimuli/mp3/melody_v5_v4_v3_v2_v1 _buffer.mp3"
"","944.3150000006426","html-button-response","120","875167","0.0-17.0-2.0","94708","","<p>Which tone was played second after the cadence?</p><p>Please respond as quickly and as accurately as possible!</p>","5","","2","new_stimuli/mp3/melody_v5_v4_v3_v2_v1 _buffer.mp3"
"","2369.754999999772","html-button-response","121","877538","0.0-17.0-3.0","94708","","<p>Which tone was played third after the cadence?</p><p>Please respond as quickly and as accurately as possible!</p>","4","","3","new_stimuli/mp3/melody_v5_v4_v3_v2_v1 _buffer.mp3"
"","1534.1649999973597","html-button-response","122","879074","0.0-17.0-4.0","94708","","<p>Which tone was played fourth after the cadence?</p><p>Please respond as quickly and as accurately as possible!</p>","2","","4","new_stimuli/mp3/melody_v5_v4_v3_v2_v1 _buffer.mp3"
"","869.4550000000745","html-button-response","123","879945","0.0-17.0-5.0","94708","","<p>Which tone was played fifth after the cadence?</p><p>Please respond as quickly and as accurately as possible!</p>","0","","5","new_stimuli/mp3/melody_v5_v4_v3_v2_v1 _buffer.mp3"
"","null","audio-keyboard-response","124","890894","0.0-17.0-0.1","94708","","new_stimuli/mp3/melody_^5_^6_v5_v4_v3_buffer.mp3","","null","",""
"","1493.0550000027288","html-button-response","125","892390","0.0-17.0-1.1","94708","","<p>Which tone was played first after the cadence?</p><p>Please respond as quickly and as accurately as possible!</p>","7","","1","new_stimuli/mp3/melody_^5_^6_v5_v4_v3_buffer.mp3"
"","647.0450000015553","html-button-response","126","893039","0.0-17.0-2.1","94708","","<p>Which tone was played second after the cadence?</p><p>Please respond as quickly and as accurately as possible!</p>","9","","2","new_stimuli/mp3/melody_^5_^6_v5_v4_v3_buffer.mp3"
"","655.0299999980489","html-button-response","127","893696","0.0-17.0-3.1","94708","","<p>Which tone was played third after the cadence?</p><p>Please respond as quickly and as accurately as possible!</p>","7","","3","new_stimuli/mp3/melody_^5_^6_v5_v4_v3_buffer.mp3"
"","654.8250000013504","html-button-response","128","894353","0.0-17.0-4.1","94708","","<p>Which tone was played fourth after the cadence?</p><p>Please respond as quickly and as accurately as possible!</p>","5","","4","new_stimuli/mp3/melody_^5_^6_v5_v4_v3_buffer.mp3"
"","541.2099999993807","html-button-response","129","894898","0.0-17.0-5.1","94708","","<p>Which tone was played fifth after the cadence?</p><p>Please respond as quickly and as accurately as possible!</p>","4","","5","new_stimuli/mp3/melody_^5_^6_v5_v4_v3_buffer.mp3"
"","null","audio-keyboard-response","130","905477","0.0-17.0-0.2","94708","","new_stimuli/mp3/melody_v2_2_^3_^4_v2_.mp3","","null","",""
"","1467.6399999988498","html-button-response","131","906947","0.0-17.0-1.2","94708","","<p>Which tone was played first after the cadence?</p><p>Please respond as quickly and as accurately as possible!</p>","2","","1","new_stimuli/mp3/melody_v2_2_^3_^4_v2_.mp3"
"","326.3950000000186","html-button-response","132","907275","0.0-17.0-2.2","94708","","<p>Which tone was played second after the cadence?</p><p>Please respond as quickly and as accurately as possible!</p>","2","","2","new_stimuli/mp3/melody_v2_2_^3_^4_v2_.mp3"
"","642.7599999988452","html-button-response","133","907920","0.0-17.0-3.2","94708","","<p>Which tone was played third after the cadence?</p><p>Please respond as quickly and as accurately as possible!</p>","4","","3","new_stimuli/mp3/melody_v2_2_^3_^4_v2_.mp3"
"","534.8350000021746","html-button-response","134","908457","0.0-17.0-4.2","94708","","<p>Which tone was played fourth after the cadence?</p><p>Please respond as quickly and as accurately as possible!</p>","5","","4","new_stimuli/mp3/melody_v2_2_^3_^4_v2_.mp3"
"","630.9899999978952","html-button-response","135","909089","0.0-17.0-5.2","94708","","<p>Which tone was played fifth after the cadence?</p><p>Please respond as quickly and as accurately as possible!</p>","2","","5","new_stimuli/mp3/melody_v2_2_^3_^4_v2_.mp3"
"","null","audio-keyboard-response","136","919723","0.0-17.0-0.3","94708","","new_stimuli/mp3/melody_v5_^6+_^7_^1_5_.mp3","","null","",""
"","1702.9799999981187","html-button-response","137","921428","0.0-17.0-1.3","94708","","<p>Which tone was played first after the cadence?</p><p>Please respond as quickly and as accurately as possible!</p>","7","","1","new_stimuli/mp3/melody_v5_^6+_^7_^1_5_.mp3"
"","694.5850000011269","html-button-response","138","922125","0.0-17.0-2.3","94708","","<p>Which tone was played second after the cadence?</p><p>Please respond as quickly and as accurately as possible!</p>","9","","2","new_stimuli/mp3/melody_v5_^6+_^7_^1_5_.mp3"
"","823.8349999992643","html-button-response","139","922951","0.0-17.0-3.3","94708","","<p>Which tone was played third after the cadence?</p><p>Please respond as quickly and as accurately as possible!</p>","11","","3","new_stimuli/mp3/melody_v5_^6+_^7_^1_5_.mp3"
"","621.9600000004284","html-button-response","140","923574","0.0-17.0-4.3","94708","","<p>Which tone was played fourth after the cadence?</p><p>Please respond as quickly and as accurately as possible!</p>","12","","4","new_stimuli/mp3/melody_v5_^6+_^7_^1_5_.mp3"
"","695.7000000003027","html-button-response","141","924272","0.0-17.0-5.3","94708","","<p>Which tone was played fifth after the cadence?</p><p>Please respond as quickly and as accurately as possible!</p>","7","","5","new_stimuli/mp3/melody_v5_^6+_^7_^1_5_.mp3"
"","null","audio-keyboard-response","142","934979","0.0-17.0-0.4","94708","","new_stimuli/mp3/melody_^6_v5_v4_v3_v2_buffer.mp3","","null","",""
"","1382.799999999348","html-button-response","143","936364","0.0-17.0-1.4","94708","","<p>Which tone was played first after the cadence?</p><p>Please respond as quickly and as accurately as possible!</p>","9","","1","new_stimuli/mp3/melody_^6_v5_v4_v3_v2_buffer.mp3"
"","581.9850000008009","html-button-response","144","936948","0.0-17.0-2.4","94708","","<p>Which tone was played second after the cadence?</p><p>Please respond as quickly and as accurately as possible!</p>","7","","2","new_stimuli/mp3/melody_^6_v5_v4_v3_v2_buffer.mp3"
"","590.6949999990175","html-button-response","145","937540","0.0-17.0-3.4","94708","","<p>Which tone was played third after the cadence?</p><p>Please respond as quickly and as accurately as possible!</p>","5","","3","new_stimuli/mp3/melody_^6_v5_v4_v3_v2_buffer.mp3"
"","651.0200000011828","html-button-response","146","938193","0.0-17.0-4.4","94708","","<p>Which tone was played fourth after the cadence?</p><p>Please respond as quickly and as accurately as possible!</p>","4","","4","new_stimuli/mp3/melody_^6_v5_v4_v3_v2_buffer.mp3"
"","558.9499999986729","html-button-response","147","938754","0.0-17.0-5.4","94708","","<p>Which tone was played fifth after the cadence?</p><p>Please respond as quickly and as accurately as possible!</p>","2","","5","new_stimuli/mp3/melody_^6_v5_v4_v3_v2_buffer.mp3"
"","null","audio-keyboard-response","148","949335","0.0-17.0-0.5","94708","","new_stimuli/mp3/melody_v5_v4_v3_v2_v1_.mp3","","null","",""
"","1485.1699999999255","html-button-response","149","950822","0.0-17.0-1.5","94708","","<p>Which tone was played first after the cadence?</p><p>Please respond as quickly and as accurately as possible!</p>","7","","1","new_stimuli/mp3/melody_v5_v4_v3_v2_v1_.mp3"
"","535.5600000002887","html-button-response","150","951360","0.0-17.0-2.5","94708","","<p>Which tone was played second after the cadence?</p><p>Please respond as quickly and as accurately as possible!</p>","5","","2","new_stimuli/mp3/melody_v5_v4_v3_v2_v1_.mp3"
"","518.8699999998789","html-button-response","151","951880","0.0-17.0-3.5","94708","","<p>Which tone was played third after the cadence?</p><p>Please respond as quickly and as accurately as possible!</p>","4","","3","new_stimuli/mp3/melody_v5_v4_v3_v2_v1_.mp3"
"","583.4549999999581","html-button-response","152","952465","0.0-17.0-4.5","94708","","<p>Which tone was played fourth after the cadence?</p><p>Please respond as quickly and as accurately as possible!</p>","2","","4","new_stimuli/mp3/melody_v5_v4_v3_v2_v1_.mp3"
"","590.8449999988079","html-button-response","153","953058","0.0-17.0-5.5","94708","","<p>Which tone was played fifth after the cadence?</p><p>Please respond as quickly and as accurately as possible!</p>","0","","5","new_stimuli/mp3/melody_v5_v4_v3_v2_v1_.mp3"
"","null","audio-keyboard-response","154","963691","0.0-17.0-0.6","94708","","new_stimuli/mp3/melody_^6_v4_v3_^4_^5_.mp3","","null","",""
"","1286.8950000011828","html-button-response","155","964980","0.0-17.0-1.6","94708","","<p>Which tone was played first after the cadence?</p><p>Please respond as quickly and as accurately as possible!</p>","9","","1","new_stimuli/mp3/melody_^6_v4_v3_^4_^5_.mp3"
"","638.8650000008056","html-button-response","156","965621","0.0-17.0-2.6","94708","","<p>Which tone was played second after the cadence?</p><p>Please respond as quickly and as accurately as possible!</p>","5","","2","new_stimuli/mp3/melody_^6_v4_v3_^4_^5_.mp3"
"","462.86999999941327","html-button-response","157","966086","0.0-17.0-3.6","94708","","<p>Which tone was played third after the cadence?</p><p>Please respond as quickly and as accurately as possible!</p>","4","","3","new_stimuli/mp3/melody_^6_v4_v3_^4_^5_.mp3"
"","510.9600000033388","html-button-response","158","966599","0.0-17.0-4.6","94708","","<p>Which tone was played fourth after the cadence?</p><p>Please respond as quickly and as accurately as possible!</p>","5","","4","new_stimuli/mp3/melody_^6_v4_v3_^4_^5_.mp3"
"","1300.0150000007125","html-button-response","159","967901","0.0-17.0-5.6","94708","","<p>Which tone was played fifth after the cadence?</p><p>Please respond as quickly and as accurately as possible!</p>","7","","5","new_stimuli/mp3/melody_^6_v4_v3_^4_^5_.mp3"
"","null","audio-keyboard-response","160","978848","0.0-17.0-0.7","94708","","new_stimuli/mp3/melody_v5-_v3_3_^4+_v3_.mp3","","null","",""
"","1490.4000000023516","html-button-response","161","980341","0.0-17.0-1.7","94708","","<p>Which tone was played first after the cadence?</p><p>Please respond as quickly and as accurately as possible!</p>","6","","1","new_stimuli/mp3/melody_v5-_v3_3_^4+_v3_.mp3"
"","623.6950000020443","html-button-response","162","980967","0.0-17.0-2.7","94708","","<p>Which tone was played second after the cadence?</p><p>Please respond as quickly and as accurately as possible!</p>","4","","2","new_stimuli/mp3/melody_v5-_v3_3_^4+_v3_.mp3"
"","229.32000000227708","html-button-response","163","981198","0.0-17.0-3.7","94708","","<p>Which tone was played third after the cadence?</p><p>Please respond as quickly and as accurately as possible!</p>","4","","3","new_stimuli/mp3/melody_v5-_v3_3_^4+_v3_.mp3"
"","558.8050000006333","html-button-response","164","981759","0.0-17.0-4.7","94708","","<p>Which tone was played fourth after the cadence?</p><p>Please respond as quickly and as accurately as possible!</p>","6","","4","new_stimuli/mp3/melody_v5-_v3_3_^4+_v3_.mp3"
"","695.1049999989336","html-button-response","165","982456","0.0-17.0-5.7","94708","","<p>Which tone was played fifth after the cadence?</p><p>Please respond as quickly and as accurately as possible!</p>","4","","5","new_stimuli/mp3/melody_v5-_v3_3_^4+_v3_.mp3"
"[{""page_index"":0,""viewing_time"":1897.4949999974342},{""page_index"":1,""viewing_time"":1390.1299999997718},{""page_index"":2,""viewing_time"":656.9350000027334}]","3944.9050000002608","instructions","166","986402","0.0-18.0","94708","","","","","",""
"","null","audio-keyboard-response","167","998104","0.0-19.0-0.0","94708","","new_stimuli/mp3/melody_v1_^2_v1_v7_^1_^3_v2_.mp3","","null","",""
"","901.9399999998277","html-button-response","168","999008","0.0-19.0-1.0","94708","","<p>Which tone was played first after the cadence?</p><p>Please respond as quickly and as accurately as possible!</p>","0","","1","new_stimuli/mp3/melody_v1_^2_v1_v7_^1_^3_v2_.mp3"
"","542.8449999998556","html-button-response","169","999553","0.0-19.0-2.0","94708","","<p>Which tone was played second after the cadence?</p><p>Please respond as quickly and as accurately as possible!</p>","2","","2","new_stimuli/mp3/melody_v1_^2_v1_v7_^1_^3_v2_.mp3"
"","550.9600000005448","html-button-response","170","1000106","0.0-19.0-3.0","94708","","<p>Which tone was played third after the cadence?</p><p>Please respond as quickly and as accurately as possible!</p>","0","","3","new_stimuli/mp3/melody_v1_^2_v1_v7_^1_^3_v2_.mp3"
"","1083.360000000568","html-button-response","171","1001191","0.0-19.0-4.0","94708","","<p>Which tone was played fourth after the cadence?</p><p>Please respond as quickly and as accurately as possible!</p>","11","","4","new_stimuli/mp3/melody_v1_^2_v1_v7_^1_^3_v2_.mp3"
"","935.3200000005309","html-button-response","172","1002128","0.0-19.0-5.0","94708","","<p>Which tone was played fifth after the cadence?</p><p>Please respond as quickly and as accurately as possible!</p>","0","","5","new_stimuli/mp3/melody_v1_^2_v1_v7_^1_^3_v2_.mp3"
"","967.5949999982258","html-button-response","173","1003098","0.0-19.0-6.0","94708","","<p>Which tone was played sixth after the cadence?</p><p>Please respond as quickly and as accurately as possible!</p>","4","","6","new_stimuli/mp3/melody_v1_^2_v1_v7_^1_^3_v2_.mp3"
"","775.2250000012573","html-button-response","174","1003875","0.0-19.0-7.0","94708","","<p>Which tone was played seventh after the cadence?</p><p>Please respond as quickly and as accurately as possible!</p>","2","","7","new_stimuli/mp3/melody_v1_^2_v1_v7_^1_^3_v2_.mp3"
"","null","audio-keyboard-response","175","1015450","0.0-19.0-0.1","94708","","new_stimuli/mp3/melody_^5_^6_v5_v4_v3_v2_v1_buffer.mp3","","null","",""
"","1177.3600000014994","html-button-response","176","1016630","0.0-19.0-1.1","94708","","<p>Which tone was played first after the cadence?</p><p>Please respond as quickly and as accurately as possible!</p>","7","","1","new_stimuli/mp3/melody_^5_^6_v5_v4_v3_v2_v1_buffer.mp3"
"","535.0500000022585","html-button-response","177","1017166","0.0-19.0-2.1","94708","","<p>Which tone was played second after the cadence?</p><p>Please respond as quickly and as accurately as possible!</p>","9","","2","new_stimuli/mp3/melody_^5_^6_v5_v4_v3_v2_v1_buffer.mp3"
"","858.9800000009127","html-button-response","178","1018027","0.0-19.0-3.1","94708","","<p>Which tone was played third after the cadence?</p><p>Please respond as quickly and as accurately as possible!</p>","7","","3","new_stimuli/mp3/melody_^5_^6_v5_v4_v3_v2_v1_buffer.mp3"
"","558.2300000023097","html-button-response","179","1018588","0.0-19.0-4.1","94708","","<p>Which tone was played fourth after the cadence?</p><p>Please respond as quickly and as accurately as possible!</p>","5","","4","new_stimuli/mp3/melody_^5_^6_v5_v4_v3_v2_v1_buffer.mp3"
"","1128.195000001113","html-button-response","180","1019717","0.0-19.0-5.1","94708","","<p>Which tone was played fifth after the cadence?</p><p>Please respond as quickly and as accurately as possible!</p>","2","","5","new_stimuli/mp3/melody_^5_^6_v5_v4_v3_v2_v1_buffer.mp3"
"","678.169999999227","html-button-response","181","1020398","0.0-19.0-6.1","94708","","<p>Which tone was played sixth after the cadence?</p><p>Please respond as quickly and as accurately as possible!</p>","0","","6","new_stimuli/mp3/melody_^5_^6_v5_v4_v3_v2_v1_buffer.mp3"
"","1588.0599999981932","html-button-response","182","1021988","0.0-19.0-7.1","94708","","<p>Which tone was played seventh after the cadence?</p><p>Please respond as quickly and as accurately as possible!</p>","0","","7","new_stimuli/mp3/melody_^5_^6_v5_v4_v3_v2_v1_buffer.mp3"
"","null","audio-keyboard-response","183","1033690","0.0-19.0-0.2","94708","","new_stimuli/mp3/melody_^4_^5_^6_v5_v4_v3_v2_.mp3","","null","",""
"","1188.7499999975553","html-button-response","184","1034881","0.0-19.0-1.2","94708","","<p>Which tone was played first after the cadence?</p><p>Please respond as quickly and as accurately as possible!</p>","5","","1","new_stimuli/mp3/melody_^4_^5_^6_v5_v4_v3_v2_.mp3"
"","790.7950000007404","html-button-response","185","1035674","0.0-19.0-2.2","94708","","<p>Which tone was played second after the cadence?</p><p>Please respond as quickly and as accurately as possible!</p>","7","","2","new_stimuli/mp3/melody_^4_^5_^6_v5_v4_v3_v2_.mp3"
"","1542.300000000978","html-button-response","186","1037218","0.0-19.0-3.2","94708","","<p>Which tone was played third after the cadence?</p><p>Please respond as quickly and as accurately as possible!</p>","9","","3","new_stimuli/mp3/melody_^4_^5_^6_v5_v4_v3_v2_.mp3"
"","671.4849999989383","html-button-response","187","1037891","0.0-19.0-4.2","94708","","<p>Which tone was played fourth after the cadence?</p><p>Please respond as quickly and as accurately as possible!</p>","7","","4","new_stimuli/mp3/melody_^4_^5_^6_v5_v4_v3_v2_.mp3"
"","695.2000000019325","html-button-response","188","1038588","0.0-19.0-5.2","94708","","<p>Which tone was played fifth after the cadence?</p><p>Please respond as quickly and as accurately as possible!</p>","5","","5","new_stimuli/mp3/melody_^4_^5_^6_v5_v4_v3_v2_.mp3"
"","1419.5050000016345","html-button-response","189","1040010","0.0-19.0-6.2","94708","","<p>Which tone was played sixth after the cadence?</p><p>Please respond as quickly and as accurately as possible!</p>","4","","6","new_stimuli/mp3/melody_^4_^5_^6_v5_v4_v3_v2_.mp3"
"","703.8350000001956","html-button-response","190","1040715","0.0-19.0-7.2","94708","","<p>Which tone was played seventh after the cadence?</p><p>Please respond as quickly and as accurately as possible!</p>","2","","7","new_stimuli/mp3/melody_^4_^5_^6_v5_v4_v3_v2_.mp3"
"","null","audio-keyboard-response","191","1052394","0.0-19.0-0.3","94708","","new_stimuli/mp3/melody_^4_v6-_v5-_^6-_^4_v2-_2-_.mp3","","null","",""
"","2073.465000001248","html-button-response","192","1054470","0.0-19.0-1.3","94708","","<p>Which tone was played first after the cadence?</p><p>Please respond as quickly and as accurately as possible!</p>","5","","1","new_stimuli/mp3/melody_^4_v6-_v5-_^6-_^4_v2-_2-_.mp3"
"","2213.0550000001676","html-button-response","193","1056685","0.0-19.0-2.3","94708","","<p>Which tone was played second after the cadence?</p><p>Please respond as quickly and as accurately as possible!</p>","8","","2","new_stimuli/mp3/melody_^4_v6-_v5-_^6-_^4_v2-_2-_.mp3"
"","629.8849999983795","html-button-response","194","1057317","0.0-19.0-3.3","94708","","<p>Which tone was played third after the cadence?</p><p>Please respond as quickly and as accurately as possible!</p>","7","","3","new_stimuli/mp3/melody_^4_v6-_v5-_^6-_^4_v2-_2-_.mp3"
"","526.6399999998976","html-button-response","195","1057846","0.0-19.0-4.3","94708","","<p>Which tone was played fourth after the cadence?</p><p>Please respond as quickly and as accurately as possible!</p>","8","","4","new_stimuli/mp3/melody_^4_v6-_v5-_^6-_^4_v2-_2-_.mp3"
"","806.840000001248","html-button-response","196","1058655","0.0-19.0-5.3","94708","","<p>Which tone was played fifth after the cadence?</p><p>Please respond as quickly and as accurately as possible!</p>","5","","5","new_stimuli/mp3/melody_^4_v6-_v5-_^6-_^4_v2-_2-_.mp3"
"","767.1750000007451","html-button-response","197","1059424","0.0-19.0-6.3","94708","","<p>Which tone was played sixth after the cadence?</p><p>Please respond as quickly and as accurately as possible!</p>","2","","6","new_stimuli/mp3/melody_^4_v6-_v5-_^6-_^4_v2-_2-_.mp3"
"","174.49000000138767","html-button-response","198","1059600","0.0-19.0-7.3","94708","","<p>Which tone was played seventh after the cadence?</p><p>Please respond as quickly and as accurately as possible!</p>","2","","7","new_stimuli/mp3/melody_^4_v6-_v5-_^6-_^4_v2-_2-_.mp3"
"","null","audio-keyboard-response","199","1071563","0.0-19.0-0.4","94708","","new_stimuli/mp3/melody_1_^3_v1_^5_v3_v2_^3_.mp3","","null","",""
"","934.8799999970943","html-button-response","200","1072500","0.0-19.0-1.4","94708","","<p>Which tone was played first after the cadence?</p><p>Please respond as quickly and as accurately as possible!</p>","0","","1","new_stimuli/mp3/melody_1_^3_v1_^5_v3_v2_^3_.mp3"
"","730.2700000000186","html-button-response","201","1073231","0.0-19.0-2.4","94708","","<p>Which tone was played second after the cadence?</p><p>Please respond as quickly and as accurately as possible!</p>","3","","2","new_stimuli/mp3/melody_1_^3_v1_^5_v3_v2_^3_.mp3"
"","1504.4300000008661","html-button-response","202","1074738","0.0-19.0-3.4","94708","","<p>Which tone was played third after the cadence?</p><p>Please respond as quickly and as accurately as possible!</p>","0","","3","new_stimuli/mp3/melody_1_^3_v1_^5_v3_v2_^3_.mp3"
"","1039.1699999999255","html-button-response","203","1075779","0.0-19.0-4.4","94708","","<p>Which tone was played fourth after the cadence?</p><p>Please respond as quickly and as accurately as possible!</p>","7","","4","new_stimuli/mp3/melody_1_^3_v1_^5_v3_v2_^3_.mp3"
"","933.7950000008568","html-button-response","204","1076715","0.0-19.0-5.4","94708","","<p>Which tone was played fifth after the cadence?</p><p>Please respond as quickly and as accurately as possible!</p>","4","","5","new_stimuli/mp3/melody_1_^3_v1_^5_v3_v2_^3_.mp3"
"","731.5949999974109","html-button-response","205","1077448","0.0-19.0-6.4","94708","","<p>Which tone was played sixth after the cadence?</p><p>Please respond as quickly and as accurately as possible!</p>","2","","6","new_stimuli/mp3/melody_1_^3_v1_^5_v3_v2_^3_.mp3"
"","670.9649999975227","html-button-response","206","1078121","0.0-19.0-7.4","94708","","<p>Which tone was played seventh after the cadence?</p><p>Please respond as quickly and as accurately as possible!</p>","4","","7","new_stimuli/mp3/melody_1_^3_v1_^5_v3_v2_^3_.mp3"
"","null","audio-keyboard-response","207","1089820","0.0-19.0-0.5","94708","","new_stimuli/mp3/melody_^1_v7_v6_v5_v4_v3_v2_buffer.mp3","","null","",""
"","1191.510000000475","html-button-response","208","1091013","0.0-19.0-1.5","94708","","<p>Which tone was played first after the cadence?</p><p>Please respond as quickly and as accurately as possible!</p>","12","","1","new_stimuli/mp3/melody_^1_v7_v6_v5_v4_v3_v2_buffer.mp3"
"","608.6749999993481","html-button-response","209","1091624","0.0-19.0-2.5","94708","","<p>Which tone was played second after the cadence?</p><p>Please respond as quickly and as accurately as possible!</p>","11","","2","new_stimuli/mp3/melody_^1_v7_v6_v5_v4_v3_v2_buffer.mp3"
"","678.6700000010896","html-button-response","210","1092305","0.0-19.0-3.5","94708","","<p>Which tone was played third after the cadence?</p><p>Please respond as quickly and as accurately as possible!</p>","9","","3","new_stimuli/mp3/melody_^1_v7_v6_v5_v4_v3_v2_buffer.mp3"
"","702.7749999978114","html-button-response","211","1093009","0.0-19.0-4.5","94708","","<p>Which tone was played fourth after the cadence?</p><p>Please respond as quickly and as accurately as possible!</p>","7","","4","new_stimuli/mp3/melody_^1_v7_v6_v5_v4_v3_v2_buffer.mp3"
"","678.0150000012945","html-button-response","212","1093690","0.0-19.0-5.5","94708","","<p>Which tone was played fifth after the cadence?</p><p>Please respond as quickly and as accurately as possible!</p>","5","","5","new_stimuli/mp3/melody_^1_v7_v6_v5_v4_v3_v2_buffer.mp3"
"","771.874999998603","html-button-response","213","1094463","0.0-19.0-6.5","94708","","<p>Which tone was played sixth after the cadence?</p><p>Please respond as quickly and as accurately as possible!</p>","4","","6","new_stimuli/mp3/melody_^1_v7_v6_v5_v4_v3_v2_buffer.mp3"
"","799.4550000005402","html-button-response","214","1095264","0.0-19.0-7.5","94708","","<p>Which tone was played seventh after the cadence?</p><p>Please respond as quickly and as accurately as possible!</p>","2","","7","new_stimuli/mp3/melody_^1_v7_v6_v5_v4_v3_v2_buffer.mp3"
"","null","audio-keyboard-response","215","1106916","0.0-19.0-0.6","94708","","new_stimuli/mp3/melody_^6_v5+_v4_^5+_v3_v1_v7-_.mp3","","null","",""
"","2816.725000000559","html-button-response","216","1109735","0.0-19.0-1.6","94708","","<p>Which tone was played first after the cadence?</p><p>Please respond as quickly and as accurately as possible!</p>","9","","1","new_stimuli/mp3/melody_^6_v5+_v4_^5+_v3_v1_v7-_.mp3"
"","678.9900000002235","html-button-response","217","1110416","0.0-19.0-2.6","94708","","<p>Which tone was played second after the cadence?</p><p>Please respond as quickly and as accurately as possible!</p>","8","","2","new_stimuli/mp3/melody_^6_v5+_v4_^5+_v3_v1_v7-_.mp3"
"","4408.70999999973","html-button-response","218","1114827","0.0-19.0-3.6","94708","","<p>Which tone was played third after the cadence?</p><p>Please respond as quickly and as accurately as possible!</p>","6","","3","new_stimuli/mp3/melody_^6_v5+_v4_^5+_v3_v1_v7-_.mp3"
"","966.5750000020489","html-button-response","219","1115796","0.0-19.0-4.6","94708","","<p>Which tone was played fourth after the cadence?</p><p>Please respond as quickly and as accurately as possible!</p>","8","","4","new_stimuli/mp3/melody_^6_v5+_v4_^5+_v3_v1_v7-_.mp3"
"","5304.810000001453","html-button-response","220","1121103","0.0-19.0-5.6","94708","","<p>Which tone was played fifth after the cadence?</p><p>Please respond as quickly and as accurately as possible!</p>","4","","5","new_stimuli/mp3/melody_^6_v5+_v4_^5+_v3_v1_v7-_.mp3"
"","1039.075000000419","html-button-response","221","1122144","0.0-19.0-6.6","94708","","<p>Which tone was played sixth after the cadence?</p><p>Please respond as quickly and as accurately as possible!</p>","0","","6","new_stimuli/mp3/melody_^6_v5+_v4_^5+_v3_v1_v7-_.mp3"
"","1483.255000002915","html-button-response","222","1123629","0.0-19.0-7.6","94708","","<p>Which tone was played seventh after the cadence?</p><p>Please respond as quickly and as accurately as possible!</p>","11","","7","new_stimuli/mp3/melody_^6_v5+_v4_^5+_v3_v1_v7-_.mp3"
"[{""page_index"":0,""viewing_time"":1410.4050000023562},{""page_index"":1,""viewing_time"":1590.1549999981653},{""page_index"":2,""viewing_time"":1601.7749999989755}]","4602.665000002133","instructions","223","1128233","0.0-20.0","94708","","","","","",""
"","null","audio-keyboard-response","224","1140876","0.0-21.0-0.0","94708","","new_stimuli/mp3/melody_v5_v4_v6+_^7_^3+_v3_v2_v5_^4_.mp3","","null","",""
"","2126.4100000006147","html-button-response","225","1143004","0.0-21.0-1.0","94708","","<p>Which tone was played first after the cadence?</p><p>Please respond as quickly and as accurately as possible!</p>","7","","1","new_stimuli/mp3/melody_v5_v4_v6+_^7_^3+_v3_v2_v5_^4_.mp3"
"","711.2300000009127","html-button-response","226","1143717","0.0-21.0-2.0","94708","","<p>Which tone was played second after the cadence?</p><p>Please respond as quickly and as accurately as possible!</p>","5","","2","new_stimuli/mp3/melody_v5_v4_v6+_^7_^3+_v3_v2_v5_^4_.mp3"
"","4565.985000001267","html-button-response","227","1148285","0.0-21.0-3.0","94708","","<p>Which tone was played third after the cadence?</p><p>Please respond as quickly and as accurately as possible!</p>","9","","3","new_stimuli/mp3/melody_v5_v4_v6+_^7_^3+_v3_v2_v5_^4_.mp3"
"","1535.6050000009127","html-button-response","228","1149823","0.0-21.0-4.0","94708","","<p>Which tone was played fourth after the cadence?</p><p>Please respond as quickly and as accurately as possible!</p>","11","","4","new_stimuli/mp3/melody_v5_v4_v6+_^7_^3+_v3_v2_v5_^4_.mp3"
"","4753.359999998938","html-button-response","229","1154578","0.0-21.0-5.0","94708","","<p>Which tone was played fifth after the cadence?</p><p>Please respond as quickly and as accurately as possible!</p>","4","","5","new_stimuli/mp3/melody_v5_v4_v6+_^7_^3+_v3_v2_v5_^4_.mp3"
"","574.179999999702","html-button-response","230","1155154","0.0-21.0-6.0","94708","","<p>Which tone was played sixth after the cadence?</p><p>Please respond as quickly and as accurately as possible!</p>","3","","6","new_stimuli/mp3/melody_v5_v4_v6+_^7_^3+_v3_v2_v5_^4_.mp3"
"","599.5050000019837","html-button-response","231","1155756","0.0-21.0-7.0","94708","","<p>Which tone was played seventh after the cadence?</p><p>Please respond as quickly and as accurately as possible!</p>","2","","7","new_stimuli/mp3/melody_v5_v4_v6+_^7_^3+_v3_v2_v5_^4_.mp3"
"","2566.0200000018813","html-button-response","232","1158324","0.0-21.0-8.0","94708","","<p>Which tone was played eight after the cadence?</p><p>Please respond as quickly and as accurately as possible!</p>","7","","8","new_stimuli/mp3/melody_v5_v4_v6+_^7_^3+_v3_v2_v5_^4_.mp3"
"","4582.77000000095","html-button-response","233","1162908","0.0-21.0-9.0","94708","","<p>Which tone was played nineth after the cadence?</p><p>Please respond as quickly and as accurately as possible!</p>","9","","9","new_stimuli/mp3/melody_v5_v4_v6+_^7_^3+_v3_v2_v5_^4_.mp3"
"","null","audio-keyboard-response","234","1175864","0.0-21.0-0.1","94708","","new_stimuli/mp3/melody_^5_^6_v5_v4_v3_v2_v1_^2_^3_buffer.mp3","","null","",""
"","1806.7150000024121","html-button-response","235","1177673","0.0-21.0-1.1","94708","","<p>Which tone was played first after the cadence?</p><p>Please respond as quickly and as accurately as possible!</p>","7","","1","new_stimuli/mp3/melody_^5_^6_v5_v4_v3_v2_v1_^2_^3_buffer.mp3"
"","575.0900000021793","html-button-response","236","1178250","0.0-21.0-2.1","94708","","<p>Which tone was played second after the cadence?</p><p>Please respond as quickly and as accurately as possible!</p>","9","","2","new_stimuli/mp3/melody_^5_^6_v5_v4_v3_v2_v1_^2_^3_buffer.mp3"
"","606.7750000001397","html-button-response","237","1178859","0.0-21.0-3.1","94708","","<p>Which tone was played third after the cadence?</p><p>Please respond as quickly and as accurately as possible!</p>","7","","3","new_stimuli/mp3/melody_^5_^6_v5_v4_v3_v2_v1_^2_^3_buffer.mp3"
"","570.5699999998324","html-button-response","238","1179431","0.0-21.0-4.1","94708","","<p>Which tone was played fourth after the cadence?</p><p>Please respond as quickly and as accurately as possible!</p>","5","","4","new_stimuli/mp3/melody_^5_^6_v5_v4_v3_v2_v1_^2_^3_buffer.mp3"
"","607.3500000021886","html-button-response","239","1180040","0.0-21.0-5.1","94708","","<p>Which tone was played fifth after the cadence?</p><p>Please respond as quickly and as accurately as possible!</p>","4","","5","new_stimuli/mp3/melody_^5_^6_v5_v4_v3_v2_v1_^2_^3_buffer.mp3"
"","591.5900000000838","html-button-response","240","1180634","0.0-21.0-6.1","94708","","<p>Which tone was played sixth after the cadence?</p><p>Please respond as quickly and as accurately as possible!</p>","2","","6","new_stimuli/mp3/melody_^5_^6_v5_v4_v3_v2_v1_^2_^3_buffer.mp3"
"","509.43499999982305","html-button-response","241","1181147","0.0-21.0-7.1","94708","","<p>Which tone was played seventh after the cadence?</p><p>Please respond as quickly and as accurately as possible!</p>","0","","7","new_stimuli/mp3/melody_^5_^6_v5_v4_v3_v2_v1_^2_^3_buffer.mp3"
"","582.804999998305","html-button-response","242","1181731","0.0-21.0-8.1","94708","","<p>Which tone was played eight after the cadence?</p><p>Please respond as quickly and as accurately as possible!</p>","2","","8","new_stimuli/mp3/melody_^5_^6_v5_v4_v3_v2_v1_^2_^3_buffer.mp3"
"","654.9000000013039","html-button-response","243","1182389","0.0-21.0-9.1","94708","","<p>Which tone was played nineth after the cadence?</p><p>Please respond as quickly and as accurately as possible!</p>","4","","9","new_stimuli/mp3/melody_^5_^6_v5_v4_v3_v2_v1_^2_^3_buffer.mp3"
"","null","audio-keyboard-response","244","1194957","0.0-21.0-0.2","94708","","new_stimuli/mp3/melody_^3_^4_^5 _^6_v5_v4_v3_v2_v1_.mp3","","null","",""
"","1158.6499999975786","html-button-response","245","1196118","0.0-21.0-1.2","94708","","<p>Which tone was played first after the cadence?</p><p>Please respond as quickly and as accurately as possible!</p>","4","","1","new_stimuli/mp3/melody_^3_^4_^5 _^6_v5_v4_v3_v2_v1_.mp3"
"","959.1350000009406","html-button-response","246","1197080","0.0-21.0-2.2","94708","","<p>Which tone was played second after the cadence?</p><p>Please respond as quickly and as accurately as possible!</p>","5","","2","new_stimuli/mp3/melody_^3_^4_^5 _^6_v5_v4_v3_v2_v1_.mp3"
"","759.1499999980442","html-button-response","247","1197841","0.0-21.0-3.2","94708","","<p>Which tone was played third after the cadence?</p><p>Please respond as quickly and as accurately as possible!</p>","7","","3","new_stimuli/mp3/melody_^3_^4_^5 _^6_v5_v4_v3_v2_v1_.mp3"
"","1287.6149999974295","html-button-response","248","1199131","0.0-21.0-4.2","94708","","<p>Which tone was played fourth after the cadence?</p><p>Please respond as quickly and as accurately as possible!</p>","9","","4","new_stimuli/mp3/melody_^3_^4_^5 _^6_v5_v4_v3_v2_v1_.mp3"
"","875.0099999997765","html-button-response","249","1200008","0.0-21.0-5.2","94708","","<p>Which tone was played fifth after the cadence?</p><p>Please respond as quickly and as accurately as possible!</p>","7","","5","new_stimuli/mp3/melody_^3_^4_^5 _^6_v5_v4_v3_v2_v1_.mp3"
"","703.215000001248","html-button-response","250","1200713","0.0-21.0-6.2","94708","","<p>Which tone was played sixth after the cadence?</p><p>Please respond as quickly and as accurately as possible!</p>","5","","6","new_stimuli/mp3/melody_^3_^4_^5 _^6_v5_v4_v3_v2_v1_.mp3"
"","575.2399999983609","html-button-response","251","1201290","0.0-21.0-7.2","94708","","<p>Which tone was played seventh after the cadence?</p><p>Please respond as quickly and as accurately as possible!</p>","4","","7","new_stimuli/mp3/melody_^3_^4_^5 _^6_v5_v4_v3_v2_v1_.mp3"
"","742.900000001071","html-button-response","252","1202034","0.0-21.0-8.2","94708","","<p>Which tone was played eight after the cadence?</p><p>Please respond as quickly and as accurately as possible!</p>","2","","8","new_stimuli/mp3/melody_^3_^4_^5 _^6_v5_v4_v3_v2_v1_.mp3"
"","607.5700000000652","html-button-response","253","1202644","0.0-21.0-9.2","94708","","<p>Which tone was played nineth after the cadence?</p><p>Please respond as quickly and as accurately as possible!</p>","0","","9","new_stimuli/mp3/melody_^3_^4_^5 _^6_v5_v4_v3_v2_v1_.mp3"
"","null","audio-keyboard-response","254","1215339","0.0-21.0-0.3","94708","","new_stimuli/mp3/melody_^2_^3_^4_^5_^6_v5_v4_v3_v2_buffer.mp3","","null","",""
"","1498.5300000007264","html-button-response","255","1216840","0.0-21.0-1.3","94708","","<p>Which tone was played first after the cadence?</p><p>Please respond as quickly and as accurately as possible!</p>","2","","1","new_stimuli/mp3/melody_^2_^3_^4_^5_^6_v5_v4_v3_v2_buffer.mp3"
"","623.1399999996647","html-button-response","256","1217464","0.0-21.0-2.3","94708","","<p>Which tone was played second after the cadence?</p><p>Please respond as quickly and as accurately as possible!</p>","4","","2","new_stimuli/mp3/melody_^2_^3_^4_^5_^6_v5_v4_v3_v2_buffer.mp3"
"","479.24999999650754","html-button-response","257","1217945","0.0-21.0-3.3","94708","","<p>Which tone was played third after the cadence?</p><p>Please respond as quickly and as accurately as possible!</p>","5","","3","new_stimuli/mp3/melody_^2_^3_^4_^5_^6_v5_v4_v3_v2_buffer.mp3"
"","566.6799999999348","html-button-response","258","1218514","0.0-21.0-4.3","94708","","<p>Which tone was played fourth after the cadence?</p><p>Please respond as quickly and as accurately as possible!</p>","7","","4","new_stimuli/mp3/melody_^2_^3_^4_^5_^6_v5_v4_v3_v2_buffer.mp3"
"","694.8199999970384","html-button-response","259","1219211","0.0-21.0-5.3","94708","","<p>Which tone was played fifth after the cadence?</p><p>Please respond as quickly and as accurately as possible!</p>","9","","5","new_stimuli/mp3/melody_^2_^3_^4_^5_^6_v5_v4_v3_v2_buffer.mp3"
"","565.6449999986216","html-button-response","260","1219780","0.0-21.0-6.3","94708","","<p>Which tone was played sixth after the cadence?</p><p>Please respond as quickly and as accurately as possible!</p>","7","","6","new_stimuli/mp3/melody_^2_^3_^4_^5_^6_v5_v4_v3_v2_buffer.mp3"
"","678.7600000025705","html-button-response","261","1220461","0.0-21.0-7.3","94708","","<p>Which tone was played seventh after the cadence?</p><p>Please respond as quickly and as accurately as possible!</p>","5","","7","new_stimuli/mp3/melody_^2_^3_^4_^5_^6_v5_v4_v3_v2_buffer.mp3"
"","723.1299999984913","html-button-response","262","1221186","0.0-21.0-8.3","94708","","<p>Which tone was played eight after the cadence?</p><p>Please respond as quickly and as accurately as possible!</p>","4","","8","new_stimuli/mp3/melody_^2_^3_^4_^5_^6_v5_v4_v3_v2_buffer.mp3"
"","558.9050000016578","html-button-response","263","1221746","0.0-21.0-9.3","94708","","<p>Which tone was played nineth after the cadence?</p><p>Please respond as quickly and as accurately as possible!</p>","2","","9","new_stimuli/mp3/melody_^2_^3_^4_^5_^6_v5_v4_v3_v2_buffer.mp3"
"","null","audio-keyboard-response","264","1234386","0.0-21.0-0.4","94708","","new_stimuli/mp3/melody_^3_^4_v2_v7_^1_^2_^3_3_^4_.mp3","","null","",""
"","3088.4950000001118","html-button-response","265","1237477","0.0-21.0-1.4","94708","","<p>Which tone was played first after the cadence?</p><p>Please respond as quickly and as accurately as possible!</p>","4","","1","new_stimuli/mp3/melody_^3_^4_v2_v7_^1_^2_^3_3_^4_.mp3"
"","566.9899999992922","html-button-response","266","1238045","0.0-21.0-2.4","94708","","<p>Which tone was played second after the cadence?</p><p>Please respond as quickly and as accurately as possible!</p>","5","","2","new_stimuli/mp3/melody_^3_^4_v2_v7_^1_^2_^3_3_^4_.mp3"
"","711.3700000008103","html-button-response","267","1238759","0.0-21.0-3.4","94708","","<p>Which tone was played third after the cadence?</p><p>Please respond as quickly and as accurately as possible!</p>","2","","3","new_stimuli/mp3/melody_^3_^4_v2_v7_^1_^2_^3_3_^4_.mp3"
"","878.035000001546","html-button-response","268","1239640","0.0-21.0-4.4","94708","","<p>Which tone was played fourth after the cadence?</p><p>Please respond as quickly and as accurately as possible!</p>","11","","4","new_stimuli/mp3/melody_^3_^4_v2_v7_^1_^2_^3_3_^4_.mp3"
"","638.6499999971129","html-button-response","269","1240281","0.0-21.0-5.4","94708","","<p>Which tone was played fifth after the cadence?</p><p>Please respond as quickly and as accurately as possible!</p>","12","","5","new_stimuli/mp3/melody_^3_^4_v2_v7_^1_^2_^3_3_^4_.mp3"
"","1180.6199999991804","html-button-response","270","1241463","0.0-21.0-6.4","94708","","<p>Which tone was played sixth after the cadence?</p><p>Please respond as quickly and as accurately as possible!</p>","2","","6","new_stimuli/mp3/melody_^3_^4_v2_v7_^1_^2_^3_3_^4_.mp3"
"","639.6649999988731","html-button-response","271","1242105","0.0-21.0-7.4","94708","","<p>Which tone was played seventh after the cadence?</p><p>Please respond as quickly and as accurately as possible!</p>","4","","7","new_stimuli/mp3/melody_^3_^4_v2_v7_^1_^2_^3_3_^4_.mp3"
"","182.54000000166707","html-button-response","272","1242288","0.0-21.0-8.4","94708","","<p>Which tone was played eight after the cadence?</p><p>Please respond as quickly and as accurately as possible!</p>","4","","8","new_stimuli/mp3/melody_^3_^4_v2_v7_^1_^2_^3_3_^4_.mp3"
"","1479.0500000016764","html-button-response","273","1243769","0.0-21.0-9.4","94708","","<p>Which tone was played nineth after the cadence?</p><p>Please respond as quickly and as accurately as possible!</p>","5","","9","new_stimuli/mp3/melody_^3_^4_v2_v7_^1_^2_^3_3_^4_.mp3"
"","null","audio-keyboard-response","274","1256410","0.0-21.0-0.5","94708","","new_stimuli/mp3/melody_v7_v6_v5_^6_v5_v4_^5_^6_v5_.mp3","","null","",""
"","2305.6399999987334","html-button-response","275","1258718","0.0-21.0-1.5","94708","","<p>Which tone was played first after the cadence?</p><p>Please respond as quickly and as accurately as possible!</p>","11","","1","new_stimuli/mp3/melody_v7_v6_v5_^6_v5_v4_^5_^6_v5_.mp3"
"","622.0650000032037","html-button-response","276","1259342","0.0-21.0-2.5","94708","","<p>Which tone was played second after the cadence?</p><p>Please respond as quickly and as accurately as possible!</p>","9","","2","new_stimuli/mp3/melody_v7_v6_v5_^6_v5_v4_^5_^6_v5_.mp3"
"","654.5999999979977","html-button-response","277","1259999","0.0-21.0-3.5","94708","","<p>Which tone was played third after the cadence?</p><p>Please respond as quickly and as accurately as possible!</p>","7","","3","new_stimuli/mp3/melody_v7_v6_v5_^6_v5_v4_^5_^6_v5_.mp3"
"","687.7899999998044","html-button-response","278","1260688","0.0-21.0-4.5","94708","","<p>Which tone was played fourth after the cadence?</p><p>Please respond as quickly and as accurately as possible!</p>","5","","4","new_stimuli/mp3/melody_v7_v6_v5_^6_v5_v4_^5_^6_v5_.mp3"
"","677.5699999998324","html-button-response","279","1261367","0.0-21.0-5.5","94708","","<p>Which tone was played fifth after the cadence?</p><p>Please respond as quickly and as accurately as possible!</p>","7","","5","new_stimuli/mp3/melody_v7_v6_v5_^6_v5_v4_^5_^6_v5_.mp3"
"","732.3700000017416","html-button-response","280","1262101","0.0-21.0-6.5","94708","","<p>Which tone was played sixth after the cadence?</p><p>Please respond as quickly and as accurately as possible!</p>","5","","6","new_stimuli/mp3/melody_v7_v6_v5_^6_v5_v4_^5_^6_v5_.mp3"
"","767.5750000015832","html-button-response","281","1262871","0.0-21.0-7.5","94708","","<p>Which tone was played seventh after the cadence?</p><p>Please respond as quickly and as accurately as possible!</p>","7","","7","new_stimuli/mp3/melody_v7_v6_v5_^6_v5_v4_^5_^6_v5_.mp3"
"","640.2000000015832","html-button-response","282","1263513","0.0-21.0-8.5","94708","","<p>Which tone was played eight after the cadence?</p><p>Please respond as quickly and as accurately as possible!</p>","9","","8","new_stimuli/mp3/melody_v7_v6_v5_^6_v5_v4_^5_^6_v5_.mp3"
"","662.1650000016671","html-button-response","283","1264176","0.0-21.0-9.5","94708","","<p>Which tone was played nineth after the cadence?</p><p>Please respond as quickly and as accurately as possible!</p>","7","","9","new_stimuli/mp3/melody_v7_v6_v5_^6_v5_v4_^5_^6_v5_.mp3"
"","null","audio-keyboard-response","284","1277112","0.0-21.0-0.6","94708","","new_stimuli/mp3/melody_^2_^4_v3_v2_v1_v3_v2+_^3_^5+_.mp3","","null","",""
"","4867.94499999797","html-button-response","285","1281982","0.0-21.0-1.6","94708","","<p>Which tone was played first after the cadence?</p><p>Please respond as quickly and as accurately as possible!</p>","2","","1","new_stimuli/mp3/melody_^2_^4_v3_v2_v1_v3_v2+_^3_^5+_.mp3"
"","691.0800000005402","html-button-response","286","1282675","0.0-21.0-2.6","94708","","<p>Which tone was played second after the cadence?</p><p>Please respond as quickly and as accurately as possible!</p>","5","","2","new_stimuli/mp3/melody_^2_^4_v3_v2_v1_v3_v2+_^3_^5+_.mp3"
"","622.4450000009965","html-button-response","287","1283299","0.0-21.0-3.6","94708","","<p>Which tone was played third after the cadence?</p><p>Please respond as quickly and as accurately as possible!</p>","4","","3","new_stimuli/mp3/melody_^2_^4_v3_v2_v1_v3_v2+_^3_^5+_.mp3"
"","671.5650000006426","html-button-response","288","1283972","0.0-21.0-4.6","94708","","<p>Which tone was played fourth after the cadence?</p><p>Please respond as quickly and as accurately as possible!</p>","2","","4","new_stimuli/mp3/melody_^2_^4_v3_v2_v1_v3_v2+_^3_^5+_.mp3"
"","741.9699999990407","html-button-response","289","1284716","0.0-21.0-5.6","94708","","<p>Which tone was played fifth after the cadence?</p><p>Please respond as quickly and as accurately as possible!</p>","0","","5","new_stimuli/mp3/melody_^2_^4_v3_v2_v1_v3_v2+_^3_^5+_.mp3"
"","1512.1949999993667","html-button-response","290","1286232","0.0-21.0-6.6","94708","","<p>Which tone was played sixth after the cadence?</p><p>Please respond as quickly and as accurately as possible!</p>","4","","6","new_stimuli/mp3/melody_^2_^4_v3_v2_v1_v3_v2+_^3_^5+_.mp3"
"","739.0300000007264","html-button-response","291","1286972","0.0-21.0-7.6","94708","","<p>Which tone was played seventh after the cadence?</p><p>Please respond as quickly and as accurately as possible!</p>","2","","7","new_stimuli/mp3/melody_^2_^4_v3_v2_v1_v3_v2+_^3_^5+_.mp3"
"","791.1700000003912","html-button-response","292","1287765","0.0-21.0-8.6","94708","","<p>Which tone was played eight after the cadence?</p><p>Please respond as quickly and as accurately as possible!</p>","3","","8","new_stimuli/mp3/melody_^2_^4_v3_v2_v1_v3_v2+_^3_^5+_.mp3"
"","1138.2999999986496","html-button-response","293","1288905","0.0-21.0-9.6","94708","","<p>Which tone was played nineth after the cadence?</p><p>Please respond as quickly and as accurately as possible!</p>","7","","9","new_stimuli/mp3/melody_^2_^4_v3_v2_v1_v3_v2+_^3_^5+_.mp3"
"","26906.30999999866","survey-text","294","1315814","0.0-22.0","94708","{""Q0"":""Try to imagine a keyboard and \""play\"" it on hand""}","","","","",""
"","60892.29999999958","survey-text","295","1376711","0.0-23.0","94708","{""Q0"":""I realize I miss press the button sometimes...""}","","","","",""
"","5617.625000002561","survey-text","296","1382330","0.0-24.0","94708","{""Q0"":""nope""}","","","","",""
"","4351.565000000875","survey-text","297","1386683","0.0-25.0","94708","{""Q0"":""heaphones""}","","","","",""
"","3086.7900000012014","survey-text","298","1389772","0.0-26.0","94708","{""Q0"":""female""}","","","","",""
"","3448.035000001313","survey-text","299","1393221","0.0-27.0","94708","{""Q0"":""yes""}","","","","",""
"[{""page_index"":0,""viewing_time"":1104.3949999986216}]","1104.769999998156","instructions","300","1394327","0.0-28.0","94708","","","","","",""
