"view_history","rt","trial_type","trial_index","time_elapsed","internal_node_id","subject","responses","stimulus","button_pressed","key_press","response_sequence","melody"
"[{""page_index"":0,""viewing_time"":3291.0400000000664},{""page_index"":1,""viewing_time"":23329.21499999975},{""page_index"":2,""viewing_time"":2938.1600000006074}]","29559.44499999987","instructions","0","29616","0.0-0.0","95804","","","","","",""
"","3502.095000000736","survey-text","1","33121","0.0-1.0","95804","{""Q0"":""33""}","","","","",""
"","15272.590000000491","survey-text","2","48396","0.0-2.0","95804","{""Q0"":""BA in Music Education""}","","","","",""
"","21792.709999999723","survey-text","3","70191","0.0-3.0","95804","{""Q0"":""Moveable Do with La-Based Minor""}","","","","",""
"","8902.699999999648","survey-text","4","79095","0.0-4.0","95804","{""Q0"":""Not sure...""}","","","","",""
"","11533.365000000224","survey-text","5","90630","0.0-5.0","95804","{""Q0"":""0""}","","","","",""
"","7288.735000000073","survey-text","6","97921","0.0-6.0","95804","{""Q0"":""0""}","","","","",""
"[{""page_index"":0,""viewing_time"":1952.4200000005367},{""page_index"":1,""viewing_time"":22601.319999999745},{""page_index"":2,""viewing_time"":1905.8050000003423}]","26460.00000000006","instructions","7","124382","0.0-7.0","95804","","","","","",""
"","8126.015000001644","audio-button-response","8","132513","0.0-8.0","95804","","stimuli/long/c-do.mp3","0","","",""
"","9989.419999999896","audio-button-response","9","142504","0.0-9.0","95804","","stimuli/long/a-le.mp3","8","","",""
"[{""page_index"":0,""viewing_time"":2266.3300000003655},{""page_index"":1,""viewing_time"":41654.545000001235}]","43921.29999999996","instructions","10","186427","0.0-10.0","95804","","","","","",""
"","17452.325000000215","audio-button-response","11","203883","0.0-11.0-0.0","95804","","stimuli/long/c-me.mp3","7","","",""
"","10649.644999999495","audio-button-response","12","214535","0.0-11.0-0.1","95804","","stimuli/long/a-ra.mp3","8","","",""
"","8108.000000000175","audio-button-response","13","222644","0.0-11.0-0.2","95804","","stimuli/long/e-do.mp3","0","","",""
"","15022.83499999973","audio-button-response","14","237669","0.0-11.0-0.3","95804","","stimuli/long/e-ra.mp3","8","","",""
"","8870.07500000074","audio-button-response","15","246541","0.0-11.0-0.4","95804","","stimuli/long/e-me.mp3","3","","",""
"","8799.8299999999","audio-button-response","16","255343","0.0-11.0-0.5","95804","","stimuli/long/a-ti.mp3","11","","",""
"","8727.654999998806","audio-button-response","17","264072","0.0-11.0-0.6","95804","","stimuli/long/a-te.mp3","10","","",""
"","15203.390000000538","audio-button-response","18","279278","0.0-11.0-0.7","95804","","stimuli/long/c-le.mp3","8","","",""
"","12877.555000000983","audio-button-response","19","292158","0.0-11.0-0.8","95804","","stimuli/long/e-mi.mp3","10","","",""
"","8063.874999999825","audio-button-response","20","300223","0.0-11.0-0.9","95804","","stimuli/long/c-do8.mp3","12","","",""
"","8186.3400000002","audio-button-response","21","308412","0.0-11.0-0.10","95804","","stimuli/long/a-sol.mp3","7","","",""
"","10772.525000000314","audio-button-response","22","319187","0.0-11.0-0.11","95804","","stimuli/long/e-le.mp3","3","","",""
"","8420.619999998948","audio-button-response","23","327610","0.0-11.0-0.12","95804","","stimuli/long/c-la.mp3","8","","",""
"","7652.384999999427","audio-button-response","24","335264","0.0-11.0-0.13","95804","","stimuli/long/c-do.mp3","0","","",""
"","9310.105000000505","audio-button-response","25","344576","0.0-11.0-0.14","95804","","stimuli/long/c-ra.mp3","1","","",""
"","8614.64499999967","audio-button-response","26","353192","0.0-11.0-0.15","95804","","stimuli/long/e-fi.mp3","6","","",""
"","7932.914999999397","audio-button-response","27","361127","0.0-11.0-0.16","95804","","stimuli/long/e-do8.mp3","12","","",""
"","12865.455000001006","audio-button-response","28","373994","0.0-11.0-0.17","95804","","stimuli/long/a-la.mp3","8","","",""
"","9341.56499999878","audio-button-response","29","383338","0.0-11.0-0.18","95804","","stimuli/long/c-fi.mp3","6","","",""
"","10690.899999999616","audio-button-response","30","394031","0.0-11.0-0.19","95804","","stimuli/long/e-te.mp3","10","","",""
"","8399.805000000866","audio-button-response","31","402433","0.0-11.0-0.20","95804","","stimuli/long/e-la.mp3","8","","",""
"","9093.965000000026","audio-button-response","32","411529","0.0-11.0-0.21","95804","","stimuli/long/c-mi.mp3","4","","",""
"","19413.899999999558","audio-button-response","33","430945","0.0-11.0-0.22","95804","","stimuli/long/a-fa.mp3","5","","",""
"","9645.645000000484","audio-button-response","34","440593","0.0-11.0-0.23","95804","","stimuli/long/c-fa.mp3","5","","",""
"","7969.530000000261","audio-button-response","35","448564","0.0-11.0-0.24","95804","","stimuli/long/a-le.mp3","8","","",""
"","15921.420000000566","audio-button-response","36","464488","0.0-11.0-0.25","95804","","stimuli/long/a-me.mp3","6","","",""
"","11351.380000000063","audio-button-response","37","475841","0.0-11.0-0.26","95804","","stimuli/long/a-mi.mp3","3","","",""
"","1485.0249999999069","audio-button-response","38","477328","0.0-11.0-0.27","95804","","stimuli/long/e-sol.mp3","4","","",""
"","8421.79000000027","audio-button-response","39","485751","0.0-11.0-0.28","95804","","stimuli/long/e-re.mp3","2","","",""
"","14071.234999999404","audio-button-response","40","499826","0.0-11.0-0.29","95804","","stimuli/long/a-fi.mp3","10","","",""
"","7304.954999999609","audio-button-response","41","507133","0.0-11.0-0.30","95804","","stimuli/long/c-sol.mp3","7","","",""
"","7700.905000001541","audio-button-response","42","514836","0.0-11.0-0.31","95804","","stimuli/long/a-re.mp3","2","","",""
"","7292.930000001506","audio-button-response","43","522130","0.0-11.0-0.32","95804","","stimuli/long/a-do.mp3","0","","",""
"","7445.445000001113","audio-button-response","44","529578","0.0-11.0-0.33","95804","","stimuli/long/c-re.mp3","2","","",""
"","13490.345000000088","audio-button-response","45","543070","0.0-11.0-0.34","95804","","stimuli/long/e-fa.mp3","5","","",""
"","7937.529999999213","audio-button-response","46","551009","0.0-11.0-0.35","95804","","stimuli/long/e-ti.mp3","11","","",""
"","7525.7700000002515","audio-button-response","47","558537","0.0-11.0-0.36","95804","","stimuli/long/a-do8.mp3","12","","",""
"","7679.329999999027","audio-button-response","48","566218","0.0-11.0-0.37","95804","","stimuli/long/c-ti.mp3","11","","",""
"[{""page_index"":0,""viewing_time"":15507.184999998659},{""page_index"":1,""viewing_time"":1934.565000001341}]","17442.014999998733","instructions","49","583661","0.0-12.0","95804","","","","","",""
"","null","audio-keyboard-response","50","592856","0.0-13.0-0.0","95804","","new_stimuli/mp3/melody_v3_v2_buffer.mp3","","null","",""
"","4231.929999999818","html-button-response","51","597090","0.0-13.0-1.0","95804","","<p>Which tone was played first after the cadence?</p><p>Please respond as quickly and as accurately as possible!</p>","4","","1","new_stimuli/mp3/melody_v3_v2_buffer.mp3"
"","1752.1500000002561","html-button-response","52","598844","0.0-13.0-2.0","95804","","<p>Which tone was played second after the cadence?</p><p>Please respond as quickly and as accurately as possible!</p>","2","","2","new_stimuli/mp3/melody_v3_v2_buffer.mp3"
"","null","audio-keyboard-response","53","608013","0.0-13.0-0.1","95804","","new_stimuli/mp3/melody_v5_v1+_.mp3","","null","",""
"","1676.010000001057","html-button-response","54","609691","0.0-13.0-1.1","95804","","<p>Which tone was played first after the cadence?</p><p>Please respond as quickly and as accurately as possible!</p>","7","","1","new_stimuli/mp3/melody_v5_v1+_.mp3"
"","1771.6550000004936","html-button-response","55","611464","0.0-13.0-2.1","95804","","<p>Which tone was played second after the cadence?</p><p>Please respond as quickly and as accurately as possible!</p>","1","","2","new_stimuli/mp3/melody_v5_v1+_.mp3"
"","null","audio-keyboard-response","56","620633","0.0-13.0-0.2","95804","","new_stimuli/mp3/melody_^5_^1+_.mp3","","null","",""
"","1189.2149999985704","html-button-response","57","621824","0.0-13.0-1.2","95804","","<p>Which tone was played first after the cadence?</p><p>Please respond as quickly and as accurately as possible!</p>","7","","1","new_stimuli/mp3/melody_^5_^1+_.mp3"
"","3035.309999999241","html-button-response","58","624860","0.0-13.0-2.2","95804","","<p>Which tone was played second after the cadence?</p><p>Please respond as quickly and as accurately as possible!</p>","1","","2","new_stimuli/mp3/melody_^5_^1+_.mp3"
"","null","audio-keyboard-response","59","634316","0.0-13.0-0.3","95804","","new_stimuli/mp3/melody_v7_v3_buffer.mp3","","null","",""
"","922.0200000000186","html-button-response","60","635239","0.0-13.0-1.3","95804","","<p>Which tone was played first after the cadence?</p><p>Please respond as quickly and as accurately as possible!</p>","11","","1","new_stimuli/mp3/melody_v7_v3_buffer.mp3"
"","5903.199999998906","html-button-response","61","641144","0.0-13.0-2.3","95804","","<p>Which tone was played second after the cadence?</p><p>Please respond as quickly and as accurately as possible!</p>","1","","2","new_stimuli/mp3/melody_v7_v3_buffer.mp3"
"","null","audio-keyboard-response","62","650315","0.0-13.0-0.4","95804","","new_stimuli/mp3/melody_^2_v7-_.mp3","","null","",""
"","4453.924999999697","html-button-response","63","654770","0.0-13.0-1.4","95804","","<p>Which tone was played first after the cadence?</p><p>Please respond as quickly and as accurately as possible!</p>","2","","1","new_stimuli/mp3/melody_^2_v7-_.mp3"
"","1036.0149999996647","html-button-response","64","655808","0.0-13.0-2.4","95804","","<p>Which tone was played second after the cadence?</p><p>Please respond as quickly and as accurately as possible!</p>","10","","2","new_stimuli/mp3/melody_^2_v7-_.mp3"
"","null","audio-keyboard-response","65","665107","0.0-13.0-0.5","95804","","new_stimuli/mp3/melody_3_^6_buffer.mp3","","null","",""
"","2063.3450000004377","html-button-response","66","667171","0.0-13.0-1.5","95804","","<p>Which tone was played first after the cadence?</p><p>Please respond as quickly and as accurately as possible!</p>","4","","1","new_stimuli/mp3/melody_3_^6_buffer.mp3"
"","964.1100000008009","html-button-response","67","668137","0.0-13.0-2.5","95804","","<p>Which tone was played second after the cadence?</p><p>Please respond as quickly and as accurately as possible!</p>","9","","2","new_stimuli/mp3/melody_3_^6_buffer.mp3"
"","null","audio-keyboard-response","68","677594","0.0-13.0-0.6","95804","","new_stimuli/mp3/melody_^3_v4+_buffer.mp3","","null","",""
"","1196.5449999989942","html-button-response","69","678791","0.0-13.0-1.6","95804","","<p>Which tone was played first after the cadence?</p><p>Please respond as quickly and as accurately as possible!</p>","3","","1","new_stimuli/mp3/melody_^3_v4+_buffer.mp3"
"","1776.859999999986","html-button-response","70","680569","0.0-13.0-2.6","95804","","<p>Which tone was played second after the cadence?</p><p>Please respond as quickly and as accurately as possible!</p>","6","","2","new_stimuli/mp3/melody_^3_v4+_buffer.mp3"
"","null","audio-keyboard-response","71","689633","0.0-13.0-0.7","95804","","new_stimuli/mp3/melody_v2_v1_.mp3","","null","",""
"","840.5550000007497","html-button-response","72","690475","0.0-13.0-1.7","95804","","<p>Which tone was played first after the cadence?</p><p>Please respond as quickly and as accurately as possible!</p>","2","","1","new_stimuli/mp3/melody_v2_v1_.mp3"
"","786.6699999995762","html-button-response","73","691264","0.0-13.0-2.7","95804","","<p>Which tone was played second after the cadence?</p><p>Please respond as quickly and as accurately as possible!</p>","0","","2","new_stimuli/mp3/melody_v2_v1_.mp3"
"","null","audio-keyboard-response","74","700698","0.0-13.0-0.8","95804","","new_stimuli/mp3/melody_v4_v3_buffer.mp3","","null","",""
"","1379.769999999553","html-button-response","75","702079","0.0-13.0-1.8","95804","","<p>Which tone was played first after the cadence?</p><p>Please respond as quickly and as accurately as possible!</p>","5","","1","new_stimuli/mp3/melody_v4_v3_buffer.mp3"
"","504.0999999982305","html-button-response","76","702585","0.0-13.0-2.8","95804","","<p>Which tone was played second after the cadence?</p><p>Please respond as quickly and as accurately as possible!</p>","4","","2","new_stimuli/mp3/melody_v4_v3_buffer.mp3"
"","null","audio-keyboard-response","77","711600","0.0-13.0-0.9","95804","","new_stimuli/mp3/melody_^1_^2+_.mp3","","null","",""
"","1049.2450000001118","html-button-response","78","712651","0.0-13.0-1.9","95804","","<p>Which tone was played first after the cadence?</p><p>Please respond as quickly and as accurately as possible!</p>","0","","1","new_stimuli/mp3/melody_^1_^2+_.mp3"
"","934.9299999993527","html-button-response","79","713588","0.0-13.0-2.9","95804","","<p>Which tone was played second after the cadence?</p><p>Please respond as quickly and as accurately as possible!</p>","3","","2","new_stimuli/mp3/melody_^1_^2+_.mp3"
"[{""page_index"":0,""viewing_time"":3047.3299999994924},{""page_index"":1,""viewing_time"":1299.0549999994691},{""page_index"":2,""viewing_time"":1737.525000000489}]","6084.154999998631","instructions","80","719673","0.0-14.0","95804","","","","","",""
"","null","audio-keyboard-response","81","729625","0.0-15.0-0.0","95804","","new_stimuli/mp3/melody_v5_v4_v3_buffer.mp3","","null","",""
"","1130.8950000002515","html-button-response","82","730758","0.0-15.0-1.0","95804","","<p>Which tone was played first after the cadence?</p><p>Please respond as quickly and as accurately as possible!</p>","7","","1","new_stimuli/mp3/melody_v5_v4_v3_buffer.mp3"
"","907.0000000010477","html-button-response","83","731666","0.0-15.0-2.0","95804","","<p>Which tone was played second after the cadence?</p><p>Please respond as quickly and as accurately as possible!</p>","5","","2","new_stimuli/mp3/melody_v5_v4_v3_buffer.mp3"
"","586.3449999997392","html-button-response","84","732254","0.0-15.0-3.0","95804","","<p>Which tone was played third after the cadence?</p><p>Please respond as quickly and as accurately as possible!</p>","4","","3","new_stimuli/mp3/melody_v5_v4_v3_buffer.mp3"
"","null","audio-keyboard-response","85","741839","0.0-15.0-0.1","95804","","new_stimuli/mp3/melody_v1_v7-_7-_buffer.mp3","","null","",""
"","836.1050000003306","html-button-response","86","742676","0.0-15.0-1.1","95804","","<p>Which tone was played first after the cadence?</p><p>Please respond as quickly and as accurately as possible!</p>","12","","1","new_stimuli/mp3/melody_v1_v7-_7-_buffer.mp3"
"","618.0450000010896","html-button-response","87","743296","0.0-15.0-2.1","95804","","<p>Which tone was played second after the cadence?</p><p>Please respond as quickly and as accurately as possible!</p>","10","","2","new_stimuli/mp3/melody_v1_v7-_7-_buffer.mp3"
"","409.3749999991851","html-button-response","88","743707","0.0-15.0-3.1","95804","","<p>Which tone was played third after the cadence?</p><p>Please respond as quickly and as accurately as possible!</p>","10","","3","new_stimuli/mp3/melody_v1_v7-_7-_buffer.mp3"
"","null","audio-keyboard-response","89","753345","0.0-15.0-0.2","95804","","new_stimuli/mp3/melody_6_^1_v5_.mp3","","null","",""
"","995.1650000002701","html-button-response","90","754341","0.0-15.0-1.2","95804","","<p>Which tone was played first after the cadence?</p><p>Please respond as quickly and as accurately as possible!</p>","9","","1","new_stimuli/mp3/melody_6_^1_v5_.mp3"
"","859.6650000016671","html-button-response","91","755203","0.0-15.0-2.2","95804","","<p>Which tone was played second after the cadence?</p><p>Please respond as quickly and as accurately as possible!</p>","12","","2","new_stimuli/mp3/melody_6_^1_v5_.mp3"
"","802.9100000003818","html-button-response","92","756007","0.0-15.0-3.2","95804","","<p>Which tone was played third after the cadence?</p><p>Please respond as quickly and as accurately as possible!</p>","7","","3","new_stimuli/mp3/melody_6_^1_v5_.mp3"
"","null","audio-keyboard-response","93","765565","0.0-15.0-0.3","95804","","new_stimuli/mp3/melody_v3_v2_v1_.mp3","","null","",""
"","1008.2550000005867","html-button-response","94","766574","0.0-15.0-1.3","95804","","<p>Which tone was played first after the cadence?</p><p>Please respond as quickly and as accurately as possible!</p>","4","","1","new_stimuli/mp3/melody_v3_v2_v1_.mp3"
"","610.0999999998603","html-button-response","95","767186","0.0-15.0-2.3","95804","","<p>Which tone was played second after the cadence?</p><p>Please respond as quickly and as accurately as possible!</p>","2","","2","new_stimuli/mp3/melody_v3_v2_v1_.mp3"
"","698.6749999995809","html-button-response","96","767886","0.0-15.0-3.3","95804","","<p>Which tone was played third after the cadence?</p><p>Please respond as quickly and as accurately as possible!</p>","0","","3","new_stimuli/mp3/melody_v3_v2_v1_.mp3"
"","null","audio-keyboard-response","97","777784","0.0-15.0-0.4","95804","","new_stimuli/mp3/melody_^1_v6_v5+_.mp3","","null","",""
"","867.7000000006519","html-button-response","98","778654","0.0-15.0-1.4","95804","","<p>Which tone was played first after the cadence?</p><p>Please respond as quickly and as accurately as possible!</p>","12","","1","new_stimuli/mp3/melody_^1_v6_v5+_.mp3"
"","4788.04500000109","html-button-response","99","783444","0.0-15.0-2.4","95804","","<p>Which tone was played second after the cadence?</p><p>Please respond as quickly and as accurately as possible!</p>","9","","2","new_stimuli/mp3/melody_^1_v6_v5+_.mp3"
"","456.7349999997532","html-button-response","100","783903","0.0-15.0-3.4","95804","","<p>Which tone was played third after the cadence?</p><p>Please respond as quickly and as accurately as possible!</p>","8","","3","new_stimuli/mp3/melody_^1_v6_v5+_.mp3"
"","null","audio-keyboard-response","101","793598","0.0-15.0-0.5","95804","","new_stimuli/mp3/melody_v4_v3_v2_buffer.mp3","","null","",""
"","936.2650000002468","html-button-response","102","794535","0.0-15.0-1.5","95804","","<p>Which tone was played first after the cadence?</p><p>Please respond as quickly and as accurately as possible!</p>","5","","1","new_stimuli/mp3/melody_v4_v3_v2_buffer.mp3"
"","457.27500000060536","html-button-response","103","794994","0.0-15.0-2.5","95804","","<p>Which tone was played second after the cadence?</p><p>Please respond as quickly and as accurately as possible!</p>","4","","2","new_stimuli/mp3/melody_v4_v3_v2_buffer.mp3"
"","609.8799999998882","html-button-response","104","795605","0.0-15.0-3.5","95804","","<p>Which tone was played third after the cadence?</p><p>Please respond as quickly and as accurately as possible!</p>","2","","3","new_stimuli/mp3/melody_v4_v3_v2_buffer.mp3"
"","null","audio-keyboard-response","105","805580","0.0-15.0-0.6","95804","","new_stimuli/mp3/melody_v2_v5_^3_buffer.mp3","","null","",""
"","1349.720000000205","html-button-response","106","806931","0.0-15.0-1.6","95804","","<p>Which tone was played first after the cadence?</p><p>Please respond as quickly and as accurately as possible!</p>","2","","1","new_stimuli/mp3/melody_v2_v5_^3_buffer.mp3"
"","1342.5349999997998","html-button-response","107","808275","0.0-15.0-2.6","95804","","<p>Which tone was played second after the cadence?</p><p>Please respond as quickly and as accurately as possible!</p>","7","","2","new_stimuli/mp3/melody_v2_v5_^3_buffer.mp3"
"","1378.0299999999115","html-button-response","108","809654","0.0-15.0-3.6","95804","","<p>Which tone was played third after the cadence?</p><p>Please respond as quickly and as accurately as possible!</p>","4","","3","new_stimuli/mp3/melody_v2_v5_^3_buffer.mp3"
"","null","audio-keyboard-response","109","819210","0.0-15.0-0.7","95804","","new_stimuli/mp3/melody_v1_v7-_^7_.mp3","","null","",""
"","870.4200000010896","html-button-response","110","820082","0.0-15.0-1.7","95804","","<p>Which tone was played first after the cadence?</p><p>Please respond as quickly and as accurately as possible!</p>","12","","1","new_stimuli/mp3/melody_v1_v7-_^7_.mp3"
"","818.2899999992223","html-button-response","111","820901","0.0-15.0-2.7","95804","","<p>Which tone was played second after the cadence?</p><p>Please respond as quickly and as accurately as possible!</p>","10","","2","new_stimuli/mp3/melody_v1_v7-_^7_.mp3"
"","545.5149999997811","html-button-response","112","821448","0.0-15.0-3.7","95804","","<p>Which tone was played third after the cadence?</p><p>Please respond as quickly and as accurately as possible!</p>","11","","3","new_stimuli/mp3/melody_v1_v7-_^7_.mp3"
"","null","audio-keyboard-response","113","830954","0.0-15.0-0.8","95804","","new_stimuli/mp3/melody_1_v1+_^2_.mp3","","null","",""
"","823.6550000001444","html-button-response","114","831779","0.0-15.0-1.8","95804","","<p>Which tone was played first after the cadence?</p><p>Please respond as quickly and as accurately as possible!</p>","0","","1","new_stimuli/mp3/melody_1_v1+_^2_.mp3"
"","440.4750000012573","html-button-response","115","832221","0.0-15.0-2.8","95804","","<p>Which tone was played second after the cadence?</p><p>Please respond as quickly and as accurately as possible!</p>","1","","2","new_stimuli/mp3/melody_1_v1+_^2_.mp3"
"","473.76500000059605","html-button-response","116","832696","0.0-15.0-3.8","95804","","<p>Which tone was played third after the cadence?</p><p>Please respond as quickly and as accurately as possible!</p>","2","","3","new_stimuli/mp3/melody_1_v1+_^2_.mp3"
"[{""page_index"":0,""viewing_time"":2181.85500000068},{""page_index"":1,""viewing_time"":2011.4400000002934},{""page_index"":2,""viewing_time"":1637.369999998482}]","5830.9349999999395","instructions","117","838531","0.0-16.0","95804","","","","","",""
"","null","audio-keyboard-response","118","849118","0.0-17.0-0.0","95804","","new_stimuli/mp3/melody_v5_v4_v3_v2_v1 _buffer.mp3","","null","",""
"","1024.7849999996834","html-button-response","119","850145","0.0-17.0-1.0","95804","","<p>Which tone was played first after the cadence?</p><p>Please respond as quickly and as accurately as possible!</p>","7","","1","new_stimuli/mp3/melody_v5_v4_v3_v2_v1 _buffer.mp3"
"","663.1199999992969","html-button-response","120","850809","0.0-17.0-2.0","95804","","<p>Which tone was played second after the cadence?</p><p>Please respond as quickly and as accurately as possible!</p>","5","","2","new_stimuli/mp3/melody_v5_v4_v3_v2_v1 _buffer.mp3"
"","1140.6650000007357","html-button-response","121","851952","0.0-17.0-3.0","95804","","<p>Which tone was played third after the cadence?</p><p>Please respond as quickly and as accurately as possible!</p>","3","","3","new_stimuli/mp3/melody_v5_v4_v3_v2_v1 _buffer.mp3"
"","1390.3650000010384","html-button-response","122","853343","0.0-17.0-4.0","95804","","<p>Which tone was played fourth after the cadence?</p><p>Please respond as quickly and as accurately as possible!</p>","2","","4","new_stimuli/mp3/melody_v5_v4_v3_v2_v1 _buffer.mp3"
"","924.1449999989709","html-button-response","123","854269","0.0-17.0-5.0","95804","","<p>Which tone was played fifth after the cadence?</p><p>Please respond as quickly and as accurately as possible!</p>","0","","5","new_stimuli/mp3/melody_v5_v4_v3_v2_v1 _buffer.mp3"
"","null","audio-keyboard-response","124","864905","0.0-17.0-0.1","95804","","new_stimuli/mp3/melody_v5_^6+_^7_^1_5_.mp3","","null","",""
"","1085.7300000006799","html-button-response","125","865992","0.0-17.0-1.1","95804","","<p>Which tone was played first after the cadence?</p><p>Please respond as quickly and as accurately as possible!</p>","7","","1","new_stimuli/mp3/melody_v5_^6+_^7_^1_5_.mp3"
"","673.8299999997253","html-button-response","126","866668","0.0-17.0-2.1","95804","","<p>Which tone was played second after the cadence?</p><p>Please respond as quickly and as accurately as possible!</p>","9","","2","new_stimuli/mp3/melody_v5_^6+_^7_^1_5_.mp3"
"","710.6750000002794","html-button-response","127","867380","0.0-17.0-3.1","95804","","<p>Which tone was played third after the cadence?</p><p>Please respond as quickly and as accurately as possible!</p>","11","","3","new_stimuli/mp3/melody_v5_^6+_^7_^1_5_.mp3"
"","659.380000000936","html-button-response","128","868040","0.0-17.0-4.1","95804","","<p>Which tone was played fourth after the cadence?</p><p>Please respond as quickly and as accurately as possible!</p>","12","","4","new_stimuli/mp3/melody_v5_^6+_^7_^1_5_.mp3"
"","1100.080000000191","html-button-response","129","869142","0.0-17.0-5.1","95804","","<p>Which tone was played fifth after the cadence?</p><p>Please respond as quickly and as accurately as possible!</p>","7","","5","new_stimuli/mp3/melody_v5_^6+_^7_^1_5_.mp3"
"","null","audio-keyboard-response","130","879848","0.0-17.0-0.2","95804","","new_stimuli/mp3/melody_^6_v5_v4_v3_v2_buffer.mp3","","null","",""
"","1115.545000000624","html-button-response","131","880965","0.0-17.0-1.2","95804","","<p>Which tone was played first after the cadence?</p><p>Please respond as quickly and as accurately as possible!</p>","9","","1","new_stimuli/mp3/melody_^6_v5_v4_v3_v2_buffer.mp3"
"","940.4649999996182","html-button-response","132","881907","0.0-17.0-2.2","95804","","<p>Which tone was played second after the cadence?</p><p>Please respond as quickly and as accurately as possible!</p>","7","","2","new_stimuli/mp3/melody_^6_v5_v4_v3_v2_buffer.mp3"
"","795.1250000005821","html-button-response","133","882703","0.0-17.0-3.2","95804","","<p>Which tone was played third after the cadence?</p><p>Please respond as quickly and as accurately as possible!</p>","5","","3","new_stimuli/mp3/melody_^6_v5_v4_v3_v2_buffer.mp3"
"","529.7300000002142","html-button-response","134","883234","0.0-17.0-4.2","95804","","<p>Which tone was played fourth after the cadence?</p><p>Please respond as quickly and as accurately as possible!</p>","4","","4","new_stimuli/mp3/melody_^6_v5_v4_v3_v2_buffer.mp3"
"","879.9650000000838","html-button-response","135","884115","0.0-17.0-5.2","95804","","<p>Which tone was played fifth after the cadence?</p><p>Please respond as quickly and as accurately as possible!</p>","2","","5","new_stimuli/mp3/melody_^6_v5_v4_v3_v2_buffer.mp3"
"","null","audio-keyboard-response","136","895064","0.0-17.0-0.3","95804","","new_stimuli/mp3/melody_v5-_v3_3_^4+_v3_.mp3","","null","",""
"","1507.2450000006938","html-button-response","137","896572","0.0-17.0-1.3","95804","","<p>Which tone was played first after the cadence?</p><p>Please respond as quickly and as accurately as possible!</p>","4","","1","new_stimuli/mp3/melody_v5-_v3_3_^4+_v3_.mp3"
"","593.3700000005774","html-button-response","138","897167","0.0-17.0-2.3","95804","","<p>Which tone was played second after the cadence?</p><p>Please respond as quickly and as accurately as possible!</p>","2","","2","new_stimuli/mp3/melody_v5-_v3_3_^4+_v3_.mp3"
"","481.3599999997532","html-button-response","139","897650","0.0-17.0-3.3","95804","","<p>Which tone was played third after the cadence?</p><p>Please respond as quickly and as accurately as possible!</p>","2","","3","new_stimuli/mp3/melody_v5-_v3_3_^4+_v3_.mp3"
"","771.020000000135","html-button-response","140","898422","0.0-17.0-4.3","95804","","<p>Which tone was played fourth after the cadence?</p><p>Please respond as quickly and as accurately as possible!</p>","4","","4","new_stimuli/mp3/melody_v5-_v3_3_^4+_v3_.mp3"
"","635.2650000008289","html-button-response","141","899059","0.0-17.0-5.3","95804","","<p>Which tone was played fifth after the cadence?</p><p>Please respond as quickly and as accurately as possible!</p>","2","","5","new_stimuli/mp3/melody_v5-_v3_3_^4+_v3_.mp3"
"","null","audio-keyboard-response","142","909641","0.0-17.0-0.4","95804","","new_stimuli/mp3/melody_v5_v4_v3_v2_v1_.mp3","","null","",""
"","1015.5450000001583","html-button-response","143","910658","0.0-17.0-1.4","95804","","<p>Which tone was played first after the cadence?</p><p>Please respond as quickly and as accurately as possible!</p>","7","","1","new_stimuli/mp3/melody_v5_v4_v3_v2_v1_.mp3"
"","1084.8050000004005","html-button-response","144","911744","0.0-17.0-2.4","95804","","<p>Which tone was played second after the cadence?</p><p>Please respond as quickly and as accurately as possible!</p>","5","","2","new_stimuli/mp3/melody_v5_v4_v3_v2_v1_.mp3"
"","1234.005000000354","html-button-response","145","912979","0.0-17.0-3.4","95804","","<p>Which tone was played third after the cadence?</p><p>Please respond as quickly and as accurately as possible!</p>","4","","3","new_stimuli/mp3/melody_v5_v4_v3_v2_v1_.mp3"
"","666.5250000006054","html-button-response","146","913647","0.0-17.0-4.4","95804","","<p>Which tone was played fourth after the cadence?</p><p>Please respond as quickly and as accurately as possible!</p>","2","","4","new_stimuli/mp3/melody_v5_v4_v3_v2_v1_.mp3"
"","722.7149999999674","html-button-response","147","914370","0.0-17.0-5.4","95804","","<p>Which tone was played fifth after the cadence?</p><p>Please respond as quickly and as accurately as possible!</p>","0","","5","new_stimuli/mp3/melody_v5_v4_v3_v2_v1_.mp3"
"","null","audio-keyboard-response","148","924949","0.0-17.0-0.5","95804","","new_stimuli/mp3/melody_v2_2_^3_^4_v2_.mp3","","null","",""
"","1443.924999999581","html-button-response","149","926394","0.0-17.0-1.5","95804","","<p>Which tone was played first after the cadence?</p><p>Please respond as quickly and as accurately as possible!</p>","2","","1","new_stimuli/mp3/melody_v2_2_^3_^4_v2_.mp3"
"","553.5349999991013","html-button-response","150","926949","0.0-17.0-2.5","95804","","<p>Which tone was played second after the cadence?</p><p>Please respond as quickly and as accurately as possible!</p>","2","","2","new_stimuli/mp3/melody_v2_2_^3_^4_v2_.mp3"
"","811.2349999991711","html-button-response","151","927761","0.0-17.0-3.5","95804","","<p>Which tone was played third after the cadence?</p><p>Please respond as quickly and as accurately as possible!</p>","4","","3","new_stimuli/mp3/melody_v2_2_^3_^4_v2_.mp3"
"","647.0849999987986","html-button-response","152","928410","0.0-17.0-4.5","95804","","<p>Which tone was played fourth after the cadence?</p><p>Please respond as quickly and as accurately as possible!</p>","5","","4","new_stimuli/mp3/melody_v2_2_^3_^4_v2_.mp3"
"","947.8349999990314","html-button-response","153","929359","0.0-17.0-5.5","95804","","<p>Which tone was played fifth after the cadence?</p><p>Please respond as quickly and as accurately as possible!</p>","2","","5","new_stimuli/mp3/melody_v2_2_^3_^4_v2_.mp3"
"","null","audio-keyboard-response","154","940304","0.0-17.0-0.6","95804","","new_stimuli/mp3/melody_^5_^6_v5_v4_v3_buffer.mp3","","null","",""
"","1261.215000000433","html-button-response","155","941566","0.0-17.0-1.6","95804","","<p>Which tone was played first after the cadence?</p><p>Please respond as quickly and as accurately as possible!</p>","7","","1","new_stimuli/mp3/melody_^5_^6_v5_v4_v3_buffer.mp3"
"","900.3300000003073","html-button-response","156","942468","0.0-17.0-2.6","95804","","<p>Which tone was played second after the cadence?</p><p>Please respond as quickly and as accurately as possible!</p>","9","","2","new_stimuli/mp3/melody_^5_^6_v5_v4_v3_buffer.mp3"
"","908.0049999994226","html-button-response","157","943377","0.0-17.0-3.6","95804","","<p>Which tone was played third after the cadence?</p><p>Please respond as quickly and as accurately as possible!</p>","7","","3","new_stimuli/mp3/melody_^5_^6_v5_v4_v3_buffer.mp3"
"","1028.904999999213","html-button-response","158","944407","0.0-17.0-4.6","95804","","<p>Which tone was played fourth after the cadence?</p><p>Please respond as quickly and as accurately as possible!</p>","5","","4","new_stimuli/mp3/melody_^5_^6_v5_v4_v3_buffer.mp3"
"","848.0849999996135","html-button-response","159","945256","0.0-17.0-5.6","95804","","<p>Which tone was played fifth after the cadence?</p><p>Please respond as quickly and as accurately as possible!</p>","4","","5","new_stimuli/mp3/melody_^5_^6_v5_v4_v3_buffer.mp3"
"","null","audio-keyboard-response","160","955890","0.0-17.0-0.7","95804","","new_stimuli/mp3/melody_^6_v4_v3_^4_^5_.mp3","","null","",""
"","1922.9950000008103","html-button-response","161","957815","0.0-17.0-1.7","95804","","<p>Which tone was played first after the cadence?</p><p>Please respond as quickly and as accurately as possible!</p>","9","","1","new_stimuli/mp3/melody_^6_v4_v3_^4_^5_.mp3"
"","992.0149999997811","html-button-response","162","958808","0.0-17.0-2.7","95804","","<p>Which tone was played second after the cadence?</p><p>Please respond as quickly and as accurately as possible!</p>","5","","2","new_stimuli/mp3/melody_^6_v4_v3_^4_^5_.mp3"
"","755.3100000005215","html-button-response","163","959565","0.0-17.0-3.7","95804","","<p>Which tone was played third after the cadence?</p><p>Please respond as quickly and as accurately as possible!</p>","4","","3","new_stimuli/mp3/melody_^6_v4_v3_^4_^5_.mp3"
"","586.3349999999627","html-button-response","164","960152","0.0-17.0-4.7","95804","","<p>Which tone was played fourth after the cadence?</p><p>Please respond as quickly and as accurately as possible!</p>","5","","4","new_stimuli/mp3/melody_^6_v4_v3_^4_^5_.mp3"
"","5416.194999999832","html-button-response","165","965570","0.0-17.0-5.7","95804","","<p>Which tone was played fifth after the cadence?</p><p>Please respond as quickly and as accurately as possible!</p>","7","","5","new_stimuli/mp3/melody_^6_v4_v3_^4_^5_.mp3"
"[{""page_index"":0,""viewing_time"":1994.8399999993853},{""page_index"":1,""viewing_time"":1162.8000000000466},{""page_index"":2,""viewing_time"":1174.485000001383}]","4332.375","instructions","166","969903","0.0-18.0","95804","","","","","",""
"","null","audio-keyboard-response","167","981869","0.0-19.0-0.0","95804","","new_stimuli/mp3/melody_1_^3_v1_^5_v3_v2_^3_.mp3","","null","",""
"","1195.734999999404","html-button-response","168","983066","0.0-19.0-1.0","95804","","<p>Which tone was played first after the cadence?</p><p>Please respond as quickly and as accurately as possible!</p>","0","","1","new_stimuli/mp3/melody_1_^3_v1_^5_v3_v2_^3_.mp3"
"","777.7900000000373","html-button-response","169","983845","0.0-19.0-2.0","95804","","<p>Which tone was played second after the cadence?</p><p>Please respond as quickly and as accurately as possible!</p>","3","","2","new_stimuli/mp3/melody_1_^3_v1_^5_v3_v2_^3_.mp3"
"","815.614999999525","html-button-response","170","984661","0.0-19.0-3.0","95804","","<p>Which tone was played third after the cadence?</p><p>Please respond as quickly and as accurately as possible!</p>","0","","3","new_stimuli/mp3/melody_1_^3_v1_^5_v3_v2_^3_.mp3"
"","2645.934999998659","html-button-response","171","987309","0.0-19.0-4.0","95804","","<p>Which tone was played fourth after the cadence?</p><p>Please respond as quickly and as accurately as possible!</p>","7","","4","new_stimuli/mp3/melody_1_^3_v1_^5_v3_v2_^3_.mp3"
"","786.9200000003912","html-button-response","172","988097","0.0-19.0-5.0","95804","","<p>Which tone was played fifth after the cadence?</p><p>Please respond as quickly and as accurately as possible!</p>","4","","5","new_stimuli/mp3/melody_1_^3_v1_^5_v3_v2_^3_.mp3"
"","888.0800000006566","html-button-response","173","988986","0.0-19.0-6.0","95804","","<p>Which tone was played sixth after the cadence?</p><p>Please respond as quickly and as accurately as possible!</p>","2","","6","new_stimuli/mp3/melody_1_^3_v1_^5_v3_v2_^3_.mp3"
"","778.7150000003166","html-button-response","174","989766","0.0-19.0-7.0","95804","","<p>Which tone was played seventh after the cadence?</p><p>Please respond as quickly and as accurately as possible!</p>","4","","7","new_stimuli/mp3/melody_1_^3_v1_^5_v3_v2_^3_.mp3"
"","null","audio-keyboard-response","175","1001444","0.0-19.0-0.1","95804","","new_stimuli/mp3/melody_^4_v6-_v5-_^6-_^4_v2-_2-_.mp3","","null","",""
"","4092.230000000214","html-button-response","176","1005538","0.0-19.0-1.1","95804","","<p>Which tone was played first after the cadence?</p><p>Please respond as quickly and as accurately as possible!</p>","5","","1","new_stimuli/mp3/melody_^4_v6-_v5-_^6-_^4_v2-_2-_.mp3"
"","1809.0150000007125","html-button-response","177","1007349","0.0-19.0-2.1","95804","","<p>Which tone was played second after the cadence?</p><p>Please respond as quickly and as accurately as possible!</p>","10","","2","new_stimuli/mp3/melody_^4_v6-_v5-_^6-_^4_v2-_2-_.mp3"
"","899.3049999990035","html-button-response","178","1008249","0.0-19.0-3.1","95804","","<p>Which tone was played third after the cadence?</p><p>Please respond as quickly and as accurately as possible!</p>","9","","3","new_stimuli/mp3/melody_^4_v6-_v5-_^6-_^4_v2-_2-_.mp3"
"","695.3100000009872","html-button-response","179","1008946","0.0-19.0-4.1","95804","","<p>Which tone was played fourth after the cadence?</p><p>Please respond as quickly and as accurately as possible!</p>","10","","4","new_stimuli/mp3/melody_^4_v6-_v5-_^6-_^4_v2-_2-_.mp3"
"","5653.6299999988405","html-button-response","180","1014601","0.0-19.0-5.1","95804","","<p>Which tone was played fifth after the cadence?</p><p>Please respond as quickly and as accurately as possible!</p>","5","","5","new_stimuli/mp3/melody_^4_v6-_v5-_^6-_^4_v2-_2-_.mp3"
"","1664.3600000006845","html-button-response","181","1016267","0.0-19.0-6.1","95804","","<p>Which tone was played sixth after the cadence?</p><p>Please respond as quickly and as accurately as possible!</p>","2","","6","new_stimuli/mp3/melody_^4_v6-_v5-_^6-_^4_v2-_2-_.mp3"
"","445.34000000020023","html-button-response","182","1016714","0.0-19.0-7.1","95804","","<p>Which tone was played seventh after the cadence?</p><p>Please respond as quickly and as accurately as possible!</p>","2","","7","new_stimuli/mp3/melody_^4_v6-_v5-_^6-_^4_v2-_2-_.mp3"
"","null","audio-keyboard-response","183","1028414","0.0-19.0-0.2","95804","","new_stimuli/mp3/melody_v1_^2_v1_v7_^1_^3_v2_.mp3","","null","",""
"","1352.5549999994691","html-button-response","184","1029768","0.0-19.0-1.2","95804","","<p>Which tone was played first after the cadence?</p><p>Please respond as quickly and as accurately as possible!</p>","0","","1","new_stimuli/mp3/melody_v1_^2_v1_v7_^1_^3_v2_.mp3"
"","594.100000000326","html-button-response","185","1030363","0.0-19.0-2.2","95804","","<p>Which tone was played second after the cadence?</p><p>Please respond as quickly and as accurately as possible!</p>","2","","2","new_stimuli/mp3/melody_v1_^2_v1_v7_^1_^3_v2_.mp3"
"","771.6650000001537","html-button-response","186","1031136","0.0-19.0-3.2","95804","","<p>Which tone was played third after the cadence?</p><p>Please respond as quickly and as accurately as possible!</p>","0","","3","new_stimuli/mp3/melody_v1_^2_v1_v7_^1_^3_v2_.mp3"
"","1116.1800000009825","html-button-response","187","1032254","0.0-19.0-4.2","95804","","<p>Which tone was played fourth after the cadence?</p><p>Please respond as quickly and as accurately as possible!</p>","11","","4","new_stimuli/mp3/melody_v1_^2_v1_v7_^1_^3_v2_.mp3"
"","2054.0799999998417","html-button-response","188","1034309","0.0-19.0-5.2","95804","","<p>Which tone was played fifth after the cadence?</p><p>Please respond as quickly and as accurately as possible!</p>","0","","5","new_stimuli/mp3/melody_v1_^2_v1_v7_^1_^3_v2_.mp3"
"","835.629999999539","html-button-response","189","1035146","0.0-19.0-6.2","95804","","<p>Which tone was played sixth after the cadence?</p><p>Please respond as quickly and as accurately as possible!</p>","4","","6","new_stimuli/mp3/melody_v1_^2_v1_v7_^1_^3_v2_.mp3"
"","658.6450000012992","html-button-response","190","1035806","0.0-19.0-7.2","95804","","<p>Which tone was played seventh after the cadence?</p><p>Please respond as quickly and as accurately as possible!</p>","2","","7","new_stimuli/mp3/melody_v1_^2_v1_v7_^1_^3_v2_.mp3"
"","null","audio-keyboard-response","191","1047507","0.0-19.0-0.3","95804","","new_stimuli/mp3/melody_^1_v7_v6_v5_v4_v3_v2_buffer.mp3","","null","",""
"","942.295000000624","html-button-response","192","1048451","0.0-19.0-1.3","95804","","<p>Which tone was played first after the cadence?</p><p>Please respond as quickly and as accurately as possible!</p>","12","","1","new_stimuli/mp3/melody_^1_v7_v6_v5_v4_v3_v2_buffer.mp3"
"","557.64500000095","html-button-response","193","1049010","0.0-19.0-2.3","95804","","<p>Which tone was played second after the cadence?</p><p>Please respond as quickly and as accurately as possible!</p>","11","","2","new_stimuli/mp3/melody_^1_v7_v6_v5_v4_v3_v2_buffer.mp3"
"","770.7300000002142","html-button-response","194","1049783","0.0-19.0-3.3","95804","","<p>Which tone was played third after the cadence?</p><p>Please respond as quickly and as accurately as possible!</p>","9","","3","new_stimuli/mp3/melody_^1_v7_v6_v5_v4_v3_v2_buffer.mp3"
"","867.5849999999627","html-button-response","195","1050652","0.0-19.0-4.3","95804","","<p>Which tone was played fourth after the cadence?</p><p>Please respond as quickly and as accurately as possible!</p>","7","","4","new_stimuli/mp3/melody_^1_v7_v6_v5_v4_v3_v2_buffer.mp3"
"","867.589999999851","html-button-response","196","1051521","0.0-19.0-5.3","95804","","<p>Which tone was played fifth after the cadence?</p><p>Please respond as quickly and as accurately as possible!</p>","5","","5","new_stimuli/mp3/melody_^1_v7_v6_v5_v4_v3_v2_buffer.mp3"
"","779.4950000008103","html-button-response","197","1052301","0.0-19.0-6.3","95804","","<p>Which tone was played sixth after the cadence?</p><p>Please respond as quickly and as accurately as possible!</p>","4","","6","new_stimuli/mp3/melody_^1_v7_v6_v5_v4_v3_v2_buffer.mp3"
"","848.1649999993388","html-button-response","198","1053151","0.0-19.0-7.3","95804","","<p>Which tone was played seventh after the cadence?</p><p>Please respond as quickly and as accurately as possible!</p>","2","","7","new_stimuli/mp3/melody_^1_v7_v6_v5_v4_v3_v2_buffer.mp3"
"","null","audio-keyboard-response","199","1064853","0.0-19.0-0.4","95804","","new_stimuli/mp3/melody_^4_^5_^6_v5_v4_v3_v2_.mp3","","null","",""
"","989.5250000008382","html-button-response","200","1065844","0.0-19.0-1.4","95804","","<p>Which tone was played first after the cadence?</p><p>Please respond as quickly and as accurately as possible!</p>","5","","1","new_stimuli/mp3/melody_^4_^5_^6_v5_v4_v3_v2_.mp3"
"","680.7649999989662","html-button-response","201","1066527","0.0-19.0-2.4","95804","","<p>Which tone was played second after the cadence?</p><p>Please respond as quickly and as accurately as possible!</p>","7","","2","new_stimuli/mp3/melody_^4_^5_^6_v5_v4_v3_v2_.mp3"
"","804.3600000001024","html-button-response","202","1067333","0.0-19.0-3.4","95804","","<p>Which tone was played third after the cadence?</p><p>Please respond as quickly and as accurately as possible!</p>","9","","3","new_stimuli/mp3/melody_^4_^5_^6_v5_v4_v3_v2_.mp3"
"","1044.0800000014715","html-button-response","203","1068378","0.0-19.0-4.4","95804","","<p>Which tone was played fourth after the cadence?</p><p>Please respond as quickly and as accurately as possible!</p>","7","","4","new_stimuli/mp3/melody_^4_^5_^6_v5_v4_v3_v2_.mp3"
"","767.214999999851","html-button-response","204","1069146","0.0-19.0-5.4","95804","","<p>Which tone was played fifth after the cadence?</p><p>Please respond as quickly and as accurately as possible!</p>","5","","5","new_stimuli/mp3/melody_^4_^5_^6_v5_v4_v3_v2_.mp3"
"","618.3399999991525","html-button-response","205","1069766","0.0-19.0-6.4","95804","","<p>Which tone was played sixth after the cadence?</p><p>Please respond as quickly and as accurately as possible!</p>","4","","6","new_stimuli/mp3/melody_^4_^5_^6_v5_v4_v3_v2_.mp3"
"","859.3549999985844","html-button-response","206","1070627","0.0-19.0-7.4","95804","","<p>Which tone was played seventh after the cadence?</p><p>Please respond as quickly and as accurately as possible!</p>","2","","7","new_stimuli/mp3/melody_^4_^5_^6_v5_v4_v3_v2_.mp3"
"","null","audio-keyboard-response","207","1082199","0.0-19.0-0.5","95804","","new_stimuli/mp3/melody_^5_^6_v5_v4_v3_v2_v1_buffer.mp3","","null","",""
"","1012.5300000000279","html-button-response","208","1083213","0.0-19.0-1.5","95804","","<p>Which tone was played first after the cadence?</p><p>Please respond as quickly and as accurately as possible!</p>","7","","1","new_stimuli/mp3/melody_^5_^6_v5_v4_v3_v2_v1_buffer.mp3"
"","779.0050000003539","html-button-response","209","1083993","0.0-19.0-2.5","95804","","<p>Which tone was played second after the cadence?</p><p>Please respond as quickly and as accurately as possible!</p>","9","","2","new_stimuli/mp3/melody_^5_^6_v5_v4_v3_v2_v1_buffer.mp3"
"","682.0949999999721","html-button-response","210","1084677","0.0-19.0-3.5","95804","","<p>Which tone was played third after the cadence?</p><p>Please respond as quickly and as accurately as possible!</p>","7","","3","new_stimuli/mp3/melody_^5_^6_v5_v4_v3_v2_v1_buffer.mp3"
"","895.2900000005029","html-button-response","211","1085574","0.0-19.0-4.5","95804","","<p>Which tone was played fourth after the cadence?</p><p>Please respond as quickly and as accurately as possible!</p>","5","","4","new_stimuli/mp3/melody_^5_^6_v5_v4_v3_v2_v1_buffer.mp3"
"","635.5399999993388","html-button-response","212","1086211","0.0-19.0-5.5","95804","","<p>Which tone was played fifth after the cadence?</p><p>Please respond as quickly and as accurately as possible!</p>","4","","5","new_stimuli/mp3/melody_^5_^6_v5_v4_v3_v2_v1_buffer.mp3"
"","713.980000000447","html-button-response","213","1086926","0.0-19.0-6.5","95804","","<p>Which tone was played sixth after the cadence?</p><p>Please respond as quickly and as accurately as possible!</p>","2","","6","new_stimuli/mp3/melody_^5_^6_v5_v4_v3_v2_v1_buffer.mp3"
"","739.0049999994226","html-button-response","214","1087666","0.0-19.0-7.5","95804","","<p>Which tone was played seventh after the cadence?</p><p>Please respond as quickly and as accurately as possible!</p>","0","","7","new_stimuli/mp3/melody_^5_^6_v5_v4_v3_v2_v1_buffer.mp3"
"","null","audio-keyboard-response","215","1099313","0.0-19.0-0.6","95804","","new_stimuli/mp3/melody_^6_v5+_v4_^5+_v3_v1_v7-_.mp3","","null","",""
"","1887.660000000149","html-button-response","216","1101202","0.0-19.0-1.6","95804","","<p>Which tone was played first after the cadence?</p><p>Please respond as quickly and as accurately as possible!</p>","9","","1","new_stimuli/mp3/melody_^6_v5+_v4_^5+_v3_v1_v7-_.mp3"
"","604.8100000007544","html-button-response","217","1101808","0.0-19.0-2.6","95804","","<p>Which tone was played second after the cadence?</p><p>Please respond as quickly and as accurately as possible!</p>","8","","2","new_stimuli/mp3/melody_^6_v5+_v4_^5+_v3_v1_v7-_.mp3"
"","2025.6650000009686","html-button-response","218","1103835","0.0-19.0-3.6","95804","","<p>Which tone was played third after the cadence?</p><p>Please respond as quickly and as accurately as possible!</p>","5","","3","new_stimuli/mp3/melody_^6_v5+_v4_^5+_v3_v1_v7-_.mp3"
"","1495.2949999987613","html-button-response","219","1105332","0.0-19.0-4.6","95804","","<p>Which tone was played fourth after the cadence?</p><p>Please respond as quickly and as accurately as possible!</p>","7","","4","new_stimuli/mp3/melody_^6_v5+_v4_^5+_v3_v1_v7-_.mp3"
"","2625.2099999999627","html-button-response","220","1107958","0.0-19.0-5.6","95804","","<p>Which tone was played fifth after the cadence?</p><p>Please respond as quickly and as accurately as possible!</p>","5","","5","new_stimuli/mp3/melody_^6_v5+_v4_^5+_v3_v1_v7-_.mp3"
"","723.3549999999814","html-button-response","221","1108683","0.0-19.0-6.6","95804","","<p>Which tone was played sixth after the cadence?</p><p>Please respond as quickly and as accurately as possible!</p>","3","","6","new_stimuli/mp3/melody_^6_v5+_v4_^5+_v3_v1_v7-_.mp3"
"","577.8799999989569","html-button-response","222","1109262","0.0-19.0-7.6","95804","","<p>Which tone was played seventh after the cadence?</p><p>Please respond as quickly and as accurately as possible!</p>","2","","7","new_stimuli/mp3/melody_^6_v5+_v4_^5+_v3_v1_v7-_.mp3"
"[{""page_index"":0,""viewing_time"":1628.3899999998976},{""page_index"":1,""viewing_time"":2504.9550000003073},{""page_index"":2,""viewing_time"":687.4850000003353}]","4821.064999999944","instructions","223","1114084","0.0-20.0","95804","","","","","",""
"","null","audio-keyboard-response","224","1126725","0.0-21.0-0.0","95804","","new_stimuli/mp3/melody_v7_v6_v5_^6_v5_v4_^5_^6_v5_.mp3","","null","",""
"","1272.2749999994412","html-button-response","225","1127999","0.0-21.0-1.0","95804","","<p>Which tone was played first after the cadence?</p><p>Please respond as quickly and as accurately as possible!</p>","11","","1","new_stimuli/mp3/melody_v7_v6_v5_^6_v5_v4_^5_^6_v5_.mp3"
"","690.2900000005029","html-button-response","226","1128691","0.0-21.0-2.0","95804","","<p>Which tone was played second after the cadence?</p><p>Please respond as quickly and as accurately as possible!</p>","9","","2","new_stimuli/mp3/melody_v7_v6_v5_^6_v5_v4_^5_^6_v5_.mp3"
"","633.8649999997579","html-button-response","227","1129326","0.0-21.0-3.0","95804","","<p>Which tone was played third after the cadence?</p><p>Please respond as quickly and as accurately as possible!</p>","7","","3","new_stimuli/mp3/melody_v7_v6_v5_^6_v5_v4_^5_^6_v5_.mp3"
"","626.0899999996182","html-button-response","228","1129954","0.0-21.0-4.0","95804","","<p>Which tone was played fourth after the cadence?</p><p>Please respond as quickly and as accurately as possible!</p>","9","","4","new_stimuli/mp3/melody_v7_v6_v5_^6_v5_v4_^5_^6_v5_.mp3"
"","1000.830000000773","html-button-response","229","1130956","0.0-21.0-5.0","95804","","<p>Which tone was played fifth after the cadence?</p><p>Please respond as quickly and as accurately as possible!</p>","7","","5","new_stimuli/mp3/melody_v7_v6_v5_^6_v5_v4_^5_^6_v5_.mp3"
"","834.9349999991246","html-button-response","230","1131792","0.0-21.0-6.0","95804","","<p>Which tone was played sixth after the cadence?</p><p>Please respond as quickly and as accurately as possible!</p>","5","","6","new_stimuli/mp3/melody_v7_v6_v5_^6_v5_v4_^5_^6_v5_.mp3"
"","1575.5250000001397","html-button-response","231","1133369","0.0-21.0-7.0","95804","","<p>Which tone was played seventh after the cadence?</p><p>Please respond as quickly and as accurately as possible!</p>","3","","7","new_stimuli/mp3/melody_v7_v6_v5_^6_v5_v4_^5_^6_v5_.mp3"
"","730.2899999993388","html-button-response","232","1134101","0.0-21.0-8.0","95804","","<p>Which tone was played eight after the cadence?</p><p>Please respond as quickly and as accurately as possible!</p>","5","","8","new_stimuli/mp3/melody_v7_v6_v5_^6_v5_v4_^5_^6_v5_.mp3"
"","1765.9000000003725","html-button-response","233","1135868","0.0-21.0-9.0","95804","","<p>Which tone was played nineth after the cadence?</p><p>Please respond as quickly and as accurately as possible!</p>","3","","9","new_stimuli/mp3/melody_v7_v6_v5_^6_v5_v4_^5_^6_v5_.mp3"
"","null","audio-keyboard-response","234","1148564","0.0-21.0-0.1","95804","","new_stimuli/mp3/melody_^2_^3_^4_^5_^6_v5_v4_v3_v2_buffer.mp3","","null","",""
"","1972.0199999990873","html-button-response","235","1150537","0.0-21.0-1.1","95804","","<p>Which tone was played first after the cadence?</p><p>Please respond as quickly and as accurately as possible!</p>","2","","1","new_stimuli/mp3/melody_^2_^3_^4_^5_^6_v5_v4_v3_v2_buffer.mp3"
"","1039.4750000014901","html-button-response","236","1151578","0.0-21.0-2.1","95804","","<p>Which tone was played second after the cadence?</p><p>Please respond as quickly and as accurately as possible!</p>","4","","2","new_stimuli/mp3/melody_^2_^3_^4_^5_^6_v5_v4_v3_v2_buffer.mp3"
"","602.5049999989569","html-button-response","237","1152182","0.0-21.0-3.1","95804","","<p>Which tone was played third after the cadence?</p><p>Please respond as quickly and as accurately as possible!</p>","5","","3","new_stimuli/mp3/melody_^2_^3_^4_^5_^6_v5_v4_v3_v2_buffer.mp3"
"","618.5449999994598","html-button-response","238","1152802","0.0-21.0-4.1","95804","","<p>Which tone was played fourth after the cadence?</p><p>Please respond as quickly and as accurately as possible!</p>","7","","4","new_stimuli/mp3/melody_^2_^3_^4_^5_^6_v5_v4_v3_v2_buffer.mp3"
"","730.4249999998137","html-button-response","239","1153534","0.0-21.0-5.1","95804","","<p>Which tone was played fifth after the cadence?</p><p>Please respond as quickly and as accurately as possible!</p>","9","","5","new_stimuli/mp3/melody_^2_^3_^4_^5_^6_v5_v4_v3_v2_buffer.mp3"
"","666.7600000000093","html-button-response","240","1154201","0.0-21.0-6.1","95804","","<p>Which tone was played sixth after the cadence?</p><p>Please respond as quickly and as accurately as possible!</p>","7","","6","new_stimuli/mp3/melody_^2_^3_^4_^5_^6_v5_v4_v3_v2_buffer.mp3"
"","674.3850000002421","html-button-response","241","1154877","0.0-21.0-7.1","95804","","<p>Which tone was played seventh after the cadence?</p><p>Please respond as quickly and as accurately as possible!</p>","5","","7","new_stimuli/mp3/melody_^2_^3_^4_^5_^6_v5_v4_v3_v2_buffer.mp3"
"","1089.2300000016112","html-button-response","242","1155968","0.0-21.0-8.1","95804","","<p>Which tone was played eight after the cadence?</p><p>Please respond as quickly and as accurately as possible!</p>","4","","8","new_stimuli/mp3/melody_^2_^3_^4_^5_^6_v5_v4_v3_v2_buffer.mp3"
"","707.0299999995623","html-button-response","243","1156676","0.0-21.0-9.1","95804","","<p>Which tone was played nineth after the cadence?</p><p>Please respond as quickly and as accurately as possible!</p>","2","","9","new_stimuli/mp3/melody_^2_^3_^4_^5_^6_v5_v4_v3_v2_buffer.mp3"
"","null","audio-keyboard-response","244","1169631","0.0-21.0-0.2","95804","","new_stimuli/mp3/melody_^5_^6_v5_v4_v3_v2_v1_^2_^3_buffer.mp3","","null","",""
"","1232.1550000016578","html-button-response","245","1170865","0.0-21.0-1.2","95804","","<p>Which tone was played first after the cadence?</p><p>Please respond as quickly and as accurately as possible!</p>","7","","1","new_stimuli/mp3/melody_^5_^6_v5_v4_v3_v2_v1_^2_^3_buffer.mp3"
"","794.2800000000279","html-button-response","246","1171662","0.0-21.0-2.2","95804","","<p>Which tone was played second after the cadence?</p><p>Please respond as quickly and as accurately as possible!</p>","9","","2","new_stimuli/mp3/melody_^5_^6_v5_v4_v3_v2_v1_^2_^3_buffer.mp3"
"","674.1650000005029","html-button-response","247","1172338","0.0-21.0-3.2","95804","","<p>Which tone was played third after the cadence?</p><p>Please respond as quickly and as accurately as possible!</p>","7","","3","new_stimuli/mp3/melody_^5_^6_v5_v4_v3_v2_v1_^2_^3_buffer.mp3"
"","868.6249999993015","html-button-response","248","1173208","0.0-21.0-4.2","95804","","<p>Which tone was played fourth after the cadence?</p><p>Please respond as quickly and as accurately as possible!</p>","5","","4","new_stimuli/mp3/melody_^5_^6_v5_v4_v3_v2_v1_^2_^3_buffer.mp3"
"","642.1050000009127","html-button-response","249","1173851","0.0-21.0-5.2","95804","","<p>Which tone was played fifth after the cadence?</p><p>Please respond as quickly and as accurately as possible!</p>","4","","5","new_stimuli/mp3/melody_^5_^6_v5_v4_v3_v2_v1_^2_^3_buffer.mp3"
"","706.8199999995995","html-button-response","250","1174559","0.0-21.0-6.2","95804","","<p>Which tone was played sixth after the cadence?</p><p>Please respond as quickly and as accurately as possible!</p>","2","","6","new_stimuli/mp3/melody_^5_^6_v5_v4_v3_v2_v1_^2_^3_buffer.mp3"
"","747.0699999993667","html-button-response","251","1175307","0.0-21.0-7.2","95804","","<p>Which tone was played seventh after the cadence?</p><p>Please respond as quickly and as accurately as possible!</p>","0","","7","new_stimuli/mp3/melody_^5_^6_v5_v4_v3_v2_v1_^2_^3_buffer.mp3"
"","807.484999999404","html-button-response","252","1176116","0.0-21.0-8.2","95804","","<p>Which tone was played eight after the cadence?</p><p>Please respond as quickly and as accurately as possible!</p>","2","","8","new_stimuli/mp3/melody_^5_^6_v5_v4_v3_v2_v1_^2_^3_buffer.mp3"
"","755.3850000002421","html-button-response","253","1176873","0.0-21.0-9.2","95804","","<p>Which tone was played nineth after the cadence?</p><p>Please respond as quickly and as accurately as possible!</p>","4","","9","new_stimuli/mp3/melody_^5_^6_v5_v4_v3_v2_v1_^2_^3_buffer.mp3"
"","null","audio-keyboard-response","254","1189514","0.0-21.0-0.3","95804","","new_stimuli/mp3/melody_^3_^4_v2_v7_^1_^2_^3_3_^4_.mp3","","null","",""
"","2336.41999999946","html-button-response","255","1191851","0.0-21.0-1.3","95804","","<p>Which tone was played first after the cadence?</p><p>Please respond as quickly and as accurately as possible!</p>","4","","1","new_stimuli/mp3/melody_^3_^4_v2_v7_^1_^2_^3_3_^4_.mp3"
"","582.0199999997858","html-button-response","256","1192435","0.0-21.0-2.3","95804","","<p>Which tone was played second after the cadence?</p><p>Please respond as quickly and as accurately as possible!</p>","5","","2","new_stimuli/mp3/melody_^3_^4_v2_v7_^1_^2_^3_3_^4_.mp3"
"","795.8899999994319","html-button-response","257","1193232","0.0-21.0-3.3","95804","","<p>Which tone was played third after the cadence?</p><p>Please respond as quickly and as accurately as possible!</p>","2","","3","new_stimuli/mp3/melody_^3_^4_v2_v7_^1_^2_^3_3_^4_.mp3"
"","1535.9900000004563","html-button-response","258","1194769","0.0-21.0-4.3","95804","","<p>Which tone was played fourth after the cadence?</p><p>Please respond as quickly and as accurately as possible!</p>","11","","4","new_stimuli/mp3/melody_^3_^4_v2_v7_^1_^2_^3_3_^4_.mp3"
"","1196.9049999988638","html-button-response","259","1195968","0.0-21.0-5.3","95804","","<p>Which tone was played fifth after the cadence?</p><p>Please respond as quickly and as accurately as possible!</p>","0","","5","new_stimuli/mp3/melody_^3_^4_v2_v7_^1_^2_^3_3_^4_.mp3"
"","718.4550000000745","html-button-response","260","1196688","0.0-21.0-6.3","95804","","<p>Which tone was played sixth after the cadence?</p><p>Please respond as quickly and as accurately as possible!</p>","2","","6","new_stimuli/mp3/melody_^3_^4_v2_v7_^1_^2_^3_3_^4_.mp3"
"","1230.1750000005122","html-button-response","261","1197919","0.0-21.0-7.3","95804","","<p>Which tone was played seventh after the cadence?</p><p>Please respond as quickly and as accurately as possible!</p>","4","","7","new_stimuli/mp3/melody_^3_^4_v2_v7_^1_^2_^3_3_^4_.mp3"
"","433.62499999976717","html-button-response","262","1198355","0.0-21.0-8.3","95804","","<p>Which tone was played eight after the cadence?</p><p>Please respond as quickly and as accurately as possible!</p>","4","","8","new_stimuli/mp3/melody_^3_^4_v2_v7_^1_^2_^3_3_^4_.mp3"
"","553.1099999989383","html-button-response","263","1198909","0.0-21.0-9.3","95804","","<p>Which tone was played nineth after the cadence?</p><p>Please respond as quickly and as accurately as possible!</p>","5","","9","new_stimuli/mp3/melody_^3_^4_v2_v7_^1_^2_^3_3_^4_.mp3"
"","null","audio-keyboard-response","264","1211550","0.0-21.0-0.4","95804","","new_stimuli/mp3/melody_v5_v4_v6+_^7_^3+_v3_v2_v5_^4_.mp3","","null","",""
"","1864.9850000003353","html-button-response","265","1213416","0.0-21.0-1.4","95804","","<p>Which tone was played first after the cadence?</p><p>Please respond as quickly and as accurately as possible!</p>","7","","1","new_stimuli/mp3/melody_v5_v4_v6+_^7_^3+_v3_v2_v5_^4_.mp3"
"","1298.0150000003632","html-button-response","266","1214716","0.0-21.0-2.4","95804","","<p>Which tone was played second after the cadence?</p><p>Please respond as quickly and as accurately as possible!</p>","5","","2","new_stimuli/mp3/melody_v5_v4_v6+_^7_^3+_v3_v2_v5_^4_.mp3"
"","3136.1550000002608","html-button-response","267","1217853","0.0-21.0-3.4","95804","","<p>Which tone was played third after the cadence?</p><p>Please respond as quickly and as accurately as possible!</p>","9","","3","new_stimuli/mp3/melody_v5_v4_v6+_^7_^3+_v3_v2_v5_^4_.mp3"
"","670.1899999990128","html-button-response","268","1218525","0.0-21.0-4.4","95804","","<p>Which tone was played fourth after the cadence?</p><p>Please respond as quickly and as accurately as possible!</p>","8","","4","new_stimuli/mp3/melody_v5_v4_v6+_^7_^3+_v3_v2_v5_^4_.mp3"
"","3015.6299999998882","html-button-response","269","1221542","0.0-21.0-5.4","95804","","<p>Which tone was played fifth after the cadence?</p><p>Please respond as quickly and as accurately as possible!</p>","5","","5","new_stimuli/mp3/melody_v5_v4_v6+_^7_^3+_v3_v2_v5_^4_.mp3"
"","594.25","html-button-response","270","1222137","0.0-21.0-6.4","95804","","<p>Which tone was played sixth after the cadence?</p><p>Please respond as quickly and as accurately as possible!</p>","4","","6","new_stimuli/mp3/melody_v5_v4_v6+_^7_^3+_v3_v2_v5_^4_.mp3"
"","1780.6699999999255","html-button-response","271","1223919","0.0-21.0-7.4","95804","","<p>Which tone was played seventh after the cadence?</p><p>Please respond as quickly and as accurately as possible!</p>","0","","7","new_stimuli/mp3/melody_v5_v4_v6+_^7_^3+_v3_v2_v5_^4_.mp3"
"","738.7799999995623","html-button-response","272","1224660","0.0-21.0-8.4","95804","","<p>Which tone was played eight after the cadence?</p><p>Please respond as quickly and as accurately as possible!</p>","2","","8","new_stimuli/mp3/melody_v5_v4_v6+_^7_^3+_v3_v2_v5_^4_.mp3"
"","626.6299999987241","html-button-response","273","1225288","0.0-21.0-9.4","95804","","<p>Which tone was played nineth after the cadence?</p><p>Please respond as quickly and as accurately as possible!</p>","4","","9","new_stimuli/mp3/melody_v5_v4_v6+_^7_^3+_v3_v2_v5_^4_.mp3"
"","null","audio-keyboard-response","274","1238219","0.0-21.0-0.5","95804","","new_stimuli/mp3/melody_^2_^4_v3_v2_v1_v3_v2+_^3_^5+_.mp3","","null","",""
"","1376.2850000003818","html-button-response","275","1239597","0.0-21.0-1.5","95804","","<p>Which tone was played first after the cadence?</p><p>Please respond as quickly and as accurately as possible!</p>","5","","1","new_stimuli/mp3/melody_^2_^4_v3_v2_v1_v3_v2+_^3_^5+_.mp3"
"","1656.1149999997579","html-button-response","276","1241254","0.0-21.0-2.5","95804","","<p>Which tone was played second after the cadence?</p><p>Please respond as quickly and as accurately as possible!</p>","9","","2","new_stimuli/mp3/melody_^2_^4_v3_v2_v1_v3_v2+_^3_^5+_.mp3"
"","4531.914999999572","html-button-response","277","1245788","0.0-21.0-3.5","95804","","<p>Which tone was played third after the cadence?</p><p>Please respond as quickly and as accurately as possible!</p>","4","","3","new_stimuli/mp3/melody_^2_^4_v3_v2_v1_v3_v2+_^3_^5+_.mp3"
"","907.2400000004563","html-button-response","278","1246697","0.0-21.0-4.5","95804","","<p>Which tone was played fourth after the cadence?</p><p>Please respond as quickly and as accurately as possible!</p>","2","","4","new_stimuli/mp3/melody_^2_^4_v3_v2_v1_v3_v2+_^3_^5+_.mp3"
"","1829.0299999988638","html-button-response","279","1248527","0.0-21.0-5.5","95804","","<p>Which tone was played fifth after the cadence?</p><p>Please respond as quickly and as accurately as possible!</p>","0","","5","new_stimuli/mp3/melody_^2_^4_v3_v2_v1_v3_v2+_^3_^5+_.mp3"
"","1221.8149999990128","html-button-response","280","1249751","0.0-21.0-6.5","95804","","<p>Which tone was played sixth after the cadence?</p><p>Please respond as quickly and as accurately as possible!</p>","11","","6","new_stimuli/mp3/melody_^2_^4_v3_v2_v1_v3_v2+_^3_^5+_.mp3"
"","1165.1899999999441","html-button-response","281","1250917","0.0-21.0-7.5","95804","","<p>Which tone was played seventh after the cadence?</p><p>Please respond as quickly and as accurately as possible!</p>","0","","7","new_stimuli/mp3/melody_^2_^4_v3_v2_v1_v3_v2+_^3_^5+_.mp3"
"","928.0049999998882","html-button-response","282","1251847","0.0-21.0-8.5","95804","","<p>Which tone was played eight after the cadence?</p><p>Please respond as quickly and as accurately as possible!</p>","3","","8","new_stimuli/mp3/melody_^2_^4_v3_v2_v1_v3_v2+_^3_^5+_.mp3"
"","811.364999999525","html-button-response","283","1252659","0.0-21.0-9.5","95804","","<p>Which tone was played nineth after the cadence?</p><p>Please respond as quickly and as accurately as possible!</p>","6","","9","new_stimuli/mp3/melody_^2_^4_v3_v2_v1_v3_v2+_^3_^5+_.mp3"
"","null","audio-keyboard-response","284","1265224","0.0-21.0-0.6","95804","","new_stimuli/mp3/melody_^3_^4_^5 _^6_v5_v4_v3_v2_v1_.mp3","","null","",""
"","1407.7049999998417","html-button-response","285","1266633","0.0-21.0-1.6","95804","","<p>Which tone was played first after the cadence?</p><p>Please respond as quickly and as accurately as possible!</p>","4","","1","new_stimuli/mp3/melody_^3_^4_^5 _^6_v5_v4_v3_v2_v1_.mp3"
"","578.2199999995064","html-button-response","286","1267213","0.0-21.0-2.6","95804","","<p>Which tone was played second after the cadence?</p><p>Please respond as quickly and as accurately as possible!</p>","5","","2","new_stimuli/mp3/melody_^3_^4_^5 _^6_v5_v4_v3_v2_v1_.mp3"
"","630.0050000010524","html-button-response","287","1267844","0.0-21.0-3.6","95804","","<p>Which tone was played third after the cadence?</p><p>Please respond as quickly and as accurately as possible!</p>","7","","3","new_stimuli/mp3/melody_^3_^4_^5 _^6_v5_v4_v3_v2_v1_.mp3"
"","626.6049999995157","html-button-response","288","1268472","0.0-21.0-4.6","95804","","<p>Which tone was played fourth after the cadence?</p><p>Please respond as quickly and as accurately as possible!</p>","9","","4","new_stimuli/mp3/melody_^3_^4_^5 _^6_v5_v4_v3_v2_v1_.mp3"
"","851.5050000005867","html-button-response","289","1269325","0.0-21.0-5.6","95804","","<p>Which tone was played fifth after the cadence?</p><p>Please respond as quickly and as accurately as possible!</p>","7","","5","new_stimuli/mp3/melody_^3_^4_^5 _^6_v5_v4_v3_v2_v1_.mp3"
"","763.2600000014063","html-button-response","290","1270089","0.0-21.0-6.6","95804","","<p>Which tone was played sixth after the cadence?</p><p>Please respond as quickly and as accurately as possible!</p>","5","","6","new_stimuli/mp3/melody_^3_^4_^5 _^6_v5_v4_v3_v2_v1_.mp3"
"","504.9500000006519","html-button-response","291","1270596","0.0-21.0-7.6","95804","","<p>Which tone was played seventh after the cadence?</p><p>Please respond as quickly and as accurately as possible!</p>","4","","7","new_stimuli/mp3/melody_^3_^4_^5 _^6_v5_v4_v3_v2_v1_.mp3"
"","691.295000000624","html-button-response","292","1271288","0.0-21.0-8.6","95804","","<p>Which tone was played eight after the cadence?</p><p>Please respond as quickly and as accurately as possible!</p>","2","","8","new_stimuli/mp3/melody_^3_^4_^5 _^6_v5_v4_v3_v2_v1_.mp3"
"","791.5599999995902","html-button-response","293","1272081","0.0-21.0-9.6","95804","","<p>Which tone was played nineth after the cadence?</p><p>Please respond as quickly and as accurately as possible!</p>","0","","9","new_stimuli/mp3/melody_^3_^4_^5 _^6_v5_v4_v3_v2_v1_.mp3"
"","9821.525000001071","survey-text","294","1281904","0.0-22.0","95804","{""Q0"":""Listening""}","","","","",""
"","29313.154999999795","survey-text","295","1311219","0.0-23.0","95804","{""Q0"":""Very tricky.  Fun challenge.""}","","","","",""
"","4901.785000000149","survey-text","296","1316122","0.0-24.0","95804","{""Q0"":""No""}","","","","",""
"","5293.385000000708","survey-text","297","1321417","0.0-25.0","95804","{""Q0"":""Headphones""}","","","","",""
"","4498.234999999171","survey-text","298","1325917","0.0-26.0","95804","{""Q0"":""Male""}","","","","",""
"","2887.6049999999814","survey-text","299","1328806","0.0-27.0","95804","{""Q0"":""Yes""}","","","","",""
"[{""page_index"":0,""viewing_time"":5111.869999998948}]","5112.2349999987055","instructions","300","1333920","0.0-28.0","95804","","","","","",""
