"view_history","rt","trial_type","trial_index","time_elapsed","internal_node_id","subject","responses","stimulus","button_pressed","key_press","response_sequence","melody"
"[{""page_index"":0,""viewing_time"":3030.999999959022},{""page_index"":1,""viewing_time"":26900.124999927357},{""page_index"":2,""viewing_time"":2493.8350000884384}]","32425.85499980487","instructions","0","32445","0.0-0.0","96534","","","","","",""
"","3078.0150000937283","survey-text","1","35526","0.0-1.0","96534","{""Q0"":""23""}","","","","",""
"","6061.664999928325","survey-text","2","41589","0.0-2.0","96534","{""Q0"":""Bachelor's""}","","","","",""
"","26754.990000044927","survey-text","3","67803","0.0-3.0","96534","{""Q0"":""Moveable-Do""}","","","","",""
"","4314.805000089109","survey-text","4","72119","0.0-4.0","96534","{""Q0"":""No""}","","","","",""
"","66473.37000002153","survey-text","5","138592","0.0-5.0","96534","{""Q0"":""I would say 15 weeks. I took a music theory class in high school, but I also was in choir(s) for 10+ years, which focused heavily on aural skills. ""}","","","","",""
"","9178.985000122339","survey-text","6","147772","0.0-6.0","96534","{""Q0"":""0""}","","","","",""
"[{""page_index"":0,""viewing_time"":4275.140000041574},{""page_index"":1,""viewing_time"":36899.04500008561},{""page_index"":2,""viewing_time"":2288.0450000520796}]","43462.53999997862","instructions","7","191236","0.0-7.0","96534","","","","","",""
"","8077.0999998785555","audio-button-response","8","199317","0.0-8.0","96534","","stimuli/long/c-do.mp3","0","","",""
"","10300.449999980628","audio-button-response","9","209619","0.0-9.0","96534","","stimuli/long/a-le.mp3","8","","",""
"[{""page_index"":0,""viewing_time"":16535.99500004202},{""page_index"":1,""viewing_time"":22740.74500007555}]","39276.95500012487","instructions","10","248896","0.0-10.0","96534","","","","","",""
"","7925.575000001118","audio-button-response","11","256824","0.0-11.0-0.0","96534","","stimuli/long/e-do8.mp3","12","","",""
"","12346.284999977797","audio-button-response","12","269172","0.0-11.0-0.1","96534","","stimuli/long/c-la.mp3","7","","",""
"","11638.195000123233","audio-button-response","13","280812","0.0-11.0-0.2","96534","","stimuli/long/e-re.mp3","3","","",""
"","12892.620000056922","audio-button-response","14","293706","0.0-11.0-0.3","96534","","stimuli/long/a-fa.mp3","5","","",""
"","16418.06499985978","audio-button-response","15","310126","0.0-11.0-0.4","96534","","stimuli/long/c-le.mp3","5","","",""
"","18173.8249999471","audio-button-response","16","328301","0.0-11.0-0.5","96534","","stimuli/long/c-do.mp3","4","","",""
"","17018.73499993235","audio-button-response","17","345322","0.0-11.0-0.6","96534","","stimuli/long/a-re.mp3","7","","",""
"","null","audio-button-response","18","365325","0.0-11.0-0.7","96534","","stimuli/long/e-fa.mp3","null","","",""
"","118.87499992735684","audio-button-response","19","365448","0.0-11.0-0.8","96534","","stimuli/long/e-le.mp3","4","","",""
"","19546.60000000149","audio-button-response","20","384998","0.0-11.0-0.9","96534","","stimuli/long/a-ti.mp3","10","","",""
"","14044.485000194982","audio-button-response","21","399044","0.0-11.0-0.10","96534","","stimuli/long/a-le.mp3","3","","",""
"","16095.57000012137","audio-button-response","22","415142","0.0-11.0-0.11","96534","","stimuli/long/a-sol.mp3","5","","",""
"","7600.205000024289","audio-button-response","23","422744","0.0-11.0-0.12","96534","","stimuli/long/e-do.mp3","0","","",""
"","15547.859999816865","audio-button-response","24","438294","0.0-11.0-0.13","96534","","stimuli/long/e-me.mp3","3","","",""
"","7668.049999978393","audio-button-response","25","445963","0.0-11.0-0.14","96534","","stimuli/long/c-mi.mp3","0","","",""
"","7630.065000150353","audio-button-response","26","453596","0.0-11.0-0.15","96534","","stimuli/long/c-do8.mp3","12","","",""
"","7807.959999889135","audio-button-response","27","461406","0.0-11.0-0.16","96534","","stimuli/long/a-mi.mp3","0","","",""
"","16918.100000126287","audio-button-response","28","478326","0.0-11.0-0.17","96534","","stimuli/long/a-me.mp3","8","","",""
"","16701.60000002943","audio-button-response","29","495029","0.0-11.0-0.18","96534","","stimuli/long/e-fi.mp3","10","","",""
"","11264.050000114366","audio-button-response","30","506296","0.0-11.0-0.19","96534","","stimuli/long/a-la.mp3","3","","",""
"","10216.765000019222","audio-button-response","31","516514","0.0-11.0-0.20","96534","","stimuli/long/c-fi.mp3","6","","",""
"","16917.395000113174","audio-button-response","32","533434","0.0-11.0-0.21","96534","","stimuli/long/c-ra.mp3","3","","",""
"","13744.2850000225","audio-button-response","33","547180","0.0-11.0-0.22","96534","","stimuli/long/e-mi.mp3","4","","",""
"","14105.234999908134","audio-button-response","34","561288","0.0-11.0-0.23","96534","","stimuli/long/a-ra.mp3","11","","",""
"","10034.719999879599","audio-button-response","35","571325","0.0-11.0-0.24","96534","","stimuli/long/c-ti.mp3","11","","",""
"","null","audio-button-response","36","591329","0.0-11.0-0.25","96534","","stimuli/long/a-fi.mp3","null","","",""
"","11059.755000052974","audio-button-response","37","602392","0.0-11.0-0.26","96534","","stimuli/long/c-fa.mp3","5","","",""
"","7454.189999960363","audio-button-response","38","609848","0.0-11.0-0.27","96534","","stimuli/long/a-do.mp3","0","","",""
"","10930.524999974295","audio-button-response","39","620780","0.0-11.0-0.28","96534","","stimuli/long/c-me.mp3","3","","",""
"","13377.270000055432","audio-button-response","40","634160","0.0-11.0-0.29","96534","","stimuli/long/e-ra.mp3","8","","",""
"","8093.979999888688","audio-button-response","41","642256","0.0-11.0-0.30","96534","","stimuli/long/a-do8.mp3","12","","",""
"","8237.814999883994","audio-button-response","42","650496","0.0-11.0-0.31","96534","","stimuli/long/e-ti.mp3","11","","",""
"","18411.79500008002","audio-button-response","43","668909","0.0-11.0-0.32","96534","","stimuli/long/c-re.mp3","2","","",""
"","10158.724999986589","audio-button-response","44","679075","0.0-11.0-0.33","96534","","stimuli/long/e-la.mp3","9","","",""
"","13267.860000021756","audio-button-response","45","692345","0.0-11.0-0.34","96534","","stimuli/long/c-sol.mp3","7","","",""
"","8770.640000002459","audio-button-response","46","701119","0.0-11.0-0.35","96534","","stimuli/long/e-te.mp3","10","","",""
"","11503.945000004023","audio-button-response","47","712625","0.0-11.0-0.36","96534","","stimuli/long/a-te.mp3","1","","",""
"","15179.55999984406","audio-button-response","48","727811","0.0-11.0-0.37","96534","","stimuli/long/e-sol.mp3","7","","",""
"[{""page_index"":0,""viewing_time"":25831.814999924973},{""page_index"":1,""viewing_time"":2280.185000039637}]","28112.239999929443","instructions","49","755924","0.0-12.0","96534","","","","","",""
"","null","audio-keyboard-response","50","765118","0.0-13.0-0.0","96534","","new_stimuli/mp3/melody_v3_v2_buffer.mp3","","null","",""
"","4378.520000027493","html-button-response","51","769500","0.0-13.0-1.0","96534","","<p>Which tone was played first after the cadence?</p><p>Please respond as quickly and as accurately as possible!</p>","4","","1","new_stimuli/mp3/melody_v3_v2_buffer.mp3"
"","1423.4749998431653","html-button-response","52","770925","0.0-13.0-2.0","96534","","<p>Which tone was played second after the cadence?</p><p>Please respond as quickly and as accurately as possible!</p>","2","","2","new_stimuli/mp3/melody_v3_v2_buffer.mp3"
"","null","audio-keyboard-response","53","780366","0.0-13.0-0.1","96534","","new_stimuli/mp3/melody_v4_v3_buffer.mp3","","null","",""
"","4270.0849999673665","html-button-response","54","784639","0.0-13.0-1.1","96534","","<p>Which tone was played first after the cadence?</p><p>Please respond as quickly and as accurately as possible!</p>","5","","1","new_stimuli/mp3/melody_v4_v3_buffer.mp3"
"","1159.0149998664856","html-button-response","55","785800","0.0-13.0-2.1","96534","","<p>Which tone was played second after the cadence?</p><p>Please respond as quickly and as accurately as possible!</p>","4","","2","new_stimuli/mp3/melody_v4_v3_buffer.mp3"
"","null","audio-keyboard-response","56","794966","0.0-13.0-0.2","96534","","new_stimuli/mp3/melody_^2_v7-_.mp3","","null","",""
"","2616.0349999554455","html-button-response","57","797586","0.0-13.0-1.2","96534","","<p>Which tone was played first after the cadence?</p><p>Please respond as quickly and as accurately as possible!</p>","6","","1","new_stimuli/mp3/melody_^2_v7-_.mp3"
"","1128.1400001607835","html-button-response","58","798715","0.0-13.0-2.2","96534","","<p>Which tone was played second after the cadence?</p><p>Please respond as quickly and as accurately as possible!</p>","2","","2","new_stimuli/mp3/melody_^2_v7-_.mp3"
"","null","audio-keyboard-response","59","808016","0.0-13.0-0.3","96534","","new_stimuli/mp3/melody_3_^6_buffer.mp3","","null","",""
"","1732.1999999694526","html-button-response","60","809751","0.0-13.0-1.3","96534","","<p>Which tone was played first after the cadence?</p><p>Please respond as quickly and as accurately as possible!</p>","4","","1","new_stimuli/mp3/melody_3_^6_buffer.mp3"
"","2238.9899999834597","html-button-response","61","811992","0.0-13.0-2.3","96534","","<p>Which tone was played second after the cadence?</p><p>Please respond as quickly and as accurately as possible!</p>","9","","2","new_stimuli/mp3/melody_3_^6_buffer.mp3"
"","null","audio-keyboard-response","62","821446","0.0-13.0-0.4","96534","","new_stimuli/mp3/melody_^3_v4+_buffer.mp3","","null","",""
"","6477.859999984503","html-button-response","63","827926","0.0-13.0-1.4","96534","","<p>Which tone was played first after the cadence?</p><p>Please respond as quickly and as accurately as possible!</p>","4","","1","new_stimuli/mp3/melody_^3_v4+_buffer.mp3"
"","1691.7550000362098","html-button-response","64","829619","0.0-13.0-2.4","96534","","<p>Which tone was played second after the cadence?</p><p>Please respond as quickly and as accurately as possible!</p>","5","","2","new_stimuli/mp3/melody_^3_v4+_buffer.mp3"
"","null","audio-keyboard-response","65","838786","0.0-13.0-0.5","96534","","new_stimuli/mp3/melody_v5_v1+_.mp3","","null","",""
"","4572.750000050291","html-button-response","66","843360","0.0-13.0-1.5","96534","","<p>Which tone was played first after the cadence?</p><p>Please respond as quickly and as accurately as possible!</p>","7","","1","new_stimuli/mp3/melody_v5_v1+_.mp3"
"","1446.375000057742","html-button-response","67","844808","0.0-13.0-2.5","96534","","<p>Which tone was played second after the cadence?</p><p>Please respond as quickly and as accurately as possible!</p>","3","","2","new_stimuli/mp3/melody_v5_v1+_.mp3"
"","null","audio-keyboard-response","68","854267","0.0-13.0-0.6","96534","","new_stimuli/mp3/melody_v7_v3_buffer.mp3","","null","",""
"","5972.015000181273","html-button-response","69","860242","0.0-13.0-1.6","96534","","<p>Which tone was played first after the cadence?</p><p>Please respond as quickly and as accurately as possible!</p>","10","","1","new_stimuli/mp3/melody_v7_v3_buffer.mp3"
"","3824.104999890551","html-button-response","70","864068","0.0-13.0-2.6","96534","","<p>Which tone was played second after the cadence?</p><p>Please respond as quickly and as accurately as possible!</p>","3","","2","new_stimuli/mp3/melody_v7_v3_buffer.mp3"
"","null","audio-keyboard-response","71","873247","0.0-13.0-0.7","96534","","new_stimuli/mp3/melody_^5_^1+_.mp3","","null","",""
"","2663.6250000447035","html-button-response","72","875914","0.0-13.0-1.7","96534","","<p>Which tone was played first after the cadence?</p><p>Please respond as quickly and as accurately as possible!</p>","1","","1","new_stimuli/mp3/melody_^5_^1+_.mp3"
"","2130.224999971688","html-button-response","73","878045","0.0-13.0-2.7","96534","","<p>Which tone was played second after the cadence?</p><p>Please respond as quickly and as accurately as possible!</p>","5","","2","new_stimuli/mp3/melody_^5_^1+_.mp3"
"","null","audio-keyboard-response","74","887067","0.0-13.0-0.8","96534","","new_stimuli/mp3/melody_^1_^2+_.mp3","","null","",""
"","7595.99499986507","html-button-response","75","894665","0.0-13.0-1.8","96534","","<p>Which tone was played first after the cadence?</p><p>Please respond as quickly and as accurately as possible!</p>","3","","1","new_stimuli/mp3/melody_^1_^2+_.mp3"
"","2856.144999852404","html-button-response","76","897523","0.0-13.0-2.8","96534","","<p>Which tone was played second after the cadence?</p><p>Please respond as quickly and as accurately as possible!</p>","6","","2","new_stimuli/mp3/melody_^1_^2+_.mp3"
"","null","audio-keyboard-response","77","906586","0.0-13.0-0.9","96534","","new_stimuli/mp3/melody_v2_v1_.mp3","","null","",""
"","1146.3150000199676","html-button-response","78","907735","0.0-13.0-1.9","96534","","<p>Which tone was played first after the cadence?</p><p>Please respond as quickly and as accurately as possible!</p>","2","","1","new_stimuli/mp3/melody_v2_v1_.mp3"
"","565.2499999850988","html-button-response","79","908304","0.0-13.0-2.9","96534","","<p>Which tone was played second after the cadence?</p><p>Please respond as quickly and as accurately as possible!</p>","0","","2","new_stimuli/mp3/melody_v2_v1_.mp3"
"[{""page_index"":0,""viewing_time"":9740.289999870583},{""page_index"":1,""viewing_time"":1139.9550000205636},{""page_index"":2,""viewing_time"":1515.9750001039356}]","12396.459999959916","instructions","80","920701","0.0-14.0","96534","","","","","",""
"","null","audio-keyboard-response","81","930266","0.0-15.0-0.0","96534","","new_stimuli/mp3/melody_v3_v2_v1_.mp3","","null","",""
"","1366.6749999392778","html-button-response","82","931635","0.0-15.0-1.0","96534","","<p>Which tone was played first after the cadence?</p><p>Please respond as quickly and as accurately as possible!</p>","4","","1","new_stimuli/mp3/melody_v3_v2_v1_.mp3"
"","517.9350001271814","html-button-response","83","932161","0.0-15.0-2.0","96534","","<p>Which tone was played second after the cadence?</p><p>Please respond as quickly and as accurately as possible!</p>","2","","2","new_stimuli/mp3/melody_v3_v2_v1_.mp3"
"","658.6599999573082","html-button-response","84","932821","0.0-15.0-3.0","96534","","<p>Which tone was played third after the cadence?</p><p>Please respond as quickly and as accurately as possible!</p>","0","","3","new_stimuli/mp3/melody_v3_v2_v1_.mp3"
"","null","audio-keyboard-response","85","942406","0.0-15.0-0.1","96534","","new_stimuli/mp3/melody_v1_v7-_7-_buffer.mp3","","null","",""
"","4942.090000025928","html-button-response","86","947351","0.0-15.0-1.1","96534","","<p>Which tone was played first after the cadence?</p><p>Please respond as quickly and as accurately as possible!</p>","6","","1","new_stimuli/mp3/melody_v1_v7-_7-_buffer.mp3"
"","582.4649999849498","html-button-response","87","947937","0.0-15.0-2.1","96534","","<p>Which tone was played second after the cadence?</p><p>Please respond as quickly and as accurately as possible!</p>","4","","2","new_stimuli/mp3/melody_v1_v7-_7-_buffer.mp3"
"","444.48999990709126","html-button-response","88","948383","0.0-15.0-3.1","96534","","<p>Which tone was played third after the cadence?</p><p>Please respond as quickly and as accurately as possible!</p>","4","","3","new_stimuli/mp3/melody_v1_v7-_7-_buffer.mp3"
"","null","audio-keyboard-response","89","958017","0.0-15.0-0.2","96534","","new_stimuli/mp3/melody_6_^1_v5_.mp3","","null","",""
"","4442.409999901429","html-button-response","90","962462","0.0-15.0-1.2","96534","","<p>Which tone was played first after the cadence?</p><p>Please respond as quickly and as accurately as possible!</p>","7","","1","new_stimuli/mp3/melody_6_^1_v5_.mp3"
"","1859.534999821335","html-button-response","91","964324","0.0-15.0-2.2","96534","","<p>Which tone was played second after the cadence?</p><p>Please respond as quickly and as accurately as possible!</p>","9","","2","new_stimuli/mp3/melody_6_^1_v5_.mp3"
"","2046.8550000805408","html-button-response","92","966372","0.0-15.0-3.2","96534","","<p>Which tone was played third after the cadence?</p><p>Please respond as quickly and as accurately as possible!</p>","4","","3","new_stimuli/mp3/melody_6_^1_v5_.mp3"
"","null","audio-keyboard-response","93","976267","0.0-15.0-0.3","96534","","new_stimuli/mp3/melody_^1_v6_v5+_.mp3","","null","",""
"","1231.0099999886006","html-button-response","94","977507","0.0-15.0-1.3","96534","","<p>Which tone was played first after the cadence?</p><p>Please respond as quickly and as accurately as possible!</p>","12","","1","new_stimuli/mp3/melody_^1_v6_v5+_.mp3"
"","1099.3250000756234","html-button-response","95","978608","0.0-15.0-2.3","96534","","<p>Which tone was played second after the cadence?</p><p>Please respond as quickly and as accurately as possible!</p>","9","","2","new_stimuli/mp3/melody_^1_v6_v5+_.mp3"
"","838.2250000722706","html-button-response","96","979448","0.0-15.0-3.3","96534","","<p>Which tone was played third after the cadence?</p><p>Please respond as quickly and as accurately as possible!</p>","8","","3","new_stimuli/mp3/melody_^1_v6_v5+_.mp3"
"","null","audio-keyboard-response","97","989427","0.0-15.0-0.4","96534","","new_stimuli/mp3/melody_v2_v5_^3_buffer.mp3","","null","",""
"","1099.5499999262393","html-button-response","98","990530","0.0-15.0-1.4","96534","","<p>Which tone was played first after the cadence?</p><p>Please respond as quickly and as accurately as possible!</p>","0","","1","new_stimuli/mp3/melody_v2_v5_^3_buffer.mp3"
"","4202.985000098124","html-button-response","99","994734","0.0-15.0-2.4","96534","","<p>Which tone was played second after the cadence?</p><p>Please respond as quickly and as accurately as possible!</p>","8","","2","new_stimuli/mp3/melody_v2_v5_^3_buffer.mp3"
"","667.9249999579042","html-button-response","100","995404","0.0-15.0-3.4","96534","","<p>Which tone was played third after the cadence?</p><p>Please respond as quickly and as accurately as possible!</p>","7","","3","new_stimuli/mp3/melody_v2_v5_^3_buffer.mp3"
"","null","audio-keyboard-response","101","1004906","0.0-15.0-0.5","96534","","new_stimuli/mp3/melody_1_v1+_^2_.mp3","","null","",""
"","2317.909999983385","html-button-response","102","1007226","0.0-15.0-1.5","96534","","<p>Which tone was played first after the cadence?</p><p>Please respond as quickly and as accurately as possible!</p>","0","","1","new_stimuli/mp3/melody_1_v1+_^2_.mp3"
"","514.7299999371171","html-button-response","103","1007742","0.0-15.0-2.5","96534","","<p>Which tone was played second after the cadence?</p><p>Please respond as quickly and as accurately as possible!</p>","1","","2","new_stimuli/mp3/melody_1_v1+_^2_.mp3"
"","782.839999999851","html-button-response","104","1008526","0.0-15.0-3.5","96534","","<p>Which tone was played third after the cadence?</p><p>Please respond as quickly and as accurately as possible!</p>","2","","3","new_stimuli/mp3/melody_1_v1+_^2_.mp3"
"","null","audio-keyboard-response","105","1018096","0.0-15.0-0.6","96534","","new_stimuli/mp3/melody_v1_v7-_^7_.mp3","","null","",""
"","1284.0549999382347","html-button-response","106","1019383","0.0-15.0-1.6","96534","","<p>Which tone was played first after the cadence?</p><p>Please respond as quickly and as accurately as possible!</p>","11","","1","new_stimuli/mp3/melody_v1_v7-_^7_.mp3"
"","984.3349999282509","html-button-response","107","1020369","0.0-15.0-2.6","96534","","<p>Which tone was played second after the cadence?</p><p>Please respond as quickly and as accurately as possible!</p>","8","","2","new_stimuli/mp3/melody_v1_v7-_^7_.mp3"
"","668.6199998948723","html-button-response","108","1021039","0.0-15.0-3.6","96534","","<p>Which tone was played third after the cadence?</p><p>Please respond as quickly and as accurately as possible!</p>","9","","3","new_stimuli/mp3/melody_v1_v7-_^7_.mp3"
"","null","audio-keyboard-response","109","1030736","0.0-15.0-0.7","96534","","new_stimuli/mp3/melody_v4_v3_v2_buffer.mp3","","null","",""
"","1336.7049999069422","html-button-response","110","1032076","0.0-15.0-1.7","96534","","<p>Which tone was played first after the cadence?</p><p>Please respond as quickly and as accurately as possible!</p>","5","","1","new_stimuli/mp3/melody_v4_v3_v2_buffer.mp3"
"","492.0000000856817","html-button-response","111","1032569","0.0-15.0-2.7","96534","","<p>Which tone was played second after the cadence?</p><p>Please respond as quickly and as accurately as possible!</p>","4","","2","new_stimuli/mp3/melody_v4_v3_v2_buffer.mp3"
"","498.7200000323355","html-button-response","112","1033069","0.0-15.0-3.7","96534","","<p>Which tone was played third after the cadence?</p><p>Please respond as quickly and as accurately as possible!</p>","2","","3","new_stimuli/mp3/melody_v4_v3_v2_buffer.mp3"
"","null","audio-keyboard-response","113","1043026","0.0-15.0-0.8","96534","","new_stimuli/mp3/melody_v5_v4_v3_buffer.mp3","","null","",""
"","1161.0000000800937","html-button-response","114","1044190","0.0-15.0-1.8","96534","","<p>Which tone was played first after the cadence?</p><p>Please respond as quickly and as accurately as possible!</p>","5","","1","new_stimuli/mp3/melody_v5_v4_v3_buffer.mp3"
"","406.60500014200807","html-button-response","115","1044598","0.0-15.0-2.8","96534","","<p>Which tone was played second after the cadence?</p><p>Please respond as quickly and as accurately as possible!</p>","4","","2","new_stimuli/mp3/melody_v5_v4_v3_buffer.mp3"
"","476.49000003002584","html-button-response","116","1045076","0.0-15.0-3.8","96534","","<p>Which tone was played third after the cadence?</p><p>Please respond as quickly and as accurately as possible!</p>","2","","3","new_stimuli/mp3/melody_v5_v4_v3_buffer.mp3"
"[{""page_index"":0,""viewing_time"":6120.140000013635},{""page_index"":1,""viewing_time"":2633.970000082627},{""page_index"":2,""viewing_time"":1478.0800000298768}]","10232.550000073388","instructions","117","1055309","0.0-16.0","96534","","","","","",""
"","null","audio-keyboard-response","118","1066256","0.0-17.0-0.0","96534","","new_stimuli/mp3/melody_v5-_v3_3_^4+_v3_.mp3","","null","",""
"","4250.269999960437","html-button-response","119","1070509","0.0-17.0-1.0","96534","","<p>Which tone was played first after the cadence?</p><p>Please respond as quickly and as accurately as possible!</p>","6","","1","new_stimuli/mp3/melody_v5-_v3_3_^4+_v3_.mp3"
"","1346.1649999953806","html-button-response","120","1071857","0.0-17.0-2.0","96534","","<p>Which tone was played second after the cadence?</p><p>Please respond as quickly and as accurately as possible!</p>","5","","2","new_stimuli/mp3/melody_v5-_v3_3_^4+_v3_.mp3"
"","746.735000051558","html-button-response","121","1072605","0.0-17.0-3.0","96534","","<p>Which tone was played third after the cadence?</p><p>Please respond as quickly and as accurately as possible!</p>","5","","3","new_stimuli/mp3/melody_v5-_v3_3_^4+_v3_.mp3"
"","682.6349999755621","html-button-response","122","1073289","0.0-17.0-4.0","96534","","<p>Which tone was played fourth after the cadence?</p><p>Please respond as quickly and as accurately as possible!</p>","6","","4","new_stimuli/mp3/melody_v5-_v3_3_^4+_v3_.mp3"
"","1008.9300000108778","html-button-response","123","1074299","0.0-17.0-5.0","96534","","<p>Which tone was played fifth after the cadence?</p><p>Please respond as quickly and as accurately as possible!</p>","5","","5","new_stimuli/mp3/melody_v5-_v3_3_^4+_v3_.mp3"
"","null","audio-keyboard-response","124","1084886","0.0-17.0-0.1","96534","","new_stimuli/mp3/melody_v2_2_^3_^4_v2_.mp3","","null","",""
"","2380.6699998676777","html-button-response","125","1087271","0.0-17.0-1.1","96534","","<p>Which tone was played first after the cadence?</p><p>Please respond as quickly and as accurately as possible!</p>","2","","1","new_stimuli/mp3/melody_v2_2_^3_^4_v2_.mp3"
"","541.2900000810623","html-button-response","126","1087813","0.0-17.0-2.1","96534","","<p>Which tone was played second after the cadence?</p><p>Please respond as quickly and as accurately as possible!</p>","2","","2","new_stimuli/mp3/melody_v2_2_^3_^4_v2_.mp3"
"","648.1149999890476","html-button-response","127","1088462","0.0-17.0-3.1","96534","","<p>Which tone was played third after the cadence?</p><p>Please respond as quickly and as accurately as possible!</p>","3","","3","new_stimuli/mp3/melody_v2_2_^3_^4_v2_.mp3"
"","846.8599999323487","html-button-response","128","1089311","0.0-17.0-4.1","96534","","<p>Which tone was played fourth after the cadence?</p><p>Please respond as quickly and as accurately as possible!</p>","5","","4","new_stimuli/mp3/melody_v2_2_^3_^4_v2_.mp3"
"","742.4199997913092","html-button-response","129","1090056","0.0-17.0-5.1","96534","","<p>Which tone was played fifth after the cadence?</p><p>Please respond as quickly and as accurately as possible!</p>","3","","5","new_stimuli/mp3/melody_v2_2_^3_^4_v2_.mp3"
"","null","audio-keyboard-response","130","1100646","0.0-17.0-0.2","96534","","new_stimuli/mp3/melody_v5_v4_v3_v2_v1_.mp3","","null","",""
"","1220.5850000027567","html-button-response","131","1101870","0.0-17.0-1.2","96534","","<p>Which tone was played first after the cadence?</p><p>Please respond as quickly and as accurately as possible!</p>","7","","1","new_stimuli/mp3/melody_v5_v4_v3_v2_v1_.mp3"
"","622.7850001305342","html-button-response","132","1102494","0.0-17.0-2.2","96534","","<p>Which tone was played second after the cadence?</p><p>Please respond as quickly and as accurately as possible!</p>","5","","2","new_stimuli/mp3/melody_v5_v4_v3_v2_v1_.mp3"
"","552.2649998310953","html-button-response","133","1103048","0.0-17.0-3.2","96534","","<p>Which tone was played third after the cadence?</p><p>Please respond as quickly and as accurately as possible!</p>","4","","3","new_stimuli/mp3/melody_v5_v4_v3_v2_v1_.mp3"
"","568.6700001824647","html-button-response","134","1103618","0.0-17.0-4.2","96534","","<p>Which tone was played fourth after the cadence?</p><p>Please respond as quickly and as accurately as possible!</p>","2","","4","new_stimuli/mp3/melody_v5_v4_v3_v2_v1_.mp3"
"","530.2899999078363","html-button-response","135","1104150","0.0-17.0-5.2","96534","","<p>Which tone was played fifth after the cadence?</p><p>Please respond as quickly and as accurately as possible!</p>","0","","5","new_stimuli/mp3/melody_v5_v4_v3_v2_v1_.mp3"
"","null","audio-keyboard-response","136","1114786","0.0-17.0-0.3","96534","","new_stimuli/mp3/melody_v5_^6+_^7_^1_5_.mp3","","null","",""
"","1198.850000044331","html-button-response","137","1115986","0.0-17.0-1.3","96534","","<p>Which tone was played first after the cadence?</p><p>Please respond as quickly and as accurately as possible!</p>","7","","1","new_stimuli/mp3/melody_v5_^6+_^7_^1_5_.mp3"
"","689.8949998430908","html-button-response","138","1116678","0.0-17.0-2.3","96534","","<p>Which tone was played second after the cadence?</p><p>Please respond as quickly and as accurately as possible!</p>","9","","2","new_stimuli/mp3/melody_v5_^6+_^7_^1_5_.mp3"
"","608.9250000659376","html-button-response","139","1117288","0.0-17.0-3.3","96534","","<p>Which tone was played third after the cadence?</p><p>Please respond as quickly and as accurately as possible!</p>","11","","3","new_stimuli/mp3/melody_v5_^6+_^7_^1_5_.mp3"
"","906.0849999077618","html-button-response","140","1118196","0.0-17.0-4.3","96534","","<p>Which tone was played fourth after the cadence?</p><p>Please respond as quickly and as accurately as possible!</p>","12","","4","new_stimuli/mp3/melody_v5_^6+_^7_^1_5_.mp3"
"","2100.8099999744445","html-button-response","141","1120306","0.0-17.0-5.3","96534","","<p>Which tone was played fifth after the cadence?</p><p>Please respond as quickly and as accurately as possible!</p>","7","","5","new_stimuli/mp3/melody_v5_^6+_^7_^1_5_.mp3"
"","null","audio-keyboard-response","142","1131027","0.0-17.0-0.4","96534","","new_stimuli/mp3/melody_^6_v5_v4_v3_v2_buffer.mp3","","null","",""
"","2100.2700000535697","html-button-response","143","1133130","0.0-17.0-1.4","96534","","<p>Which tone was played first after the cadence?</p><p>Please respond as quickly and as accurately as possible!</p>","8","","1","new_stimuli/mp3/melody_^6_v5_v4_v3_v2_buffer.mp3"
"","998.020000057295","html-button-response","144","1134130","0.0-17.0-2.4","96534","","<p>Which tone was played second after the cadence?</p><p>Please respond as quickly and as accurately as possible!</p>","7","","2","new_stimuli/mp3/melody_^6_v5_v4_v3_v2_buffer.mp3"
"","1330.6549999397248","html-button-response","145","1135462","0.0-17.0-3.4","96534","","<p>Which tone was played third after the cadence?</p><p>Please respond as quickly and as accurately as possible!</p>","5","","3","new_stimuli/mp3/melody_^6_v5_v4_v3_v2_buffer.mp3"
"","507.0100000593811","html-button-response","146","1135970","0.0-17.0-4.4","96534","","<p>Which tone was played fourth after the cadence?</p><p>Please respond as quickly and as accurately as possible!</p>","4","","4","new_stimuli/mp3/melody_^6_v5_v4_v3_v2_buffer.mp3"
"","1092.1199999284","html-button-response","147","1137064","0.0-17.0-5.4","96534","","<p>Which tone was played fifth after the cadence?</p><p>Please respond as quickly and as accurately as possible!</p>","2","","5","new_stimuli/mp3/melody_^6_v5_v4_v3_v2_buffer.mp3"
"","null","audio-keyboard-response","148","1147647","0.0-17.0-0.5","96534","","new_stimuli/mp3/melody_v5_v4_v3_v2_v1 _buffer.mp3","","null","",""
"","2237.9799999762326","html-button-response","149","1149888","0.0-17.0-1.5","96534","","<p>Which tone was played first after the cadence?</p><p>Please respond as quickly and as accurately as possible!</p>","7","","1","new_stimuli/mp3/melody_v5_v4_v3_v2_v1 _buffer.mp3"
"","538.315000012517","html-button-response","150","1150434","0.0-17.0-2.5","96534","","<p>Which tone was played second after the cadence?</p><p>Please respond as quickly and as accurately as possible!</p>","5","","2","new_stimuli/mp3/melody_v5_v4_v3_v2_v1 _buffer.mp3"
"","723.1600000523031","html-button-response","151","1151159","0.0-17.0-3.5","96534","","<p>Which tone was played third after the cadence?</p><p>Please respond as quickly and as accurately as possible!</p>","3","","3","new_stimuli/mp3/melody_v5_v4_v3_v2_v1 _buffer.mp3"
"","1916.1000000312924","html-button-response","152","1153076","0.0-17.0-4.5","96534","","<p>Which tone was played fourth after the cadence?</p><p>Please respond as quickly and as accurately as possible!</p>","2","","4","new_stimuli/mp3/melody_v5_v4_v3_v2_v1 _buffer.mp3"
"","477.004999993369","html-button-response","153","1153554","0.0-17.0-5.5","96534","","<p>Which tone was played fifth after the cadence?</p><p>Please respond as quickly and as accurately as possible!</p>","0","","5","new_stimuli/mp3/melody_v5_v4_v3_v2_v1 _buffer.mp3"
"","null","audio-keyboard-response","154","1164187","0.0-17.0-0.6","96534","","new_stimuli/mp3/melody_^6_v4_v3_^4_^5_.mp3","","null","",""
"","2417.0199998188764","html-button-response","155","1166607","0.0-17.0-1.6","96534","","<p>Which tone was played first after the cadence?</p><p>Please respond as quickly and as accurately as possible!</p>","8","","1","new_stimuli/mp3/melody_^6_v4_v3_^4_^5_.mp3"
"","1430.5950000416487","html-button-response","156","1168039","0.0-17.0-2.6","96534","","<p>Which tone was played second after the cadence?</p><p>Please respond as quickly and as accurately as possible!</p>","4","","2","new_stimuli/mp3/melody_^6_v4_v3_^4_^5_.mp3"
"","1115.8699998632073","html-button-response","157","1169156","0.0-17.0-3.6","96534","","<p>Which tone was played third after the cadence?</p><p>Please respond as quickly and as accurately as possible!</p>","3","","3","new_stimuli/mp3/melody_^6_v4_v3_^4_^5_.mp3"
"","752.2899999748915","html-button-response","158","1169910","0.0-17.0-4.6","96534","","<p>Which tone was played fourth after the cadence?</p><p>Please respond as quickly and as accurately as possible!</p>","4","","4","new_stimuli/mp3/melody_^6_v4_v3_^4_^5_.mp3"
"","1376.7549998592585","html-button-response","159","1171288","0.0-17.0-5.6","96534","","<p>Which tone was played fifth after the cadence?</p><p>Please respond as quickly and as accurately as possible!</p>","5","","5","new_stimuli/mp3/melody_^6_v4_v3_^4_^5_.mp3"
"","null","audio-keyboard-response","160","1182236","0.0-17.0-0.7","96534","","new_stimuli/mp3/melody_^5_^6_v5_v4_v3_buffer.mp3","","null","",""
"","6108.854999998584","html-button-response","161","1188347","0.0-17.0-1.7","96534","","<p>Which tone was played first after the cadence?</p><p>Please respond as quickly and as accurately as possible!</p>","7","","1","new_stimuli/mp3/melody_^5_^6_v5_v4_v3_buffer.mp3"
"","1252.3600000422448","html-button-response","162","1189601","0.0-17.0-2.7","96534","","<p>Which tone was played second after the cadence?</p><p>Please respond as quickly and as accurately as possible!</p>","7","","2","new_stimuli/mp3/melody_^5_^6_v5_v4_v3_buffer.mp3"
"","1278.0150000471622","html-button-response","163","1190880","0.0-17.0-3.7","96534","","<p>Which tone was played third after the cadence?</p><p>Please respond as quickly and as accurately as possible!</p>","5","","3","new_stimuli/mp3/melody_^5_^6_v5_v4_v3_buffer.mp3"
"","460.2099999319762","html-button-response","164","1191342","0.0-17.0-4.7","96534","","<p>Which tone was played fourth after the cadence?</p><p>Please respond as quickly and as accurately as possible!</p>","4","","4","new_stimuli/mp3/melody_^5_^6_v5_v4_v3_buffer.mp3"
"","3378.5600000992417","html-button-response","165","1194722","0.0-17.0-5.7","96534","","<p>Which tone was played fifth after the cadence?</p><p>Please respond as quickly and as accurately as possible!</p>","2","","5","new_stimuli/mp3/melody_^5_^6_v5_v4_v3_buffer.mp3"
"[{""page_index"":0,""viewing_time"":2625.0499999150634},{""page_index"":1,""viewing_time"":1424.210000084713},{""page_index"":2,""viewing_time"":1239.439999917522}]","5288.949999958277","instructions","166","1200012","0.0-18.0","96534","","","","","",""
"","null","audio-keyboard-response","167","1211657","0.0-19.0-0.0","96534","","new_stimuli/mp3/melody_^6_v5+_v4_^5+_v3_v1_v7-_.mp3","","null","",""
"","1568.0749998427927","html-button-response","168","1213228","0.0-19.0-1.0","96534","","<p>Which tone was played first after the cadence?</p><p>Please respond as quickly and as accurately as possible!</p>","10","","1","new_stimuli/mp3/melody_^6_v5+_v4_^5+_v3_v1_v7-_.mp3"
"","884.2499998863786","html-button-response","169","1214114","0.0-19.0-2.0","96534","","<p>Which tone was played second after the cadence?</p><p>Please respond as quickly and as accurately as possible!</p>","9","","2","new_stimuli/mp3/melody_^6_v5+_v4_^5+_v3_v1_v7-_.mp3"
"","1585.0050000008196","html-button-response","170","1215700","0.0-19.0-3.0","96534","","<p>Which tone was played third after the cadence?</p><p>Please respond as quickly and as accurately as possible!</p>","7","","3","new_stimuli/mp3/melody_^6_v5+_v4_^5+_v3_v1_v7-_.mp3"
"","1408.3300000056624","html-button-response","171","1217110","0.0-19.0-4.0","96534","","<p>Which tone was played fourth after the cadence?</p><p>Please respond as quickly and as accurately as possible!</p>","8","","4","new_stimuli/mp3/melody_^6_v5+_v4_^5+_v3_v1_v7-_.mp3"
"","744.0899999346584","html-button-response","172","1217856","0.0-19.0-5.0","96534","","<p>Which tone was played fifth after the cadence?</p><p>Please respond as quickly and as accurately as possible!</p>","7","","5","new_stimuli/mp3/melody_^6_v5+_v4_^5+_v3_v1_v7-_.mp3"
"","1801.1450001504272","html-button-response","173","1219658","0.0-19.0-6.0","96534","","<p>Which tone was played sixth after the cadence?</p><p>Please respond as quickly and as accurately as possible!</p>","3","","6","new_stimuli/mp3/melody_^6_v5+_v4_^5+_v3_v1_v7-_.mp3"
"","1092.5500001758337","html-button-response","174","1220752","0.0-19.0-7.0","96534","","<p>Which tone was played seventh after the cadence?</p><p>Please respond as quickly and as accurately as possible!</p>","2","","7","new_stimuli/mp3/melody_^6_v5+_v4_^5+_v3_v1_v7-_.mp3"
"","null","audio-keyboard-response","175","1232457","0.0-19.0-0.1","96534","","new_stimuli/mp3/melody_v1_^2_v1_v7_^1_^3_v2_.mp3","","null","",""
"","1698.304999852553","html-button-response","176","1234158","0.0-19.0-1.1","96534","","<p>Which tone was played first after the cadence?</p><p>Please respond as quickly and as accurately as possible!</p>","0","","1","new_stimuli/mp3/melody_v1_^2_v1_v7_^1_^3_v2_.mp3"
"","822.7550000883639","html-button-response","177","1234982","0.0-19.0-2.1","96534","","<p>Which tone was played second after the cadence?</p><p>Please respond as quickly and as accurately as possible!</p>","2","","2","new_stimuli/mp3/melody_v1_^2_v1_v7_^1_^3_v2_.mp3"
"","622.9449999518692","html-button-response","178","1235606","0.0-19.0-3.1","96534","","<p>Which tone was played third after the cadence?</p><p>Please respond as quickly and as accurately as possible!</p>","0","","3","new_stimuli/mp3/melody_v1_^2_v1_v7_^1_^3_v2_.mp3"
"","1382.505000103265","html-button-response","179","1236990","0.0-19.0-4.1","96534","","<p>Which tone was played fourth after the cadence?</p><p>Please respond as quickly and as accurately as possible!</p>","11","","4","new_stimuli/mp3/melody_v1_^2_v1_v7_^1_^3_v2_.mp3"
"","1170.3099999576807","html-button-response","180","1238162","0.0-19.0-5.1","96534","","<p>Which tone was played fifth after the cadence?</p><p>Please respond as quickly and as accurately as possible!</p>","0","","5","new_stimuli/mp3/melody_v1_^2_v1_v7_^1_^3_v2_.mp3"
"","2462.9500000737607","html-button-response","181","1240627","0.0-19.0-6.1","96534","","<p>Which tone was played sixth after the cadence?</p><p>Please respond as quickly and as accurately as possible!</p>","3","","6","new_stimuli/mp3/melody_v1_^2_v1_v7_^1_^3_v2_.mp3"
"","767.5050001125783","html-button-response","182","1241396","0.0-19.0-7.1","96534","","<p>Which tone was played seventh after the cadence?</p><p>Please respond as quickly and as accurately as possible!</p>","2","","7","new_stimuli/mp3/melody_v1_^2_v1_v7_^1_^3_v2_.mp3"
"","null","audio-keyboard-response","183","1252977","0.0-19.0-0.2","96534","","new_stimuli/mp3/melody_^5_^6_v5_v4_v3_v2_v1_buffer.mp3","","null","",""
"","1862.5499999616295","html-button-response","184","1254842","0.0-19.0-1.2","96534","","<p>Which tone was played first after the cadence?</p><p>Please respond as quickly and as accurately as possible!</p>","7","","1","new_stimuli/mp3/melody_^5_^6_v5_v4_v3_v2_v1_buffer.mp3"
"","476.56500013545156","html-button-response","185","1255320","0.0-19.0-2.2","96534","","<p>Which tone was played second after the cadence?</p><p>Please respond as quickly and as accurately as possible!</p>","9","","2","new_stimuli/mp3/melody_^5_^6_v5_v4_v3_v2_v1_buffer.mp3"
"","490.9749999642372","html-button-response","186","1255812","0.0-19.0-3.2","96534","","<p>Which tone was played third after the cadence?</p><p>Please respond as quickly and as accurately as possible!</p>","7","","3","new_stimuli/mp3/melody_^5_^6_v5_v4_v3_v2_v1_buffer.mp3"
"","652.7350000105798","html-button-response","187","1256466","0.0-19.0-4.2","96534","","<p>Which tone was played fourth after the cadence?</p><p>Please respond as quickly and as accurately as possible!</p>","5","","4","new_stimuli/mp3/melody_^5_^6_v5_v4_v3_v2_v1_buffer.mp3"
"","1054.5149999670684","html-button-response","188","1257522","0.0-19.0-5.2","96534","","<p>Which tone was played fifth after the cadence?</p><p>Please respond as quickly and as accurately as possible!</p>","4","","5","new_stimuli/mp3/melody_^5_^6_v5_v4_v3_v2_v1_buffer.mp3"
"","606.035000178963","html-button-response","189","1258130","0.0-19.0-6.2","96534","","<p>Which tone was played sixth after the cadence?</p><p>Please respond as quickly and as accurately as possible!</p>","2","","6","new_stimuli/mp3/melody_^5_^6_v5_v4_v3_v2_v1_buffer.mp3"
"","536.4050001371652","html-button-response","190","1258667","0.0-19.0-7.2","96534","","<p>Which tone was played seventh after the cadence?</p><p>Please respond as quickly and as accurately as possible!</p>","0","","7","new_stimuli/mp3/melody_^5_^6_v5_v4_v3_v2_v1_buffer.mp3"
"","null","audio-keyboard-response","191","1270637","0.0-19.0-0.3","96534","","new_stimuli/mp3/melody_1_^3_v1_^5_v3_v2_^3_.mp3","","null","",""
"","1466.1449999548495","html-button-response","192","1272106","0.0-19.0-1.3","96534","","<p>Which tone was played first after the cadence?</p><p>Please respond as quickly and as accurately as possible!</p>","0","","1","new_stimuli/mp3/melody_1_^3_v1_^5_v3_v2_^3_.mp3"
"","576.7449999693781","html-button-response","193","1272684","0.0-19.0-2.3","96534","","<p>Which tone was played second after the cadence?</p><p>Please respond as quickly and as accurately as possible!</p>","2","","2","new_stimuli/mp3/melody_1_^3_v1_^5_v3_v2_^3_.mp3"
"","712.919999845326","html-button-response","194","1273400","0.0-19.0-3.3","96534","","<p>Which tone was played third after the cadence?</p><p>Please respond as quickly and as accurately as possible!</p>","0","","3","new_stimuli/mp3/melody_1_^3_v1_^5_v3_v2_^3_.mp3"
"","1422.8399998974055","html-button-response","195","1274824","0.0-19.0-4.3","96534","","<p>Which tone was played fourth after the cadence?</p><p>Please respond as quickly and as accurately as possible!</p>","7","","4","new_stimuli/mp3/melody_1_^3_v1_^5_v3_v2_^3_.mp3"
"","1022.8549998719245","html-button-response","196","1275848","0.0-19.0-5.3","96534","","<p>Which tone was played fifth after the cadence?</p><p>Please respond as quickly and as accurately as possible!</p>","5","","5","new_stimuli/mp3/melody_1_^3_v1_^5_v3_v2_^3_.mp3"
"","1846.1549999192357","html-button-response","197","1277695","0.0-19.0-6.3","96534","","<p>Which tone was played sixth after the cadence?</p><p>Please respond as quickly and as accurately as possible!</p>","4","","6","new_stimuli/mp3/melody_1_^3_v1_^5_v3_v2_^3_.mp3"
"","960.7099997811019","html-button-response","198","1278658","0.0-19.0-7.3","96534","","<p>Which tone was played seventh after the cadence?</p><p>Please respond as quickly and as accurately as possible!</p>","0","","7","new_stimuli/mp3/melody_1_^3_v1_^5_v3_v2_^3_.mp3"
"","null","audio-keyboard-response","199","1290366","0.0-19.0-0.4","96534","","new_stimuli/mp3/melody_^4_^5_^6_v5_v4_v3_v2_.mp3","","null","",""
"","1426.8699998501688","html-button-response","200","1291796","0.0-19.0-1.4","96534","","<p>Which tone was played first after the cadence?</p><p>Please respond as quickly and as accurately as possible!</p>","5","","1","new_stimuli/mp3/melody_^4_^5_^6_v5_v4_v3_v2_.mp3"
"","661.9349999818951","html-button-response","201","1292459","0.0-19.0-2.4","96534","","<p>Which tone was played second after the cadence?</p><p>Please respond as quickly and as accurately as possible!</p>","7","","2","new_stimuli/mp3/melody_^4_^5_^6_v5_v4_v3_v2_.mp3"
"","681.7850000225008","html-button-response","202","1293144","0.0-19.0-3.4","96534","","<p>Which tone was played third after the cadence?</p><p>Please respond as quickly and as accurately as possible!</p>","9","","3","new_stimuli/mp3/melody_^4_^5_^6_v5_v4_v3_v2_.mp3"
"","601.0249999817461","html-button-response","203","1293746","0.0-19.0-4.4","96534","","<p>Which tone was played fourth after the cadence?</p><p>Please respond as quickly and as accurately as possible!</p>","7","","4","new_stimuli/mp3/melody_^4_^5_^6_v5_v4_v3_v2_.mp3"
"","689.8650000803173","html-button-response","204","1294438","0.0-19.0-5.4","96534","","<p>Which tone was played fifth after the cadence?</p><p>Please respond as quickly and as accurately as possible!</p>","5","","5","new_stimuli/mp3/melody_^4_^5_^6_v5_v4_v3_v2_.mp3"
"","753.3549999352545","html-button-response","205","1295192","0.0-19.0-6.4","96534","","<p>Which tone was played sixth after the cadence?</p><p>Please respond as quickly and as accurately as possible!</p>","4","","6","new_stimuli/mp3/melody_^4_^5_^6_v5_v4_v3_v2_.mp3"
"","922.2350001800805","html-button-response","206","1296116","0.0-19.0-7.4","96534","","<p>Which tone was played seventh after the cadence?</p><p>Please respond as quickly and as accurately as possible!</p>","2","","7","new_stimuli/mp3/melody_^4_^5_^6_v5_v4_v3_v2_.mp3"
"","null","audio-keyboard-response","207","1307796","0.0-19.0-0.5","96534","","new_stimuli/mp3/melody_^4_v6-_v5-_^6-_^4_v2-_2-_.mp3","","null","",""
"","1996.4049998670816","html-button-response","208","1309793","0.0-19.0-1.5","96534","","<p>Which tone was played first after the cadence?</p><p>Please respond as quickly and as accurately as possible!</p>","10","","1","new_stimuli/mp3/melody_^4_v6-_v5-_^6-_^4_v2-_2-_.mp3"
"","1109.8850001581013","html-button-response","209","1310904","0.0-19.0-2.5","96534","","<p>Which tone was played second after the cadence?</p><p>Please respond as quickly and as accurately as possible!</p>","7","","2","new_stimuli/mp3/melody_^4_v6-_v5-_^6-_^4_v2-_2-_.mp3"
"","874.0449999459088","html-button-response","210","1311780","0.0-19.0-3.5","96534","","<p>Which tone was played third after the cadence?</p><p>Please respond as quickly and as accurately as possible!</p>","5","","3","new_stimuli/mp3/melody_^4_v6-_v5-_^6-_^4_v2-_2-_.mp3"
"","915.5850000679493","html-button-response","211","1312698","0.0-19.0-4.5","96534","","<p>Which tone was played fourth after the cadence?</p><p>Please respond as quickly and as accurately as possible!</p>","4","","4","new_stimuli/mp3/melody_^4_v6-_v5-_^6-_^4_v2-_2-_.mp3"
"","1082.5300000142306","html-button-response","212","1313782","0.0-19.0-5.5","96534","","<p>Which tone was played fifth after the cadence?</p><p>Please respond as quickly and as accurately as possible!</p>","3","","5","new_stimuli/mp3/melody_^4_v6-_v5-_^6-_^4_v2-_2-_.mp3"
"","1061.519999988377","html-button-response","213","1314845","0.0-19.0-6.5","96534","","<p>Which tone was played sixth after the cadence?</p><p>Please respond as quickly and as accurately as possible!</p>","4","","6","new_stimuli/mp3/melody_^4_v6-_v5-_^6-_^4_v2-_2-_.mp3"
"","1307.1400001645088","html-button-response","214","1316154","0.0-19.0-7.5","96534","","<p>Which tone was played seventh after the cadence?</p><p>Please respond as quickly and as accurately as possible!</p>","6","","7","new_stimuli/mp3/melody_^4_v6-_v5-_^6-_^4_v2-_2-_.mp3"
"","null","audio-keyboard-response","215","1327856","0.0-19.0-0.6","96534","","new_stimuli/mp3/melody_^1_v7_v6_v5_v4_v3_v2_buffer.mp3","","null","",""
"","1336.1199998762459","html-button-response","216","1329194","0.0-19.0-1.6","96534","","<p>Which tone was played first after the cadence?</p><p>Please respond as quickly and as accurately as possible!</p>","12","","1","new_stimuli/mp3/melody_^1_v7_v6_v5_v4_v3_v2_buffer.mp3"
"","855.0299999769777","html-button-response","217","1330050","0.0-19.0-2.6","96534","","<p>Which tone was played second after the cadence?</p><p>Please respond as quickly and as accurately as possible!</p>","11","","2","new_stimuli/mp3/melody_^1_v7_v6_v5_v4_v3_v2_buffer.mp3"
"","951.7449999693781","html-button-response","218","1331003","0.0-19.0-3.6","96534","","<p>Which tone was played third after the cadence?</p><p>Please respond as quickly and as accurately as possible!</p>","9","","3","new_stimuli/mp3/melody_^1_v7_v6_v5_v4_v3_v2_buffer.mp3"
"","1123.765000142157","html-button-response","219","1332128","0.0-19.0-4.6","96534","","<p>Which tone was played fourth after the cadence?</p><p>Please respond as quickly and as accurately as possible!</p>","7","","4","new_stimuli/mp3/melody_^1_v7_v6_v5_v4_v3_v2_buffer.mp3"
"","762.140000006184","html-button-response","220","1332892","0.0-19.0-5.6","96534","","<p>Which tone was played fifth after the cadence?</p><p>Please respond as quickly and as accurately as possible!</p>","5","","5","new_stimuli/mp3/melody_^1_v7_v6_v5_v4_v3_v2_buffer.mp3"
"","444.34499996714294","html-button-response","221","1333337","0.0-19.0-6.6","96534","","<p>Which tone was played sixth after the cadence?</p><p>Please respond as quickly and as accurately as possible!</p>","4","","6","new_stimuli/mp3/melody_^1_v7_v6_v5_v4_v3_v2_buffer.mp3"
"","607.4749999679625","html-button-response","222","1333946","0.0-19.0-7.6","96534","","<p>Which tone was played seventh after the cadence?</p><p>Please respond as quickly and as accurately as possible!</p>","2","","7","new_stimuli/mp3/melody_^1_v7_v6_v5_v4_v3_v2_buffer.mp3"
"[{""page_index"":0,""viewing_time"":3024.6749999932945},{""page_index"":1,""viewing_time"":1194.0250000916421},{""page_index"":2,""viewing_time"":1139.9950000923127}]","5358.995000133291","instructions","223","1339305","0.0-20.0","96534","","","","","",""
"","null","audio-keyboard-response","224","1352246","0.0-21.0-0.0","96534","","new_stimuli/mp3/melody_^2_^4_v3_v2_v1_v3_v2+_^3_^5+_.mp3","","null","",""
"","1474.034999962896","html-button-response","225","1353723","0.0-21.0-1.0","96534","","<p>Which tone was played first after the cadence?</p><p>Please respond as quickly and as accurately as possible!</p>","0","","1","new_stimuli/mp3/melody_^2_^4_v3_v2_v1_v3_v2+_^3_^5+_.mp3"
"","939.2050001770258","html-button-response","226","1354664","0.0-21.0-2.0","96534","","<p>Which tone was played second after the cadence?</p><p>Please respond as quickly and as accurately as possible!</p>","4","","2","new_stimuli/mp3/melody_^2_^4_v3_v2_v1_v3_v2+_^3_^5+_.mp3"
"","652.3749998304993","html-button-response","227","1355318","0.0-21.0-3.0","96534","","<p>Which tone was played third after the cadence?</p><p>Please respond as quickly and as accurately as possible!</p>","2","","3","new_stimuli/mp3/melody_^2_^4_v3_v2_v1_v3_v2+_^3_^5+_.mp3"
"","606.7900001071393","html-button-response","228","1355926","0.0-21.0-4.0","96534","","<p>Which tone was played fourth after the cadence?</p><p>Please respond as quickly and as accurately as possible!</p>","0","","4","new_stimuli/mp3/melody_^2_^4_v3_v2_v1_v3_v2+_^3_^5+_.mp3"
"","883.4299999289215","html-button-response","229","1356811","0.0-21.0-5.0","96534","","<p>Which tone was played fifth after the cadence?</p><p>Please respond as quickly and as accurately as possible!</p>","11","","5","new_stimuli/mp3/melody_^2_^4_v3_v2_v1_v3_v2+_^3_^5+_.mp3"
"","1001.9600000232458","html-button-response","230","1357814","0.0-21.0-6.0","96534","","<p>Which tone was played sixth after the cadence?</p><p>Please respond as quickly and as accurately as possible!</p>","0","","6","new_stimuli/mp3/melody_^2_^4_v3_v2_v1_v3_v2+_^3_^5+_.mp3"
"","2038.8550001662225","html-button-response","231","1359854","0.0-21.0-7.0","96534","","<p>Which tone was played seventh after the cadence?</p><p>Please respond as quickly and as accurately as possible!</p>","6","","7","new_stimuli/mp3/melody_^2_^4_v3_v2_v1_v3_v2+_^3_^5+_.mp3"
"","477.28500002995133","html-button-response","232","1360332","0.0-21.0-8.0","96534","","<p>Which tone was played eight after the cadence?</p><p>Please respond as quickly and as accurately as possible!</p>","5","","8","new_stimuli/mp3/melody_^2_^4_v3_v2_v1_v3_v2+_^3_^5+_.mp3"
"","636.0450000502169","html-button-response","233","1360970","0.0-21.0-9.0","96534","","<p>Which tone was played nineth after the cadence?</p><p>Please respond as quickly and as accurately as possible!</p>","4","","9","new_stimuli/mp3/melody_^2_^4_v3_v2_v1_v3_v2+_^3_^5+_.mp3"
"","null","audio-keyboard-response","234","1373666","0.0-21.0-0.1","96534","","new_stimuli/mp3/melody_^2_^3_^4_^5_^6_v5_v4_v3_v2_buffer.mp3","","null","",""
"","1472.3600000143051","html-button-response","235","1375142","0.0-21.0-1.1","96534","","<p>Which tone was played first after the cadence?</p><p>Please respond as quickly and as accurately as possible!</p>","11","","1","new_stimuli/mp3/melody_^2_^3_^4_^5_^6_v5_v4_v3_v2_buffer.mp3"
"","3024.1699998732656","html-button-response","236","1378167","0.0-21.0-2.1","96534","","<p>Which tone was played second after the cadence?</p><p>Please respond as quickly and as accurately as possible!</p>","1","","2","new_stimuli/mp3/melody_^2_^3_^4_^5_^6_v5_v4_v3_v2_buffer.mp3"
"","893.4300001710653","html-button-response","237","1379062","0.0-21.0-3.1","96534","","<p>Which tone was played third after the cadence?</p><p>Please respond as quickly and as accurately as possible!</p>","4","","3","new_stimuli/mp3/melody_^2_^3_^4_^5_^6_v5_v4_v3_v2_buffer.mp3"
"","621.8850000295788","html-button-response","238","1379685","0.0-21.0-4.1","96534","","<p>Which tone was played fourth after the cadence?</p><p>Please respond as quickly and as accurately as possible!</p>","5","","4","new_stimuli/mp3/melody_^2_^3_^4_^5_^6_v5_v4_v3_v2_buffer.mp3"
"","491.64500017650425","html-button-response","239","1380178","0.0-21.0-5.1","96534","","<p>Which tone was played fifth after the cadence?</p><p>Please respond as quickly and as accurately as possible!</p>","4","","5","new_stimuli/mp3/melody_^2_^3_^4_^5_^6_v5_v4_v3_v2_buffer.mp3"
"","1168.3849999681115","html-button-response","240","1381348","0.0-21.0-6.1","96534","","<p>Which tone was played sixth after the cadence?</p><p>Please respond as quickly and as accurately as possible!</p>","0","","6","new_stimuli/mp3/melody_^2_^3_^4_^5_^6_v5_v4_v3_v2_buffer.mp3"
"","814.4950000569224","html-button-response","241","1382164","0.0-21.0-7.1","96534","","<p>Which tone was played seventh after the cadence?</p><p>Please respond as quickly and as accurately as possible!</p>","11","","7","new_stimuli/mp3/melody_^2_^3_^4_^5_^6_v5_v4_v3_v2_buffer.mp3"
"","1808.9250000193715","html-button-response","242","1383974","0.0-21.0-8.1","96534","","<p>Which tone was played eight after the cadence?</p><p>Please respond as quickly and as accurately as possible!</p>","9","","8","new_stimuli/mp3/melody_^2_^3_^4_^5_^6_v5_v4_v3_v2_buffer.mp3"
"","1154.134999960661","html-button-response","243","1385130","0.0-21.0-9.1","96534","","<p>Which tone was played nineth after the cadence?</p><p>Please respond as quickly and as accurately as possible!</p>","7","","9","new_stimuli/mp3/melody_^2_^3_^4_^5_^6_v5_v4_v3_v2_buffer.mp3"
"","null","audio-keyboard-response","244","1398087","0.0-21.0-0.2","96534","","new_stimuli/mp3/melody_^5_^6_v5_v4_v3_v2_v1_^2_^3_buffer.mp3","","null","",""
"","1771.2950001005083","html-button-response","245","1399861","0.0-21.0-1.2","96534","","<p>Which tone was played first after the cadence?</p><p>Please respond as quickly and as accurately as possible!</p>","7","","1","new_stimuli/mp3/melody_^5_^6_v5_v4_v3_v2_v1_^2_^3_buffer.mp3"
"","745.7349998876452","html-button-response","246","1400608","0.0-21.0-2.2","96534","","<p>Which tone was played second after the cadence?</p><p>Please respond as quickly and as accurately as possible!</p>","9","","2","new_stimuli/mp3/melody_^5_^6_v5_v4_v3_v2_v1_^2_^3_buffer.mp3"
"","576.2399998493493","html-button-response","247","1401185","0.0-21.0-3.2","96534","","<p>Which tone was played third after the cadence?</p><p>Please respond as quickly and as accurately as possible!</p>","7","","3","new_stimuli/mp3/melody_^5_^6_v5_v4_v3_v2_v1_^2_^3_buffer.mp3"
"","654.575000051409","html-button-response","248","1401856","0.0-21.0-4.2","96534","","<p>Which tone was played fourth after the cadence?</p><p>Please respond as quickly and as accurately as possible!</p>","5","","4","new_stimuli/mp3/melody_^5_^6_v5_v4_v3_v2_v1_^2_^3_buffer.mp3"
"","538.4349999949336","html-button-response","249","1402396","0.0-21.0-5.2","96534","","<p>Which tone was played fifth after the cadence?</p><p>Please respond as quickly and as accurately as possible!</p>","4","","5","new_stimuli/mp3/melody_^5_^6_v5_v4_v3_v2_v1_^2_^3_buffer.mp3"
"","736.670000012964","html-button-response","250","1403134","0.0-21.0-6.2","96534","","<p>Which tone was played sixth after the cadence?</p><p>Please respond as quickly and as accurately as possible!</p>","2","","6","new_stimuli/mp3/melody_^5_^6_v5_v4_v3_v2_v1_^2_^3_buffer.mp3"
"","2477.3000001441687","html-button-response","251","1405613","0.0-21.0-7.2","96534","","<p>Which tone was played seventh after the cadence?</p><p>Please respond as quickly and as accurately as possible!</p>","4","","7","new_stimuli/mp3/melody_^5_^6_v5_v4_v3_v2_v1_^2_^3_buffer.mp3"
"","1246.589999878779","html-button-response","252","1406862","0.0-21.0-8.2","96534","","<p>Which tone was played eight after the cadence?</p><p>Please respond as quickly and as accurately as possible!</p>","2","","8","new_stimuli/mp3/melody_^5_^6_v5_v4_v3_v2_v1_^2_^3_buffer.mp3"
"","1114.2750000581145","html-button-response","253","1407977","0.0-21.0-9.2","96534","","<p>Which tone was played nineth after the cadence?</p><p>Please respond as quickly and as accurately as possible!</p>","0","","9","new_stimuli/mp3/melody_^5_^6_v5_v4_v3_v2_v1_^2_^3_buffer.mp3"
"","null","audio-keyboard-response","254","1420546","0.0-21.0-0.3","96534","","new_stimuli/mp3/melody_^3_^4_^5 _^6_v5_v4_v3_v2_v1_.mp3","","null","",""
"","1529.839999973774","html-button-response","255","1422079","0.0-21.0-1.3","96534","","<p>Which tone was played first after the cadence?</p><p>Please respond as quickly and as accurately as possible!</p>","5","","1","new_stimuli/mp3/melody_^3_^4_^5 _^6_v5_v4_v3_v2_v1_.mp3"
"","600.6200001575053","html-button-response","256","1422681","0.0-21.0-2.3","96534","","<p>Which tone was played second after the cadence?</p><p>Please respond as quickly and as accurately as possible!</p>","7","","2","new_stimuli/mp3/melody_^3_^4_^5 _^6_v5_v4_v3_v2_v1_.mp3"
"","661.4150002133101","html-button-response","257","1423344","0.0-21.0-3.3","96534","","<p>Which tone was played third after the cadence?</p><p>Please respond as quickly and as accurately as possible!</p>","9","","3","new_stimuli/mp3/melody_^3_^4_^5 _^6_v5_v4_v3_v2_v1_.mp3"
"","705.5199998430908","html-button-response","258","1424051","0.0-21.0-4.3","96534","","<p>Which tone was played fourth after the cadence?</p><p>Please respond as quickly and as accurately as possible!</p>","7","","4","new_stimuli/mp3/melody_^3_^4_^5 _^6_v5_v4_v3_v2_v1_.mp3"
"","639.6850000601262","html-button-response","259","1424692","0.0-21.0-5.3","96534","","<p>Which tone was played fifth after the cadence?</p><p>Please respond as quickly and as accurately as possible!</p>","5","","5","new_stimuli/mp3/melody_^3_^4_^5 _^6_v5_v4_v3_v2_v1_.mp3"
"","2985.1899999193847","html-button-response","260","1427688","0.0-21.0-6.3","96534","","<p>Which tone was played sixth after the cadence?</p><p>Please respond as quickly and as accurately as possible!</p>","2","","6","new_stimuli/mp3/melody_^3_^4_^5 _^6_v5_v4_v3_v2_v1_.mp3"
"","1321.989999851212","html-button-response","261","1429011","0.0-21.0-7.3","96534","","<p>Which tone was played seventh after the cadence?</p><p>Please respond as quickly and as accurately as possible!</p>","4","","7","new_stimuli/mp3/melody_^3_^4_^5 _^6_v5_v4_v3_v2_v1_.mp3"
"","1160.7599998824298","html-button-response","262","1430173","0.0-21.0-8.3","96534","","<p>Which tone was played eight after the cadence?</p><p>Please respond as quickly and as accurately as possible!</p>","2","","8","new_stimuli/mp3/melody_^3_^4_^5 _^6_v5_v4_v3_v2_v1_.mp3"
"","946.5799999888986","html-button-response","263","1431121","0.0-21.0-9.3","96534","","<p>Which tone was played nineth after the cadence?</p><p>Please respond as quickly and as accurately as possible!</p>","0","","9","new_stimuli/mp3/melody_^3_^4_^5 _^6_v5_v4_v3_v2_v1_.mp3"
"","null","audio-keyboard-response","264","1443766","0.0-21.0-0.4","96534","","new_stimuli/mp3/melody_v5_v4_v6+_^7_^3+_v3_v2_v5_^4_.mp3","","null","",""
"","4871.964999940246","html-button-response","265","1448641","0.0-21.0-1.4","96534","","<p>Which tone was played first after the cadence?</p><p>Please respond as quickly and as accurately as possible!</p>","2","","1","new_stimuli/mp3/melody_v5_v4_v6+_^7_^3+_v3_v2_v5_^4_.mp3"
"","1322.23999989219","html-button-response","266","1449966","0.0-21.0-2.4","96534","","<p>Which tone was played second after the cadence?</p><p>Please respond as quickly and as accurately as possible!</p>","4","","2","new_stimuli/mp3/melody_v5_v4_v6+_^7_^3+_v3_v2_v5_^4_.mp3"
"","1754.4700000435114","html-button-response","267","1451722","0.0-21.0-3.4","96534","","<p>Which tone was played third after the cadence?</p><p>Please respond as quickly and as accurately as possible!</p>","10","","3","new_stimuli/mp3/melody_v5_v4_v6+_^7_^3+_v3_v2_v5_^4_.mp3"
"","1662.3949999921024","html-button-response","268","1453385","0.0-21.0-4.4","96534","","<p>Which tone was played fourth after the cadence?</p><p>Please respond as quickly and as accurately as possible!</p>","1","","4","new_stimuli/mp3/melody_v5_v4_v6+_^7_^3+_v3_v2_v5_^4_.mp3"
"","1076.8549998756498","html-button-response","269","1454464","0.0-21.0-5.4","96534","","<p>Which tone was played fifth after the cadence?</p><p>Please respond as quickly and as accurately as possible!</p>","2","","5","new_stimuli/mp3/melody_v5_v4_v6+_^7_^3+_v3_v2_v5_^4_.mp3"
"","938.3600000292063","html-button-response","270","1455403","0.0-21.0-6.4","96534","","<p>Which tone was played sixth after the cadence?</p><p>Please respond as quickly and as accurately as possible!</p>","3","","6","new_stimuli/mp3/melody_v5_v4_v6+_^7_^3+_v3_v2_v5_^4_.mp3"
"","768.6449999455363","html-button-response","271","1456173","0.0-21.0-7.4","96534","","<p>Which tone was played seventh after the cadence?</p><p>Please respond as quickly and as accurately as possible!</p>","0","","7","new_stimuli/mp3/melody_v5_v4_v6+_^7_^3+_v3_v2_v5_^4_.mp3"
"","1214.7600001189858","html-button-response","272","1457390","0.0-21.0-8.4","96534","","<p>Which tone was played eight after the cadence?</p><p>Please respond as quickly and as accurately as possible!</p>","5","","8","new_stimuli/mp3/melody_v5_v4_v6+_^7_^3+_v3_v2_v5_^4_.mp3"
"","622.440000064671","html-button-response","273","1458013","0.0-21.0-9.4","96534","","<p>Which tone was played nineth after the cadence?</p><p>Please respond as quickly and as accurately as possible!</p>","4","","9","new_stimuli/mp3/melody_v5_v4_v6+_^7_^3+_v3_v2_v5_^4_.mp3"
"","null","audio-keyboard-response","274","1470657","0.0-21.0-0.5","96534","","new_stimuli/mp3/melody_v7_v6_v5_^6_v5_v4_^5_^6_v5_.mp3","","null","",""
"","1225.719999987632","html-button-response","275","1471886","0.0-21.0-1.5","96534","","<p>Which tone was played first after the cadence?</p><p>Please respond as quickly and as accurately as possible!</p>","11","","1","new_stimuli/mp3/melody_v7_v6_v5_^6_v5_v4_^5_^6_v5_.mp3"
"","560.3000000119209","html-button-response","276","1472448","0.0-21.0-2.5","96534","","<p>Which tone was played second after the cadence?</p><p>Please respond as quickly and as accurately as possible!</p>","12","","2","new_stimuli/mp3/melody_v7_v6_v5_^6_v5_v4_^5_^6_v5_.mp3"
"","598.9400001708418","html-button-response","277","1473048","0.0-21.0-3.5","96534","","<p>Which tone was played third after the cadence?</p><p>Please respond as quickly and as accurately as possible!</p>","11","","3","new_stimuli/mp3/melody_v7_v6_v5_^6_v5_v4_^5_^6_v5_.mp3"
"","608.3800001069903","html-button-response","278","1473658","0.0-21.0-4.5","96534","","<p>Which tone was played fourth after the cadence?</p><p>Please respond as quickly and as accurately as possible!</p>","9","","4","new_stimuli/mp3/melody_v7_v6_v5_^6_v5_v4_^5_^6_v5_.mp3"
"","1314.4849999807775","html-button-response","279","1474974","0.0-21.0-5.5","96534","","<p>Which tone was played fifth after the cadence?</p><p>Please respond as quickly and as accurately as possible!</p>","7","","5","new_stimuli/mp3/melody_v7_v6_v5_^6_v5_v4_^5_^6_v5_.mp3"
"","676.4950000215322","html-button-response","280","1475652","0.0-21.0-6.5","96534","","<p>Which tone was played sixth after the cadence?</p><p>Please respond as quickly and as accurately as possible!</p>","9","","6","new_stimuli/mp3/melody_v7_v6_v5_^6_v5_v4_^5_^6_v5_.mp3"
"","1153.0549998860806","html-button-response","281","1476807","0.0-21.0-7.5","96534","","<p>Which tone was played seventh after the cadence?</p><p>Please respond as quickly and as accurately as possible!</p>","11","","7","new_stimuli/mp3/melody_v7_v6_v5_^6_v5_v4_^5_^6_v5_.mp3"
"","661.2650000024587","html-button-response","282","1477470","0.0-21.0-8.5","96534","","<p>Which tone was played eight after the cadence?</p><p>Please respond as quickly and as accurately as possible!</p>","9","","8","new_stimuli/mp3/melody_v7_v6_v5_^6_v5_v4_^5_^6_v5_.mp3"
"","731.2000000383705","html-button-response","283","1478202","0.0-21.0-9.5","96534","","<p>Which tone was played nineth after the cadence?</p><p>Please respond as quickly and as accurately as possible!</p>","11","","9","new_stimuli/mp3/melody_v7_v6_v5_^6_v5_v4_^5_^6_v5_.mp3"
"","null","audio-keyboard-response","284","1490847","0.0-21.0-0.6","96534","","new_stimuli/mp3/melody_^3_^4_v2_v7_^1_^2_^3_3_^4_.mp3","","null","",""
"","2064.3199998885393","html-button-response","285","1492914","0.0-21.0-1.6","96534","","<p>Which tone was played first after the cadence?</p><p>Please respond as quickly and as accurately as possible!</p>","5","","1","new_stimuli/mp3/melody_^3_^4_v2_v7_^1_^2_^3_3_^4_.mp3"
"","784.4850001856685","html-button-response","286","1493700","0.0-21.0-2.6","96534","","<p>Which tone was played second after the cadence?</p><p>Please respond as quickly and as accurately as possible!</p>","7","","2","new_stimuli/mp3/melody_^3_^4_v2_v7_^1_^2_^3_3_^4_.mp3"
"","744.5149999111891","html-button-response","287","1494446","0.0-21.0-3.6","96534","","<p>Which tone was played third after the cadence?</p><p>Please respond as quickly and as accurately as possible!</p>","5","","3","new_stimuli/mp3/melody_^3_^4_v2_v7_^1_^2_^3_3_^4_.mp3"
"","2940.754999872297","html-button-response","288","1497388","0.0-21.0-4.6","96534","","<p>Which tone was played fourth after the cadence?</p><p>Please respond as quickly and as accurately as possible!</p>","0","","4","new_stimuli/mp3/melody_^3_^4_v2_v7_^1_^2_^3_3_^4_.mp3"
"","1530.6500000879169","html-button-response","289","1498920","0.0-21.0-5.6","96534","","<p>Which tone was played fifth after the cadence?</p><p>Please respond as quickly and as accurately as possible!</p>","2","","5","new_stimuli/mp3/melody_^3_^4_v2_v7_^1_^2_^3_3_^4_.mp3"
"","598.1600000523031","html-button-response","290","1499520","0.0-21.0-6.6","96534","","<p>Which tone was played sixth after the cadence?</p><p>Please respond as quickly and as accurately as possible!</p>","4","","6","new_stimuli/mp3/melody_^3_^4_v2_v7_^1_^2_^3_3_^4_.mp3"
"","1885.8199999667704","html-button-response","291","1501407","0.0-21.0-7.6","96534","","<p>Which tone was played seventh after the cadence?</p><p>Please respond as quickly and as accurately as possible!</p>","2","","7","new_stimuli/mp3/melody_^3_^4_v2_v7_^1_^2_^3_3_^4_.mp3"
"","2455.8149999938905","html-button-response","292","1503864","0.0-21.0-8.6","96534","","<p>Which tone was played eight after the cadence?</p><p>Please respond as quickly and as accurately as possible!</p>","0","","8","new_stimuli/mp3/melody_^3_^4_v2_v7_^1_^2_^3_3_^4_.mp3"
"","1177.0899998955429","html-button-response","293","1505042","0.0-21.0-9.6","96534","","<p>Which tone was played nineth after the cadence?</p><p>Please respond as quickly and as accurately as possible!</p>","0","","9","new_stimuli/mp3/melody_^3_^4_v2_v7_^1_^2_^3_3_^4_.mp3"
"","194880.8550001122","survey-text","294","1699923","0.0-22.0","96534","{""Q0"":""Humming do throughout cadence, then compared do to new note. In tasks with more than one note, established first note then sang melody. Also envisioned notes being played on piano or displayed on staff. Tried to remember how perfect 4th and 5th sound. Definitely had trouble with chromatics (ra, me, fi, le, te) and found it easier to recognize them when played after a non chromatic tone.""}","","","","",""
"","71357.15500009246","survey-text","295","1771282","0.0-23.0","96534","{""Q0"":""It seemed straightforward and easy to follow directions. I wish I was more practiced at my aural skills for this experiment, especially the chromatics. I would love to see what the results are and what conclusions are drawn!""}","","","","",""
"","63892.46500004083","survey-text","296","1835175","0.0-24.0","96534","{""Q0"":""I did not use an external reference. I tried to keep do in my head and imagine the interval on a piano or staff. I also imagined the solfege signs as well.""}","","","","",""
"","4618.1099999230355","survey-text","297","1839794","0.0-25.0","96534","{""Q0"":""Headphones""}","","","","",""
"","3758.335000136867","survey-text","298","1843553","0.0-26.0","96534","{""Q0"":""Female""}","","","","",""
"","3479.6949999872595","survey-text","299","1847034","0.0-27.0","96534","{""Q0"":""Yes""}","","","","",""
"[{""page_index"":0,""viewing_time"":38924.23000000417}]","38924.53499999829","instructions","300","1885959","0.0-28.0","96534","","","","","",""
