"view_history","rt","trial_type","trial_index","time_elapsed","internal_node_id","subject","responses","stimulus","button_pressed","key_press","response_sequence","melody"
"[{""page_index"":0,""viewing_time"":6180.584999965504},{""page_index"":1,""viewing_time"":16305.61999999918},{""page_index"":2,""viewing_time"":7593.815000029281}]","30080.770000000484","instructions","0","30104","0.0-0.0","98183","","","","","",""
"","4168.385000026319","survey-text","1","34276","0.0-1.0","98183","{""Q0"":""27""}","","","","",""
"","12789.72000000067","survey-text","2","47067","0.0-2.0","98183","{""Q0"":""PhD Student""}","","","","",""
"","24141.24999998603","survey-text","3","71209","0.0-3.0","98183","{""Q0"":""Moveable-Do or Scale Degree Numbers""}","","","","",""
"","3925.3000000026077","survey-text","4","75135","0.0-4.0","98183","{""Q0"":""Yes""}","","","","",""
"","42004.859999986365","survey-text","5","117142","0.0-5.0","98183","{""Q0"":""60""}","","","","",""
"","30127.359999984037","survey-text","6","147271","0.0-6.0","98183","{""Q0"":""2""}","","","","",""
"[{""page_index"":0,""viewing_time"":6096.244999964256},{""page_index"":1,""viewing_time"":15702.32500002021},{""page_index"":2,""viewing_time"":1856.0099999886006}]","23654.964999994263","instructions","7","170926","0.0-7.0","98183","","","","","",""
"","9674.14000001736","audio-button-response","8","180604","0.0-8.0","98183","","stimuli/long/c-do.mp3","0","","",""
"","8437.494999961928","audio-button-response","9","189043","0.0-9.0","98183","","stimuli/long/a-le.mp3","8","","",""
"[{""page_index"":0,""viewing_time"":1519.9349999893457},{""page_index"":1,""viewing_time"":4595.354999997653}]","6115.560000005644","instructions","10","195159","0.0-10.0","98183","","","","","",""
"","8997.054999985266","audio-button-response","11","204159","0.0-11.0-0.0","98183","","stimuli/long/e-le.mp3","8","","",""
"","8954.744999995455","audio-button-response","12","213116","0.0-11.0-0.1","98183","","stimuli/long/a-te.mp3","10","","",""
"","8538.74500002712","audio-button-response","13","221658","0.0-11.0-0.2","98183","","stimuli/long/c-fi.mp3","6","","",""
"","8855.270000000019","audio-button-response","14","230515","0.0-11.0-0.3","98183","","stimuli/long/a-me.mp3","3","","",""
"","8275.865000032354","audio-button-response","15","238794","0.0-11.0-0.4","98183","","stimuli/long/c-ti.mp3","11","","",""
"","8558.400000038091","audio-button-response","16","247355","0.0-11.0-0.5","98183","","stimuli/long/a-le.mp3","8","","",""
"","8427.93999996502","audio-button-response","17","255785","0.0-11.0-0.6","98183","","stimuli/long/e-do.mp3","0","","",""
"","8499.87499997951","audio-button-response","18","264287","0.0-11.0-0.7","98183","","stimuli/long/c-do.mp3","0","","",""
"","8641.980000014883","audio-button-response","19","272930","0.0-11.0-0.8","98183","","stimuli/long/c-fa.mp3","5","","",""
"","8762.864999996964","audio-button-response","20","281696","0.0-11.0-0.9","98183","","stimuli/long/e-mi.mp3","4","","",""
"","9026.079999981448","audio-button-response","21","290724","0.0-11.0-0.10","98183","","stimuli/long/c-ra.mp3","1","","",""
"","10682.230000034906","audio-button-response","22","301408","0.0-11.0-0.11","98183","","stimuli/long/a-sol.mp3","7","","",""
"","8700.494999997318","audio-button-response","23","310113","0.0-11.0-0.12","98183","","stimuli/long/e-te.mp3","10","","",""
"","13411.00500000175","audio-button-response","24","323526","0.0-11.0-0.13","98183","","stimuli/long/e-fi.mp3","6","","",""
"","20.115000021178275","audio-button-response","25","323549","0.0-11.0-0.14","98183","","stimuli/long/a-re.mp3","6","","",""
"","11195.340000034776","audio-button-response","26","334746","0.0-11.0-0.15","98183","","stimuli/long/a-la.mp3","9","","",""
"","10293.724999995902","audio-button-response","27","345043","0.0-11.0-0.16","98183","","stimuli/long/e-ra.mp3","1","","",""
"","8967.390000005253","audio-button-response","28","354012","0.0-11.0-0.17","98183","","stimuli/long/c-la.mp3","9","","",""
"","8460.285000037402","audio-button-response","29","362474","0.0-11.0-0.18","98183","","stimuli/long/a-ti.mp3","11","","",""
"","7729.745000018738","audio-button-response","30","370205","0.0-11.0-0.19","98183","","stimuli/long/c-do8.mp3","12","","",""
"","8125.390000001062","audio-button-response","31","378332","0.0-11.0-0.20","98183","","stimuli/long/a-do.mp3","0","","",""
"","8297.199999971781","audio-button-response","32","386631","0.0-11.0-0.21","98183","","stimuli/long/e-la.mp3","9","","",""
"","9322.034999961033","audio-button-response","33","395956","0.0-11.0-0.22","98183","","stimuli/long/c-re.mp3","2","","",""
"","7587.23500004271","audio-button-response","34","403545","0.0-11.0-0.23","98183","","stimuli/long/e-ti.mp3","11","","",""
"","9382.534999982454","audio-button-response","35","412930","0.0-11.0-0.24","98183","","stimuli/long/c-sol.mp3","7","","",""
"","8450.944999989588","audio-button-response","36","421383","0.0-11.0-0.25","98183","","stimuli/long/e-sol.mp3","7","","",""
"","8186.640000029001","audio-button-response","37","429571","0.0-11.0-0.26","98183","","stimuli/long/c-mi.mp3","4","","",""
"","9595.960000006016","audio-button-response","38","439168","0.0-11.0-0.27","98183","","stimuli/long/a-fi.mp3","6","","",""
"","10256.649999995716","audio-button-response","39","449426","0.0-11.0-0.28","98183","","stimuli/long/c-me.mp3","3","","",""
"","9199.3449999718","audio-button-response","40","458630","0.0-11.0-0.29","98183","","stimuli/long/a-mi.mp3","4","","",""
"","10398.724999977276","audio-button-response","41","469030","0.0-11.0-0.30","98183","","stimuli/long/c-le.mp3","8","","",""
"","8995.820000011008","audio-button-response","42","478028","0.0-11.0-0.31","98183","","stimuli/long/a-do8.mp3","0","","",""
"","8570.29500004137","audio-button-response","43","486600","0.0-11.0-0.32","98183","","stimuli/long/e-me.mp3","3","","",""
"","9056.145000038669","audio-button-response","44","495660","0.0-11.0-0.33","98183","","stimuli/long/a-fa.mp3","5","","",""
"","8560.170000011567","audio-button-response","45","504223","0.0-11.0-0.34","98183","","stimuli/long/a-ra.mp3","1","","",""
"","8206.499999971129","audio-button-response","46","512431","0.0-11.0-0.35","98183","","stimuli/long/e-re.mp3","2","","",""
"","7941.775000013877","audio-button-response","47","520374","0.0-11.0-0.36","98183","","stimuli/long/e-fa.mp3","5","","",""
"","7810.2250000229105","audio-button-response","48","528186","0.0-11.0-0.37","98183","","stimuli/long/e-do8.mp3","12","","",""
"[{""page_index"":0,""viewing_time"":16555.67999999039},{""page_index"":1,""viewing_time"":2750.0099999597296}]","19305.999999982305","instructions","49","547493","0.0-12.0","98183","","","","","",""
"","null","audio-keyboard-response","50","556658","0.0-13.0-0.0","98183","","new_stimuli/mp3/melody_^2_v7-_.mp3","","null","",""
"","1943.154999986291","html-button-response","51","558603","0.0-13.0-1.0","98183","","<p>Which tone was played first after the cadence?</p><p>Please respond as quickly and as accurately as possible!</p>","2","","1","new_stimuli/mp3/melody_^2_v7-_.mp3"
"","2178.0150000122376","html-button-response","52","560783","0.0-13.0-2.0","98183","","<p>Which tone was played second after the cadence?</p><p>Please respond as quickly and as accurately as possible!</p>","10","","2","new_stimuli/mp3/melody_^2_v7-_.mp3"
"","null","audio-keyboard-response","53","569797","0.0-13.0-0.1","98183","","new_stimuli/mp3/melody_^1_^2+_.mp3","","null","",""
"","1724.724999978207","html-button-response","54","571525","0.0-13.0-1.1","98183","","<p>Which tone was played first after the cadence?</p><p>Please respond as quickly and as accurately as possible!</p>","0","","1","new_stimuli/mp3/melody_^1_^2+_.mp3"
"","1053.8149999920279","html-button-response","55","572580","0.0-13.0-2.1","98183","","<p>Which tone was played second after the cadence?</p><p>Please respond as quickly and as accurately as possible!</p>","3","","2","new_stimuli/mp3/melody_^1_^2+_.mp3"
"","null","audio-keyboard-response","56","581648","0.0-13.0-0.2","98183","","new_stimuli/mp3/melody_v2_v1_.mp3","","null","",""
"","1177.2599999676459","html-button-response","57","582827","0.0-13.0-1.2","98183","","<p>Which tone was played first after the cadence?</p><p>Please respond as quickly and as accurately as possible!</p>","2","","1","new_stimuli/mp3/melody_v2_v1_.mp3"
"","1093.9800000051036","html-button-response","58","583922","0.0-13.0-2.2","98183","","<p>Which tone was played second after the cadence?</p><p>Please respond as quickly and as accurately as possible!</p>","0","","2","new_stimuli/mp3/melody_v2_v1_.mp3"
"","null","audio-keyboard-response","59","593088","0.0-13.0-0.3","98183","","new_stimuli/mp3/melody_^5_^1+_.mp3","","null","",""
"","2194.6899999747984","html-button-response","60","595284","0.0-13.0-1.3","98183","","<p>Which tone was played first after the cadence?</p><p>Please respond as quickly and as accurately as possible!</p>","7","","1","new_stimuli/mp3/melody_^5_^1+_.mp3"
"","1307.3399999993853","html-button-response","61","596592","0.0-13.0-2.3","98183","","<p>Which tone was played second after the cadence?</p><p>Please respond as quickly and as accurately as possible!</p>","1","","2","new_stimuli/mp3/melody_^5_^1+_.mp3"
"","null","audio-keyboard-response","62","605758","0.0-13.0-0.4","98183","","new_stimuli/mp3/melody_v5_v1+_.mp3","","null","",""
"","1920.8399999770336","html-button-response","63","607681","0.0-13.0-1.4","98183","","<p>Which tone was played first after the cadence?</p><p>Please respond as quickly and as accurately as possible!</p>","7","","1","new_stimuli/mp3/melody_v5_v1+_.mp3"
"","962.5499999965541","html-button-response","64","608644","0.0-13.0-2.4","98183","","<p>Which tone was played second after the cadence?</p><p>Please respond as quickly and as accurately as possible!</p>","1","","2","new_stimuli/mp3/melody_v5_v1+_.mp3"
"","null","audio-keyboard-response","65","618098","0.0-13.0-0.5","98183","","new_stimuli/mp3/melody_^3_v4+_buffer.mp3","","null","",""
"","1857.6349999639206","html-button-response","66","619957","0.0-13.0-1.5","98183","","<p>Which tone was played first after the cadence?</p><p>Please respond as quickly and as accurately as possible!</p>","4","","1","new_stimuli/mp3/melody_^3_v4+_buffer.mp3"
"","1246.7199999955483","html-button-response","67","621205","0.0-13.0-2.5","98183","","<p>Which tone was played second after the cadence?</p><p>Please respond as quickly and as accurately as possible!</p>","6","","2","new_stimuli/mp3/melody_^3_v4+_buffer.mp3"
"","null","audio-keyboard-response","68","630658","0.0-13.0-0.6","98183","","new_stimuli/mp3/melody_v7_v3_buffer.mp3","","null","",""
"","1502.4549999507144","html-button-response","69","632162","0.0-13.0-1.6","98183","","<p>Which tone was played first after the cadence?</p><p>Please respond as quickly and as accurately as possible!</p>","11","","1","new_stimuli/mp3/melody_v7_v3_buffer.mp3"
"","1144.9399999692105","html-button-response","70","633308","0.0-13.0-2.6","98183","","<p>Which tone was played second after the cadence?</p><p>Please respond as quickly and as accurately as possible!</p>","4","","2","new_stimuli/mp3/melody_v7_v3_buffer.mp3"
"","null","audio-keyboard-response","71","642748","0.0-13.0-0.7","98183","","new_stimuli/mp3/melody_v4_v3_buffer.mp3","","null","",""
"","1606.2249999959022","html-button-response","72","644358","0.0-13.0-1.7","98183","","<p>Which tone was played first after the cadence?</p><p>Please respond as quickly and as accurately as possible!</p>","5","","1","new_stimuli/mp3/melody_v4_v3_buffer.mp3"
"","909.6649999846704","html-button-response","73","645269","0.0-13.0-2.7","98183","","<p>Which tone was played second after the cadence?</p><p>Please respond as quickly and as accurately as possible!</p>","4","","2","new_stimuli/mp3/melody_v4_v3_buffer.mp3"
"","null","audio-keyboard-response","74","654471","0.0-13.0-0.8","98183","","new_stimuli/mp3/melody_v3_v2_buffer.mp3","","null","",""
"","1528.7300000200048","html-button-response","75","656002","0.0-13.0-1.8","98183","","<p>Which tone was played first after the cadence?</p><p>Please respond as quickly and as accurately as possible!</p>","4","","1","new_stimuli/mp3/melody_v3_v2_buffer.mp3"
"","1093.7850000336766","html-button-response","76","657097","0.0-13.0-2.8","98183","","<p>Which tone was played second after the cadence?</p><p>Please respond as quickly and as accurately as possible!</p>","2","","2","new_stimuli/mp3/melody_v3_v2_buffer.mp3"
"","null","audio-keyboard-response","77","666388","0.0-13.0-0.9","98183","","new_stimuli/mp3/melody_3_^6_buffer.mp3","","null","",""
"","1419.9449999723583","html-button-response","78","667809","0.0-13.0-1.9","98183","","<p>Which tone was played first after the cadence?</p><p>Please respond as quickly and as accurately as possible!</p>","4","","1","new_stimuli/mp3/melody_3_^6_buffer.mp3"
"","1356.8199999863282","html-button-response","79","669169","0.0-13.0-2.9","98183","","<p>Which tone was played second after the cadence?</p><p>Please respond as quickly and as accurately as possible!</p>","9","","2","new_stimuli/mp3/melody_3_^6_buffer.mp3"
"[{""page_index"":0,""viewing_time"":4381.345000001602},{""page_index"":1,""viewing_time"":2647.6699999766424},{""page_index"":2,""viewing_time"":1156.8499999702908}]","8186.164999962784","instructions","80","677355","0.0-14.0","98183","","","","","",""
"","null","audio-keyboard-response","81","686918","0.0-15.0-0.0","98183","","new_stimuli/mp3/melody_v1_v7-_^7_.mp3","","null","",""
"","1551.8000000156462","html-button-response","82","688473","0.0-15.0-1.0","98183","","<p>Which tone was played first after the cadence?</p><p>Please respond as quickly and as accurately as possible!</p>","12","","1","new_stimuli/mp3/melody_v1_v7-_^7_.mp3"
"","1610.9050000086427","html-button-response","83","690085","0.0-15.0-2.0","98183","","<p>Which tone was played second after the cadence?</p><p>Please respond as quickly and as accurately as possible!</p>","10","","2","new_stimuli/mp3/melody_v1_v7-_^7_.mp3"
"","820.3750000102445","html-button-response","84","690907","0.0-15.0-3.0","98183","","<p>Which tone was played third after the cadence?</p><p>Please respond as quickly and as accurately as possible!</p>","11","","3","new_stimuli/mp3/melody_v1_v7-_^7_.mp3"
"","null","audio-keyboard-response","85","700468","0.0-15.0-0.1","98183","","new_stimuli/mp3/melody_v3_v2_v1_.mp3","","null","",""
"","1848.885000043083","html-button-response","86","702318","0.0-15.0-1.1","98183","","<p>Which tone was played first after the cadence?</p><p>Please respond as quickly and as accurately as possible!</p>","4","","1","new_stimuli/mp3/melody_v3_v2_v1_.mp3"
"","1033.3899999968708","html-button-response","87","703353","0.0-15.0-2.1","98183","","<p>Which tone was played second after the cadence?</p><p>Please respond as quickly and as accurately as possible!</p>","2","","2","new_stimuli/mp3/melody_v3_v2_v1_.mp3"
"","1084.4800000195391","html-button-response","88","704438","0.0-15.0-3.1","98183","","<p>Which tone was played third after the cadence?</p><p>Please respond as quickly and as accurately as possible!</p>","0","","3","new_stimuli/mp3/melody_v3_v2_v1_.mp3"
"","null","audio-keyboard-response","89","714389","0.0-15.0-0.2","98183","","new_stimuli/mp3/melody_v5_v4_v3_buffer.mp3","","null","",""
"","1691.4100000285544","html-button-response","90","716084","0.0-15.0-1.2","98183","","<p>Which tone was played first after the cadence?</p><p>Please respond as quickly and as accurately as possible!</p>","7","","1","new_stimuli/mp3/melody_v5_v4_v3_buffer.mp3"
"","1561.4399999612942","html-button-response","91","717647","0.0-15.0-2.2","98183","","<p>Which tone was played second after the cadence?</p><p>Please respond as quickly and as accurately as possible!</p>","5","","2","new_stimuli/mp3/melody_v5_v4_v3_buffer.mp3"
"","952.0699999993667","html-button-response","92","718600","0.0-15.0-3.2","98183","","<p>Which tone was played third after the cadence?</p><p>Please respond as quickly and as accurately as possible!</p>","4","","3","new_stimuli/mp3/melody_v5_v4_v3_buffer.mp3"
"","null","audio-keyboard-response","93","728578","0.0-15.0-0.3","98183","","new_stimuli/mp3/melody_v2_v5_^3_buffer.mp3","","null","",""
"","1767.519999993965","html-button-response","94","730348","0.0-15.0-1.3","98183","","<p>Which tone was played first after the cadence?</p><p>Please respond as quickly and as accurately as possible!</p>","2","","1","new_stimuli/mp3/melody_v2_v5_^3_buffer.mp3"
"","1418.6150000314228","html-button-response","95","731768","0.0-15.0-2.3","98183","","<p>Which tone was played second after the cadence?</p><p>Please respond as quickly and as accurately as possible!</p>","7","","2","new_stimuli/mp3/melody_v2_v5_^3_buffer.mp3"
"","1398.224999953527","html-button-response","96","733168","0.0-15.0-3.3","98183","","<p>Which tone was played third after the cadence?</p><p>Please respond as quickly and as accurately as possible!</p>","4","","3","new_stimuli/mp3/melody_v2_v5_^3_buffer.mp3"
"","null","audio-keyboard-response","97","743078","0.0-15.0-0.4","98183","","new_stimuli/mp3/melody_^1_v6_v5+_.mp3","","null","",""
"","1651.8900000373833","html-button-response","98","744733","0.0-15.0-1.4","98183","","<p>Which tone was played first after the cadence?</p><p>Please respond as quickly and as accurately as possible!</p>","12","","1","new_stimuli/mp3/melody_^1_v6_v5+_.mp3"
"","1235.7750000082888","html-button-response","99","745970","0.0-15.0-2.4","98183","","<p>Which tone was played second after the cadence?</p><p>Please respond as quickly and as accurately as possible!</p>","9","","2","new_stimuli/mp3/melody_^1_v6_v5+_.mp3"
"","1002.9550000326708","html-button-response","100","746974","0.0-15.0-3.4","98183","","<p>Which tone was played third after the cadence?</p><p>Please respond as quickly and as accurately as possible!</p>","8","","3","new_stimuli/mp3/melody_^1_v6_v5+_.mp3"
"","null","audio-keyboard-response","101","756670","0.0-15.0-0.5","98183","","new_stimuli/mp3/melody_v4_v3_v2_buffer.mp3","","null","",""
"","1461.379999993369","html-button-response","102","758133","0.0-15.0-1.5","98183","","<p>Which tone was played first after the cadence?</p><p>Please respond as quickly and as accurately as possible!</p>","5","","1","new_stimuli/mp3/melody_v4_v3_v2_buffer.mp3"
"","1074.2350000073202","html-button-response","103","759208","0.0-15.0-2.5","98183","","<p>Which tone was played second after the cadence?</p><p>Please respond as quickly and as accurately as possible!</p>","4","","2","new_stimuli/mp3/melody_v4_v3_v2_buffer.mp3"
"","1286.4399999962188","html-button-response","104","760496","0.0-15.0-3.5","98183","","<p>Which tone was played third after the cadence?</p><p>Please respond as quickly and as accurately as possible!</p>","2","","3","new_stimuli/mp3/melody_v4_v3_v2_buffer.mp3"
"","null","audio-keyboard-response","105","769999","0.0-15.0-0.6","98183","","new_stimuli/mp3/melody_1_v1+_^2_.mp3","","null","",""
"","1227.8999999980442","html-button-response","106","771228","0.0-15.0-1.6","98183","","<p>Which tone was played first after the cadence?</p><p>Please respond as quickly and as accurately as possible!</p>","0","","1","new_stimuli/mp3/melody_1_v1+_^2_.mp3"
"","912.0400000247173","html-button-response","107","772141","0.0-15.0-2.6","98183","","<p>Which tone was played second after the cadence?</p><p>Please respond as quickly and as accurately as possible!</p>","1","","2","new_stimuli/mp3/melody_1_v1+_^2_.mp3"
"","870.8999999798834","html-button-response","108","773014","0.0-15.0-3.6","98183","","<p>Which tone was played third after the cadence?</p><p>Please respond as quickly and as accurately as possible!</p>","2","","3","new_stimuli/mp3/melody_1_v1+_^2_.mp3"
"","null","audio-keyboard-response","109","782599","0.0-15.0-0.7","98183","","new_stimuli/mp3/melody_v1_v7-_7-_buffer.mp3","","null","",""
"","1633.2049999618903","html-button-response","110","784233","0.0-15.0-1.7","98183","","<p>Which tone was played first after the cadence?</p><p>Please respond as quickly and as accurately as possible!</p>","12","","1","new_stimuli/mp3/melody_v1_v7-_7-_buffer.mp3"
"","1135.3100000414997","html-button-response","111","785370","0.0-15.0-2.7","98183","","<p>Which tone was played second after the cadence?</p><p>Please respond as quickly and as accurately as possible!</p>","10","","2","new_stimuli/mp3/melody_v1_v7-_7-_buffer.mp3"
"","637.5300000072457","html-button-response","112","786009","0.0-15.0-3.7","98183","","<p>Which tone was played third after the cadence?</p><p>Please respond as quickly and as accurately as possible!</p>","10","","3","new_stimuli/mp3/melody_v1_v7-_7-_buffer.mp3"
"","null","audio-keyboard-response","113","795639","0.0-15.0-0.8","98183","","new_stimuli/mp3/melody_6_^1_v5_.mp3","","null","",""
"","1617.2650000080466","html-button-response","114","797258","0.0-15.0-1.8","98183","","<p>Which tone was played first after the cadence?</p><p>Please respond as quickly and as accurately as possible!</p>","9","","1","new_stimuli/mp3/melody_6_^1_v5_.mp3"
"","1074.2949999985285","html-button-response","115","798333","0.0-15.0-2.8","98183","","<p>Which tone was played second after the cadence?</p><p>Please respond as quickly and as accurately as possible!</p>","12","","2","new_stimuli/mp3/melody_6_^1_v5_.mp3"
"","1256.3950000330806","html-button-response","116","799591","0.0-15.0-3.8","98183","","<p>Which tone was played third after the cadence?</p><p>Please respond as quickly and as accurately as possible!</p>","7","","3","new_stimuli/mp3/melody_6_^1_v5_.mp3"
"[{""page_index"":0,""viewing_time"":3235.3149999980815},{""page_index"":1,""viewing_time"":2150.4449999774806},{""page_index"":2,""viewing_time"":1653.7950000492856}]","7039.830000023358","instructions","117","806631","0.0-16.0","98183","","","","","",""
"","null","audio-keyboard-response","118","817269","0.0-17.0-0.0","98183","","new_stimuli/mp3/melody_^6_v4_v3_^4_^5_.mp3","","null","",""
"","2172.9700000141747","html-button-response","119","819444","0.0-17.0-1.0","98183","","<p>Which tone was played first after the cadence?</p><p>Please respond as quickly and as accurately as possible!</p>","9","","1","new_stimuli/mp3/melody_^6_v4_v3_^4_^5_.mp3"
"","1307.3200000217184","html-button-response","120","820752","0.0-17.0-2.0","98183","","<p>Which tone was played second after the cadence?</p><p>Please respond as quickly and as accurately as possible!</p>","5","","2","new_stimuli/mp3/melody_^6_v4_v3_^4_^5_.mp3"
"","840.41000000434","html-button-response","121","821594","0.0-17.0-3.0","98183","","<p>Which tone was played third after the cadence?</p><p>Please respond as quickly and as accurately as possible!</p>","4","","3","new_stimuli/mp3/melody_^6_v4_v3_^4_^5_.mp3"
"","769.7599999955855","html-button-response","122","822365","0.0-17.0-4.0","98183","","<p>Which tone was played fourth after the cadence?</p><p>Please respond as quickly and as accurately as possible!</p>","5","","4","new_stimuli/mp3/melody_^6_v4_v3_^4_^5_.mp3"
"","911.4950000075623","html-button-response","123","823278","0.0-17.0-5.0","98183","","<p>Which tone was played fifth after the cadence?</p><p>Please respond as quickly and as accurately as possible!</p>","7","","5","new_stimuli/mp3/melody_^6_v4_v3_^4_^5_.mp3"
"","null","audio-keyboard-response","124","833850","0.0-17.0-0.1","98183","","new_stimuli/mp3/melody_v2_2_^3_^4_v2_.mp3","","null","",""
"","1863.4000000311062","html-button-response","125","835714","0.0-17.0-1.1","98183","","<p>Which tone was played first after the cadence?</p><p>Please respond as quickly and as accurately as possible!</p>","2","","1","new_stimuli/mp3/melody_v2_2_^3_^4_v2_.mp3"
"","840.9249999676831","html-button-response","126","836557","0.0-17.0-2.1","98183","","<p>Which tone was played second after the cadence?</p><p>Please respond as quickly and as accurately as possible!</p>","2","","2","new_stimuli/mp3/melody_v2_2_^3_^4_v2_.mp3"
"","1022.5750000099652","html-button-response","127","837581","0.0-17.0-3.1","98183","","<p>Which tone was played third after the cadence?</p><p>Please respond as quickly and as accurately as possible!</p>","4","","3","new_stimuli/mp3/melody_v2_2_^3_^4_v2_.mp3"
"","921.5500000282191","html-button-response","128","838504","0.0-17.0-4.1","98183","","<p>Which tone was played fourth after the cadence?</p><p>Please respond as quickly and as accurately as possible!</p>","5","","4","new_stimuli/mp3/melody_v2_2_^3_^4_v2_.mp3"
"","1043.599999975413","html-button-response","129","839548","0.0-17.0-5.1","98183","","<p>Which tone was played fifth after the cadence?</p><p>Please respond as quickly and as accurately as possible!</p>","2","","5","new_stimuli/mp3/melody_v2_2_^3_^4_v2_.mp3"
"","null","audio-keyboard-response","130","850490","0.0-17.0-0.2","98183","","new_stimuli/mp3/melody_v5-_v3_3_^4+_v3_.mp3","","null","",""
"","2224.864999996498","html-button-response","131","852716","0.0-17.0-1.2","98183","","<p>Which tone was played first after the cadence?</p><p>Please respond as quickly and as accurately as possible!</p>","6","","1","new_stimuli/mp3/melody_v5-_v3_3_^4+_v3_.mp3"
"","1215.5349999666214","html-button-response","132","853933","0.0-17.0-2.2","98183","","<p>Which tone was played second after the cadence?</p><p>Please respond as quickly and as accurately as possible!</p>","4","","2","new_stimuli/mp3/melody_v5-_v3_3_^4+_v3_.mp3"
"","597.0199999865144","html-button-response","133","854532","0.0-17.0-3.2","98183","","<p>Which tone was played third after the cadence?</p><p>Please respond as quickly and as accurately as possible!</p>","4","","3","new_stimuli/mp3/melody_v5-_v3_3_^4+_v3_.mp3"
"","931.5249999635853","html-button-response","134","855464","0.0-17.0-4.2","98183","","<p>Which tone was played fourth after the cadence?</p><p>Please respond as quickly and as accurately as possible!</p>","6","","4","new_stimuli/mp3/melody_v5-_v3_3_^4+_v3_.mp3"
"","911.290000018198","html-button-response","135","856377","0.0-17.0-5.2","98183","","<p>Which tone was played fifth after the cadence?</p><p>Please respond as quickly and as accurately as possible!</p>","4","","5","new_stimuli/mp3/melody_v5-_v3_3_^4+_v3_.mp3"
"","null","audio-keyboard-response","136","867010","0.0-17.0-0.3","98183","","new_stimuli/mp3/melody_v5_^6+_^7_^1_5_.mp3","","null","",""
"","1284.1299999854527","html-button-response","137","868296","0.0-17.0-1.3","98183","","<p>Which tone was played first after the cadence?</p><p>Please respond as quickly and as accurately as possible!</p>","7","","1","new_stimuli/mp3/melody_v5_^6+_^7_^1_5_.mp3"
"","810.4799999855459","html-button-response","138","869108","0.0-17.0-2.3","98183","","<p>Which tone was played second after the cadence?</p><p>Please respond as quickly and as accurately as possible!</p>","9","","2","new_stimuli/mp3/melody_v5_^6+_^7_^1_5_.mp3"
"","769.2099999985658","html-button-response","139","869878","0.0-17.0-3.3","98183","","<p>Which tone was played third after the cadence?</p><p>Please respond as quickly and as accurately as possible!</p>","11","","3","new_stimuli/mp3/melody_v5_^6+_^7_^1_5_.mp3"
"","597.940000006929","html-button-response","140","870478","0.0-17.0-4.3","98183","","<p>Which tone was played fourth after the cadence?</p><p>Please respond as quickly and as accurately as possible!</p>","12","","4","new_stimuli/mp3/melody_v5_^6+_^7_^1_5_.mp3"
"","1123.4950000070967","html-button-response","141","871603","0.0-17.0-5.3","98183","","<p>Which tone was played fifth after the cadence?</p><p>Please respond as quickly and as accurately as possible!</p>","7","","5","new_stimuli/mp3/melody_v5_^6+_^7_^1_5_.mp3"
"","null","audio-keyboard-response","142","882179","0.0-17.0-0.4","98183","","new_stimuli/mp3/melody_v5_v4_v3_v2_v1_.mp3","","null","",""
"","1219.5349999819882","html-button-response","143","883400","0.0-17.0-1.4","98183","","<p>Which tone was played first after the cadence?</p><p>Please respond as quickly and as accurately as possible!</p>","7","","1","new_stimuli/mp3/melody_v5_v4_v3_v2_v1_.mp3"
"","870.3300000051968","html-button-response","144","884272","0.0-17.0-2.4","98183","","<p>Which tone was played second after the cadence?</p><p>Please respond as quickly and as accurately as possible!</p>","5","","2","new_stimuli/mp3/melody_v5_v4_v3_v2_v1_.mp3"
"","820.4099999857135","html-button-response","145","885094","0.0-17.0-3.4","98183","","<p>Which tone was played third after the cadence?</p><p>Please respond as quickly and as accurately as possible!</p>","4","","3","new_stimuli/mp3/melody_v5_v4_v3_v2_v1_.mp3"
"","1063.625000009779","html-button-response","146","886159","0.0-17.0-4.4","98183","","<p>Which tone was played fourth after the cadence?</p><p>Please respond as quickly and as accurately as possible!</p>","2","","4","new_stimuli/mp3/melody_v5_v4_v3_v2_v1_.mp3"
"","901.9100000150502","html-button-response","147","887062","0.0-17.0-5.4","98183","","<p>Which tone was played fifth after the cadence?</p><p>Please respond as quickly and as accurately as possible!</p>","0","","5","new_stimuli/mp3/melody_v5_v4_v3_v2_v1_.mp3"
"","null","audio-keyboard-response","148","898012","0.0-17.0-0.5","98183","","new_stimuli/mp3/melody_^5_^6_v5_v4_v3_buffer.mp3","","null","",""
"","1515.1000000187196","html-button-response","149","899529","0.0-17.0-1.5","98183","","<p>Which tone was played first after the cadence?</p><p>Please respond as quickly and as accurately as possible!</p>","7","","1","new_stimuli/mp3/melody_^5_^6_v5_v4_v3_buffer.mp3"
"","982.964999973774","html-button-response","150","900513","0.0-17.0-2.5","98183","","<p>Which tone was played second after the cadence?</p><p>Please respond as quickly and as accurately as possible!</p>","9","","2","new_stimuli/mp3/melody_^5_^6_v5_v4_v3_buffer.mp3"
"","901.2900000088848","html-button-response","151","901416","0.0-17.0-3.5","98183","","<p>Which tone was played third after the cadence?</p><p>Please respond as quickly and as accurately as possible!</p>","7","","3","new_stimuli/mp3/melody_^5_^6_v5_v4_v3_buffer.mp3"
"","921.4050000300631","html-button-response","152","902339","0.0-17.0-4.5","98183","","<p>Which tone was played fourth after the cadence?</p><p>Please respond as quickly and as accurately as possible!</p>","5","","4","new_stimuli/mp3/melody_^5_^6_v5_v4_v3_buffer.mp3"
"","750.8449999731965","html-button-response","153","903091","0.0-17.0-5.5","98183","","<p>Which tone was played fifth after the cadence?</p><p>Please respond as quickly and as accurately as possible!</p>","4","","5","new_stimuli/mp3/melody_^5_^6_v5_v4_v3_buffer.mp3"
"","null","audio-keyboard-response","154","913799","0.0-17.0-0.6","98183","","new_stimuli/mp3/melody_^6_v5_v4_v3_v2_buffer.mp3","","null","",""
"","1969.5650000358","html-button-response","155","915771","0.0-17.0-1.6","98183","","<p>Which tone was played first after the cadence?</p><p>Please respond as quickly and as accurately as possible!</p>","9","","1","new_stimuli/mp3/melody_^6_v5_v4_v3_v2_buffer.mp3"
"","1094.1450000391342","html-button-response","156","916866","0.0-17.0-2.6","98183","","<p>Which tone was played second after the cadence?</p><p>Please respond as quickly and as accurately as possible!</p>","7","","2","new_stimuli/mp3/melody_^6_v5_v4_v3_v2_buffer.mp3"
"","881.1650000279769","html-button-response","157","917749","0.0-17.0-3.6","98183","","<p>Which tone was played third after the cadence?</p><p>Please respond as quickly and as accurately as possible!</p>","5","","3","new_stimuli/mp3/melody_^6_v5_v4_v3_v2_buffer.mp3"
"","830.8099999558181","html-button-response","158","918581","0.0-17.0-4.6","98183","","<p>Which tone was played fourth after the cadence?</p><p>Please respond as quickly and as accurately as possible!</p>","4","","4","new_stimuli/mp3/melody_^6_v5_v4_v3_v2_buffer.mp3"
"","861.380000016652","html-button-response","159","919444","0.0-17.0-5.6","98183","","<p>Which tone was played fifth after the cadence?</p><p>Please respond as quickly and as accurately as possible!</p>","2","","5","new_stimuli/mp3/melody_^6_v5_v4_v3_v2_buffer.mp3"
"","null","audio-keyboard-response","160","930021","0.0-17.0-0.7","98183","","new_stimuli/mp3/melody_v5_v4_v3_v2_v1 _buffer.mp3","","null","",""
"","3459.09500005655","html-button-response","161","933483","0.0-17.0-1.7","98183","","<p>Which tone was played first after the cadence?</p><p>Please respond as quickly and as accurately as possible!</p>","7","","1","new_stimuli/mp3/melody_v5_v4_v3_v2_v1 _buffer.mp3"
"","1064.0450000064448","html-button-response","162","934548","0.0-17.0-2.7","98183","","<p>Which tone was played second after the cadence?</p><p>Please respond as quickly and as accurately as possible!</p>","5","","2","new_stimuli/mp3/melody_v5_v4_v3_v2_v1 _buffer.mp3"
"","830.3049999522045","html-button-response","163","935380","0.0-17.0-3.7","98183","","<p>Which tone was played third after the cadence?</p><p>Please respond as quickly and as accurately as possible!</p>","4","","3","new_stimuli/mp3/melody_v5_v4_v3_v2_v1 _buffer.mp3"
"","982.4849999858998","html-button-response","164","936363","0.0-17.0-4.7","98183","","<p>Which tone was played fourth after the cadence?</p><p>Please respond as quickly and as accurately as possible!</p>","2","","4","new_stimuli/mp3/melody_v5_v4_v3_v2_v1 _buffer.mp3"
"","891.7600000277162","html-button-response","165","937256","0.0-17.0-5.7","98183","","<p>Which tone was played fifth after the cadence?</p><p>Please respond as quickly and as accurately as possible!</p>","0","","5","new_stimuli/mp3/melody_v5_v4_v3_v2_v1 _buffer.mp3"
"[{""page_index"":0,""viewing_time"":3214.86000000732},{""page_index"":1,""viewing_time"":1399.9949999852106},{""page_index"":2,""viewing_time"":2343.2449999963865}]","6958.340000011958","instructions","166","944215","0.0-18.0","98183","","","","","",""
"","null","audio-keyboard-response","167","955933","0.0-19.0-0.0","98183","","new_stimuli/mp3/melody_^4_^5_^6_v5_v4_v3_v2_.mp3","","null","",""
"","1964.1650000121444","html-button-response","168","957899","0.0-19.0-1.0","98183","","<p>Which tone was played first after the cadence?</p><p>Please respond as quickly and as accurately as possible!</p>","5","","1","new_stimuli/mp3/melody_^4_^5_^6_v5_v4_v3_v2_.mp3"
"","931.6799999796785","html-button-response","169","958832","0.0-19.0-2.0","98183","","<p>Which tone was played second after the cadence?</p><p>Please respond as quickly and as accurately as possible!</p>","7","","2","new_stimuli/mp3/melody_^4_^5_^6_v5_v4_v3_v2_.mp3"
"","952.4550000205636","html-button-response","170","959786","0.0-19.0-3.0","98183","","<p>Which tone was played third after the cadence?</p><p>Please respond as quickly and as accurately as possible!</p>","9","","3","new_stimuli/mp3/melody_^4_^5_^6_v5_v4_v3_v2_.mp3"
"","891.3900000043213","html-button-response","171","960678","0.0-19.0-4.0","98183","","<p>Which tone was played fourth after the cadence?</p><p>Please respond as quickly and as accurately as possible!</p>","7","","4","new_stimuli/mp3/melody_^4_^5_^6_v5_v4_v3_v2_.mp3"
"","1003.0049999477342","html-button-response","172","961683","0.0-19.0-5.0","98183","","<p>Which tone was played fifth after the cadence?</p><p>Please respond as quickly and as accurately as possible!</p>","5","","5","new_stimuli/mp3/melody_^4_^5_^6_v5_v4_v3_v2_.mp3"
"","799.7350000077859","html-button-response","173","962484","0.0-19.0-6.0","98183","","<p>Which tone was played sixth after the cadence?</p><p>Please respond as quickly and as accurately as possible!</p>","4","","6","new_stimuli/mp3/melody_^4_^5_^6_v5_v4_v3_v2_.mp3"
"","1053.3249999862164","html-button-response","174","963539","0.0-19.0-7.0","98183","","<p>Which tone was played seventh after the cadence?</p><p>Please respond as quickly and as accurately as possible!</p>","2","","7","new_stimuli/mp3/melody_^4_^5_^6_v5_v4_v3_v2_.mp3"
"","null","audio-keyboard-response","175","975190","0.0-19.0-0.1","98183","","new_stimuli/mp3/melody_^6_v5+_v4_^5+_v3_v1_v7-_.mp3","","null","",""
"","2347.4350000033155","html-button-response","176","977539","0.0-19.0-1.1","98183","","<p>Which tone was played first after the cadence?</p><p>Please respond as quickly and as accurately as possible!</p>","9","","1","new_stimuli/mp3/melody_^6_v5+_v4_^5+_v3_v1_v7-_.mp3"
"","911.164999997709","html-button-response","177","978452","0.0-19.0-2.1","98183","","<p>Which tone was played second after the cadence?</p><p>Please respond as quickly and as accurately as possible!</p>","8","","2","new_stimuli/mp3/melody_^6_v5+_v4_^5+_v3_v1_v7-_.mp3"
"","1276.7899999744259","html-button-response","178","979730","0.0-19.0-3.1","98183","","<p>Which tone was played third after the cadence?</p><p>Please respond as quickly and as accurately as possible!</p>","5","","3","new_stimuli/mp3/melody_^6_v5+_v4_^5+_v3_v1_v7-_.mp3"
"","1367.7800000295974","html-button-response","179","981099","0.0-19.0-4.1","98183","","<p>Which tone was played fourth after the cadence?</p><p>Please respond as quickly and as accurately as possible!</p>","8","","4","new_stimuli/mp3/melody_^6_v5+_v4_^5+_v3_v1_v7-_.mp3"
"","3994.8049999657087","html-button-response","180","985095","0.0-19.0-5.1","98183","","<p>Which tone was played fifth after the cadence?</p><p>Please respond as quickly and as accurately as possible!</p>","5","","5","new_stimuli/mp3/melody_^6_v5+_v4_^5+_v3_v1_v7-_.mp3"
"","2331.860000034794","html-button-response","181","987429","0.0-19.0-6.1","98183","","<p>Which tone was played sixth after the cadence?</p><p>Please respond as quickly and as accurately as possible!</p>","0","","6","new_stimuli/mp3/melody_^6_v5+_v4_^5+_v3_v1_v7-_.mp3"
"","1316.8249999871477","html-button-response","182","988748","0.0-19.0-7.1","98183","","<p>Which tone was played seventh after the cadence?</p><p>Please respond as quickly and as accurately as possible!</p>","10","","7","new_stimuli/mp3/melody_^6_v5+_v4_^5+_v3_v1_v7-_.mp3"
"","null","audio-keyboard-response","183","1000423","0.0-19.0-0.2","98183","","new_stimuli/mp3/melody_^4_v6-_v5-_^6-_^4_v2-_2-_.mp3","","null","",""
"","2504.815000051167","html-button-response","184","1002929","0.0-19.0-1.2","98183","","<p>Which tone was played first after the cadence?</p><p>Please respond as quickly and as accurately as possible!</p>","5","","1","new_stimuli/mp3/melody_^4_v6-_v5-_^6-_^4_v2-_2-_.mp3"
"","1656.5699999919161","html-button-response","185","1004593","0.0-19.0-2.2","98183","","<p>Which tone was played second after the cadence?</p><p>Please respond as quickly and as accurately as possible!</p>","8","","2","new_stimuli/mp3/melody_^4_v6-_v5-_^6-_^4_v2-_2-_.mp3"
"","1205.8650000253692","html-button-response","186","1005800","0.0-19.0-3.2","98183","","<p>Which tone was played third after the cadence?</p><p>Please respond as quickly and as accurately as possible!</p>","6","","3","new_stimuli/mp3/melody_^4_v6-_v5-_^6-_^4_v2-_2-_.mp3"
"","1703.1500000157394","html-button-response","187","1007505","0.0-19.0-4.2","98183","","<p>Which tone was played fourth after the cadence?</p><p>Please respond as quickly and as accurately as possible!</p>","8","","4","new_stimuli/mp3/melody_^4_v6-_v5-_^6-_^4_v2-_2-_.mp3"
"","1499.965000024531","html-button-response","188","1009006","0.0-19.0-5.2","98183","","<p>Which tone was played fifth after the cadence?</p><p>Please respond as quickly and as accurately as possible!</p>","5","","5","new_stimuli/mp3/melody_^4_v6-_v5-_^6-_^4_v2-_2-_.mp3"
"","2504.499999980908","html-button-response","189","1011512","0.0-19.0-6.2","98183","","<p>Which tone was played sixth after the cadence?</p><p>Please respond as quickly and as accurately as possible!</p>","1","","6","new_stimuli/mp3/melody_^4_v6-_v5-_^6-_^4_v2-_2-_.mp3"
"","861.5550000104122","html-button-response","190","1012374","0.0-19.0-7.2","98183","","<p>Which tone was played seventh after the cadence?</p><p>Please respond as quickly and as accurately as possible!</p>","1","","7","new_stimuli/mp3/melody_^4_v6-_v5-_^6-_^4_v2-_2-_.mp3"
"","null","audio-keyboard-response","191","1024083","0.0-19.0-0.3","98183","","new_stimuli/mp3/melody_v1_^2_v1_v7_^1_^3_v2_.mp3","","null","",""
"","2045.3899999847636","html-button-response","192","1026130","0.0-19.0-1.3","98183","","<p>Which tone was played first after the cadence?</p><p>Please respond as quickly and as accurately as possible!</p>","0","","1","new_stimuli/mp3/melody_v1_^2_v1_v7_^1_^3_v2_.mp3"
"","1052.075000014156","html-button-response","193","1027184","0.0-19.0-2.3","98183","","<p>Which tone was played second after the cadence?</p><p>Please respond as quickly and as accurately as possible!</p>","1","","2","new_stimuli/mp3/melody_v1_^2_v1_v7_^1_^3_v2_.mp3"
"","1896.054999961052","html-button-response","194","1029082","0.0-19.0-3.3","98183","","<p>Which tone was played third after the cadence?</p><p>Please respond as quickly and as accurately as possible!</p>","0","","3","new_stimuli/mp3/melody_v1_^2_v1_v7_^1_^3_v2_.mp3"
"","1408.7299999664538","html-button-response","195","1030493","0.0-19.0-4.3","98183","","<p>Which tone was played fourth after the cadence?</p><p>Please respond as quickly and as accurately as possible!</p>","11","","4","new_stimuli/mp3/melody_v1_^2_v1_v7_^1_^3_v2_.mp3"
"","1468.795000051614","html-button-response","196","1031963","0.0-19.0-5.3","98183","","<p>Which tone was played fifth after the cadence?</p><p>Please respond as quickly and as accurately as possible!</p>","12","","5","new_stimuli/mp3/melody_v1_^2_v1_v7_^1_^3_v2_.mp3"
"","1621.8300000182353","html-button-response","197","1033586","0.0-19.0-6.3","98183","","<p>Which tone was played sixth after the cadence?</p><p>Please respond as quickly and as accurately as possible!</p>","4","","6","new_stimuli/mp3/melody_v1_^2_v1_v7_^1_^3_v2_.mp3"
"","1440.8100000000559","html-button-response","198","1035028","0.0-19.0-7.3","98183","","<p>Which tone was played seventh after the cadence?</p><p>Please respond as quickly and as accurately as possible!</p>","2","","7","new_stimuli/mp3/melody_v1_^2_v1_v7_^1_^3_v2_.mp3"
"","null","audio-keyboard-response","199","1046600","0.0-19.0-0.4","98183","","new_stimuli/mp3/melody_^5_^6_v5_v4_v3_v2_v1_buffer.mp3","","null","",""
"","1337.230000004638","html-button-response","200","1047939","0.0-19.0-1.4","98183","","<p>Which tone was played first after the cadence?</p><p>Please respond as quickly and as accurately as possible!</p>","7","","1","new_stimuli/mp3/melody_^5_^6_v5_v4_v3_v2_v1_buffer.mp3"
"","1074.7499999706633","html-button-response","201","1049016","0.0-19.0-2.4","98183","","<p>Which tone was played second after the cadence?</p><p>Please respond as quickly and as accurately as possible!</p>","9","","2","new_stimuli/mp3/melody_^5_^6_v5_v4_v3_v2_v1_buffer.mp3"
"","991.3250000099652","html-button-response","202","1050009","0.0-19.0-3.4","98183","","<p>Which tone was played third after the cadence?</p><p>Please respond as quickly and as accurately as possible!</p>","7","","3","new_stimuli/mp3/melody_^5_^6_v5_v4_v3_v2_v1_buffer.mp3"
"","1184.9449999863282","html-button-response","203","1051195","0.0-19.0-4.4","98183","","<p>Which tone was played fourth after the cadence?</p><p>Please respond as quickly and as accurately as possible!</p>","5","","4","new_stimuli/mp3/melody_^5_^6_v5_v4_v3_v2_v1_buffer.mp3"
"","871.0699999937788","html-button-response","204","1052068","0.0-19.0-5.4","98183","","<p>Which tone was played fifth after the cadence?</p><p>Please respond as quickly and as accurately as possible!</p>","4","","5","new_stimuli/mp3/melody_^5_^6_v5_v4_v3_v2_v1_buffer.mp3"
"","1034.354999952484","html-button-response","205","1053103","0.0-19.0-6.4","98183","","<p>Which tone was played sixth after the cadence?</p><p>Please respond as quickly and as accurately as possible!</p>","2","","6","new_stimuli/mp3/melody_^5_^6_v5_v4_v3_v2_v1_buffer.mp3"
"","880.2349999896251","html-button-response","206","1053985","0.0-19.0-7.4","98183","","<p>Which tone was played seventh after the cadence?</p><p>Please respond as quickly and as accurately as possible!</p>","0","","7","new_stimuli/mp3/melody_^5_^6_v5_v4_v3_v2_v1_buffer.mp3"
"","null","audio-keyboard-response","207","1065690","0.0-19.0-0.5","98183","","new_stimuli/mp3/melody_^1_v7_v6_v5_v4_v3_v2_buffer.mp3","","null","",""
"","1672.8050000383519","html-button-response","208","1067364","0.0-19.0-1.5","98183","","<p>Which tone was played first after the cadence?</p><p>Please respond as quickly and as accurately as possible!</p>","12","","1","new_stimuli/mp3/melody_^1_v7_v6_v5_v4_v3_v2_buffer.mp3"
"","1084.4899999792688","html-button-response","209","1068450","0.0-19.0-2.5","98183","","<p>Which tone was played second after the cadence?</p><p>Please respond as quickly and as accurately as possible!</p>","11","","2","new_stimuli/mp3/melody_^1_v7_v6_v5_v4_v3_v2_buffer.mp3"
"","900.7499999715947","html-button-response","210","1069352","0.0-19.0-3.5","98183","","<p>Which tone was played third after the cadence?</p><p>Please respond as quickly and as accurately as possible!</p>","9","","3","new_stimuli/mp3/melody_^1_v7_v6_v5_v4_v3_v2_buffer.mp3"
"","1094.6799999801442","html-button-response","211","1070448","0.0-19.0-4.5","98183","","<p>Which tone was played fourth after the cadence?</p><p>Please respond as quickly and as accurately as possible!</p>","7","","4","new_stimuli/mp3/melody_^1_v7_v6_v5_v4_v3_v2_buffer.mp3"
"","1002.6200000429526","html-button-response","212","1071452","0.0-19.0-5.5","98183","","<p>Which tone was played fifth after the cadence?</p><p>Please respond as quickly and as accurately as possible!</p>","5","","5","new_stimuli/mp3/melody_^1_v7_v6_v5_v4_v3_v2_buffer.mp3"
"","871.335000032559","html-button-response","213","1072325","0.0-19.0-6.5","98183","","<p>Which tone was played sixth after the cadence?</p><p>Please respond as quickly and as accurately as possible!</p>","4","","6","new_stimuli/mp3/melody_^1_v7_v6_v5_v4_v3_v2_buffer.mp3"
"","1317.0950000057928","html-button-response","214","1073643","0.0-19.0-7.5","98183","","<p>Which tone was played seventh after the cadence?</p><p>Please respond as quickly and as accurately as possible!</p>","2","","7","new_stimuli/mp3/melody_^1_v7_v6_v5_v4_v3_v2_buffer.mp3"
"","null","audio-keyboard-response","215","1085613","0.0-19.0-0.6","98183","","new_stimuli/mp3/melody_1_^3_v1_^5_v3_v2_^3_.mp3","","null","",""
"","1631.264999974519","html-button-response","216","1087246","0.0-19.0-1.6","98183","","<p>Which tone was played first after the cadence?</p><p>Please respond as quickly and as accurately as possible!</p>","0","","1","new_stimuli/mp3/melody_1_^3_v1_^5_v3_v2_^3_.mp3"
"","1783.6649999953806","html-button-response","217","1089031","0.0-19.0-2.6","98183","","<p>Which tone was played second after the cadence?</p><p>Please respond as quickly and as accurately as possible!</p>","4","","2","new_stimuli/mp3/melody_1_^3_v1_^5_v3_v2_^3_.mp3"
"","1256.4799999818206","html-button-response","218","1090289","0.0-19.0-3.6","98183","","<p>Which tone was played third after the cadence?</p><p>Please respond as quickly and as accurately as possible!</p>","0","","3","new_stimuli/mp3/melody_1_^3_v1_^5_v3_v2_^3_.mp3"
"","1358.0100000253879","html-button-response","219","1091648","0.0-19.0-4.6","98183","","<p>Which tone was played fourth after the cadence?</p><p>Please respond as quickly and as accurately as possible!</p>","7","","4","new_stimuli/mp3/melody_1_^3_v1_^5_v3_v2_^3_.mp3"
"","1124.5450000278652","html-button-response","220","1092774","0.0-19.0-5.6","98183","","<p>Which tone was played fifth after the cadence?</p><p>Please respond as quickly and as accurately as possible!</p>","4","","5","new_stimuli/mp3/melody_1_^3_v1_^5_v3_v2_^3_.mp3"
"","901.6899999696761","html-button-response","221","1093677","0.0-19.0-6.6","98183","","<p>Which tone was played sixth after the cadence?</p><p>Please respond as quickly and as accurately as possible!</p>","2","","6","new_stimuli/mp3/melody_1_^3_v1_^5_v3_v2_^3_.mp3"
"","1083.275000040885","html-button-response","222","1094762","0.0-19.0-7.6","98183","","<p>Which tone was played seventh after the cadence?</p><p>Please respond as quickly and as accurately as possible!</p>","4","","7","new_stimuli/mp3/melody_1_^3_v1_^5_v3_v2_^3_.mp3"
"[{""page_index"":0,""viewing_time"":3630.2700000233017},{""page_index"":1,""viewing_time"":1683.9999999501742},{""page_index"":2,""viewing_time"":1643.2849999982864}]","6957.91499997722","instructions","223","1101720","0.0-20.0","98183","","","","","",""
"","null","audio-keyboard-response","224","1114293","0.0-21.0-0.0","98183","","new_stimuli/mp3/melody_^3_^4_^5 _^6_v5_v4_v3_v2_v1_.mp3","","null","",""
"","1697.2200000309385","html-button-response","225","1115992","0.0-21.0-1.0","98183","","<p>Which tone was played first after the cadence?</p><p>Please respond as quickly and as accurately as possible!</p>","4","","1","new_stimuli/mp3/melody_^3_^4_^5 _^6_v5_v4_v3_v2_v1_.mp3"
"","809.4850000343286","html-button-response","226","1116804","0.0-21.0-2.0","98183","","<p>Which tone was played second after the cadence?</p><p>Please respond as quickly and as accurately as possible!</p>","5","","2","new_stimuli/mp3/melody_^3_^4_^5 _^6_v5_v4_v3_v2_v1_.mp3"
"","1144.5149999926798","html-button-response","227","1117949","0.0-21.0-3.0","98183","","<p>Which tone was played third after the cadence?</p><p>Please respond as quickly and as accurately as possible!</p>","7","","3","new_stimuli/mp3/melody_^3_^4_^5 _^6_v5_v4_v3_v2_v1_.mp3"
"","1144.7349999798462","html-button-response","228","1119096","0.0-21.0-4.0","98183","","<p>Which tone was played fourth after the cadence?</p><p>Please respond as quickly and as accurately as possible!</p>","9","","4","new_stimuli/mp3/melody_^3_^4_^5 _^6_v5_v4_v3_v2_v1_.mp3"
"","1054.024999961257","html-button-response","229","1120151","0.0-21.0-5.0","98183","","<p>Which tone was played fifth after the cadence?</p><p>Please respond as quickly and as accurately as possible!</p>","7","","5","new_stimuli/mp3/melody_^3_^4_^5 _^6_v5_v4_v3_v2_v1_.mp3"
"","1094.4299999973737","html-button-response","230","1121246","0.0-21.0-6.0","98183","","<p>Which tone was played sixth after the cadence?</p><p>Please respond as quickly and as accurately as possible!</p>","5","","6","new_stimuli/mp3/melody_^3_^4_^5 _^6_v5_v4_v3_v2_v1_.mp3"
"","942.1950000105426","html-button-response","231","1122190","0.0-21.0-7.0","98183","","<p>Which tone was played seventh after the cadence?</p><p>Please respond as quickly and as accurately as possible!</p>","4","","7","new_stimuli/mp3/melody_^3_^4_^5 _^6_v5_v4_v3_v2_v1_.mp3"
"","1154.7799999825656","html-button-response","232","1123346","0.0-21.0-8.0","98183","","<p>Which tone was played eight after the cadence?</p><p>Please respond as quickly and as accurately as possible!</p>","2","","8","new_stimuli/mp3/melody_^3_^4_^5 _^6_v5_v4_v3_v2_v1_.mp3"
"","1013.0050000152551","html-button-response","233","1124360","0.0-21.0-9.0","98183","","<p>Which tone was played nineth after the cadence?</p><p>Please respond as quickly and as accurately as possible!</p>","0","","9","new_stimuli/mp3/melody_^3_^4_^5 _^6_v5_v4_v3_v2_v1_.mp3"
"","null","audio-keyboard-response","234","1137012","0.0-21.0-0.1","98183","","new_stimuli/mp3/melody_v5_v4_v6+_^7_^3+_v3_v2_v5_^4_.mp3","","null","",""
"","2755.6750000221655","html-button-response","235","1139771","0.0-21.0-1.1","98183","","<p>Which tone was played first after the cadence?</p><p>Please respond as quickly and as accurately as possible!</p>","7","","1","new_stimuli/mp3/melody_v5_v4_v6+_^7_^3+_v3_v2_v5_^4_.mp3"
"","1104.2100000195205","html-button-response","236","1140876","0.0-21.0-2.1","98183","","<p>Which tone was played second after the cadence?</p><p>Please respond as quickly and as accurately as possible!</p>","5","","2","new_stimuli/mp3/melody_v5_v4_v6+_^7_^3+_v3_v2_v5_^4_.mp3"
"","1327.6399999740534","html-button-response","237","1142205","0.0-21.0-3.1","98183","","<p>Which tone was played third after the cadence?</p><p>Please respond as quickly and as accurately as possible!</p>","9","","3","new_stimuli/mp3/melody_v5_v4_v6+_^7_^3+_v3_v2_v5_^4_.mp3"
"","1641.9650000170805","html-button-response","238","1143849","0.0-21.0-4.1","98183","","<p>Which tone was played fourth after the cadence?</p><p>Please respond as quickly and as accurately as possible!</p>","11","","4","new_stimuli/mp3/melody_v5_v4_v6+_^7_^3+_v3_v2_v5_^4_.mp3"
"","2280.704999982845","html-button-response","239","1146131","0.0-21.0-5.1","98183","","<p>Which tone was played fifth after the cadence?</p><p>Please respond as quickly and as accurately as possible!</p>","4","","5","new_stimuli/mp3/melody_v5_v4_v6+_^7_^3+_v3_v2_v5_^4_.mp3"
"","1844.5799999753945","html-button-response","240","1147977","0.0-21.0-6.1","98183","","<p>Which tone was played sixth after the cadence?</p><p>Please respond as quickly and as accurately as possible!</p>","3","","6","new_stimuli/mp3/melody_v5_v4_v6+_^7_^3+_v3_v2_v5_^4_.mp3"
"","2585.3750000242144","html-button-response","241","1150563","0.0-21.0-7.1","98183","","<p>Which tone was played seventh after the cadence?</p><p>Please respond as quickly and as accurately as possible!</p>","2","","7","new_stimuli/mp3/melody_v5_v4_v6+_^7_^3+_v3_v2_v5_^4_.mp3"
"","9047.34000004828","html-button-response","242","1159612","0.0-21.0-8.1","98183","","<p>Which tone was played eight after the cadence?</p><p>Please respond as quickly and as accurately as possible!</p>","7","","8","new_stimuli/mp3/melody_v5_v4_v6+_^7_^3+_v3_v2_v5_^4_.mp3"
"","1449.1600000183098","html-button-response","243","1161062","0.0-21.0-9.1","98183","","<p>Which tone was played nineth after the cadence?</p><p>Please respond as quickly and as accurately as possible!</p>","5","","9","new_stimuli/mp3/melody_v5_v4_v6+_^7_^3+_v3_v2_v5_^4_.mp3"
"","null","audio-keyboard-response","244","1173714","0.0-21.0-0.2","98183","","new_stimuli/mp3/melody_v7_v6_v5_^6_v5_v4_^5_^6_v5_.mp3","","null","",""
"","2116.32999998983","html-button-response","245","1175832","0.0-21.0-1.2","98183","","<p>Which tone was played first after the cadence?</p><p>Please respond as quickly and as accurately as possible!</p>","11","","1","new_stimuli/mp3/melody_v7_v6_v5_^6_v5_v4_^5_^6_v5_.mp3"
"","1154.934999998659","html-button-response","246","1176989","0.0-21.0-2.2","98183","","<p>Which tone was played second after the cadence?</p><p>Please respond as quickly and as accurately as possible!</p>","9","","2","new_stimuli/mp3/melody_v7_v6_v5_^6_v5_v4_^5_^6_v5_.mp3"
"","1266.4749999530613","html-button-response","247","1178257","0.0-21.0-3.2","98183","","<p>Which tone was played third after the cadence?</p><p>Please respond as quickly and as accurately as possible!</p>","7","","3","new_stimuli/mp3/melody_v7_v6_v5_^6_v5_v4_^5_^6_v5_.mp3"
"","1439.4599999650382","html-button-response","248","1179697","0.0-21.0-4.2","98183","","<p>Which tone was played fourth after the cadence?</p><p>Please respond as quickly and as accurately as possible!</p>","9","","4","new_stimuli/mp3/melody_v7_v6_v5_^6_v5_v4_^5_^6_v5_.mp3"
"","1124.3050000048243","html-button-response","249","1180823","0.0-21.0-5.2","98183","","<p>Which tone was played fifth after the cadence?</p><p>Please respond as quickly and as accurately as possible!</p>","7","","5","new_stimuli/mp3/melody_v7_v6_v5_^6_v5_v4_^5_^6_v5_.mp3"
"","1449.6650000219233","html-button-response","250","1182274","0.0-21.0-6.2","98183","","<p>Which tone was played sixth after the cadence?</p><p>Please respond as quickly and as accurately as possible!</p>","5","","6","new_stimuli/mp3/melody_v7_v6_v5_^6_v5_v4_^5_^6_v5_.mp3"
"","1977.0649999845773","html-button-response","251","1184252","0.0-21.0-7.2","98183","","<p>Which tone was played seventh after the cadence?</p><p>Please respond as quickly and as accurately as possible!</p>","7","","7","new_stimuli/mp3/melody_v7_v6_v5_^6_v5_v4_^5_^6_v5_.mp3"
"","921.280000009574","html-button-response","252","1185175","0.0-21.0-8.2","98183","","<p>Which tone was played eight after the cadence?</p><p>Please respond as quickly and as accurately as possible!</p>","9","","8","new_stimuli/mp3/melody_v7_v6_v5_^6_v5_v4_^5_^6_v5_.mp3"
"","932.4100000085309","html-button-response","253","1186109","0.0-21.0-9.2","98183","","<p>Which tone was played nineth after the cadence?</p><p>Please respond as quickly and as accurately as possible!</p>","7","","9","new_stimuli/mp3/melody_v7_v6_v5_^6_v5_v4_^5_^6_v5_.mp3"
"","null","audio-keyboard-response","254","1199062","0.0-21.0-0.3","98183","","new_stimuli/mp3/melody_^5_^6_v5_v4_v3_v2_v1_^2_^3_buffer.mp3","","null","",""
"","1769.3899999721907","html-button-response","255","1200834","0.0-21.0-1.3","98183","","<p>Which tone was played first after the cadence?</p><p>Please respond as quickly and as accurately as possible!</p>","7","","1","new_stimuli/mp3/melody_^5_^6_v5_v4_v3_v2_v1_^2_^3_buffer.mp3"
"","1031.490000023041","html-button-response","256","1201869","0.0-21.0-2.3","98183","","<p>Which tone was played second after the cadence?</p><p>Please respond as quickly and as accurately as possible!</p>","9","","2","new_stimuli/mp3/melody_^5_^6_v5_v4_v3_v2_v1_^2_^3_buffer.mp3"
"","1367.255000048317","html-button-response","257","1203238","0.0-21.0-3.3","98183","","<p>Which tone was played third after the cadence?</p><p>Please respond as quickly and as accurately as possible!</p>","7","","3","new_stimuli/mp3/melody_^5_^6_v5_v4_v3_v2_v1_^2_^3_buffer.mp3"
"","1022.3949999781325","html-button-response","258","1204262","0.0-21.0-4.3","98183","","<p>Which tone was played fourth after the cadence?</p><p>Please respond as quickly and as accurately as possible!</p>","5","","4","new_stimuli/mp3/melody_^5_^6_v5_v4_v3_v2_v1_^2_^3_buffer.mp3"
"","901.5699999872595","html-button-response","259","1205165","0.0-21.0-5.3","98183","","<p>Which tone was played fifth after the cadence?</p><p>Please respond as quickly and as accurately as possible!</p>","4","","5","new_stimuli/mp3/melody_^5_^6_v5_v4_v3_v2_v1_^2_^3_buffer.mp3"
"","1329.6949999639764","html-button-response","260","1206504","0.0-21.0-6.3","98183","","<p>Which tone was played sixth after the cadence?</p><p>Please respond as quickly and as accurately as possible!</p>","2","","6","new_stimuli/mp3/melody_^5_^6_v5_v4_v3_v2_v1_^2_^3_buffer.mp3"
"","1094.1649999585934","html-button-response","261","1207599","0.0-21.0-7.3","98183","","<p>Which tone was played seventh after the cadence?</p><p>Please respond as quickly and as accurately as possible!</p>","0","","7","new_stimuli/mp3/melody_^5_^6_v5_v4_v3_v2_v1_^2_^3_buffer.mp3"
"","1053.8250000099652","html-button-response","262","1208654","0.0-21.0-8.3","98183","","<p>Which tone was played eight after the cadence?</p><p>Please respond as quickly and as accurately as possible!</p>","2","","8","new_stimuli/mp3/melody_^5_^6_v5_v4_v3_v2_v1_^2_^3_buffer.mp3"
"","1215.8899999922141","html-button-response","263","1209871","0.0-21.0-9.3","98183","","<p>Which tone was played nineth after the cadence?</p><p>Please respond as quickly and as accurately as possible!</p>","4","","9","new_stimuli/mp3/melody_^5_^6_v5_v4_v3_v2_v1_^2_^3_buffer.mp3"
"","null","audio-keyboard-response","264","1222512","0.0-21.0-0.4","98183","","new_stimuli/mp3/melody_^3_^4_v2_v7_^1_^2_^3_3_^4_.mp3","","null","",""
"","1984.0900000417605","html-button-response","265","1224497","0.0-21.0-1.4","98183","","<p>Which tone was played first after the cadence?</p><p>Please respond as quickly and as accurately as possible!</p>","4","","1","new_stimuli/mp3/melody_^3_^4_v2_v7_^1_^2_^3_3_^4_.mp3"
"","840.6850000028498","html-button-response","266","1225340","0.0-21.0-2.4","98183","","<p>Which tone was played second after the cadence?</p><p>Please respond as quickly and as accurately as possible!</p>","5","","2","new_stimuli/mp3/melody_^3_^4_v2_v7_^1_^2_^3_3_^4_.mp3"
"","1347.3250000388362","html-button-response","267","1226689","0.0-21.0-3.4","98183","","<p>Which tone was played third after the cadence?</p><p>Please respond as quickly and as accurately as possible!</p>","2","","3","new_stimuli/mp3/melody_^3_^4_v2_v7_^1_^2_^3_3_^4_.mp3"
"","1377.7099999715574","html-button-response","268","1228068","0.0-21.0-4.4","98183","","<p>Which tone was played fourth after the cadence?</p><p>Please respond as quickly and as accurately as possible!</p>","11","","4","new_stimuli/mp3/melody_^3_^4_v2_v7_^1_^2_^3_3_^4_.mp3"
"","1073.340000002645","html-button-response","269","1229143","0.0-21.0-5.4","98183","","<p>Which tone was played fifth after the cadence?</p><p>Please respond as quickly and as accurately as possible!</p>","12","","5","new_stimuli/mp3/melody_^3_^4_v2_v7_^1_^2_^3_3_^4_.mp3"
"","1621.7400000314228","html-button-response","270","1230765","0.0-21.0-6.4","98183","","<p>Which tone was played sixth after the cadence?</p><p>Please respond as quickly and as accurately as possible!</p>","2","","6","new_stimuli/mp3/melody_^3_^4_v2_v7_^1_^2_^3_3_^4_.mp3"
"","1047.545000037644","html-button-response","271","1231814","0.0-21.0-7.4","98183","","<p>Which tone was played seventh after the cadence?</p><p>Please respond as quickly and as accurately as possible!</p>","4","","7","new_stimuli/mp3/melody_^3_^4_v2_v7_^1_^2_^3_3_^4_.mp3"
"","704.9000000115484","html-button-response","272","1232520","0.0-21.0-8.4","98183","","<p>Which tone was played eight after the cadence?</p><p>Please respond as quickly and as accurately as possible!</p>","4","","8","new_stimuli/mp3/melody_^3_^4_v2_v7_^1_^2_^3_3_^4_.mp3"
"","850.8149999543093","html-button-response","273","1233372","0.0-21.0-9.4","98183","","<p>Which tone was played nineth after the cadence?</p><p>Please respond as quickly and as accurately as possible!</p>","5","","9","new_stimuli/mp3/melody_^3_^4_v2_v7_^1_^2_^3_3_^4_.mp3"
"","null","audio-keyboard-response","274","1246306","0.0-21.0-0.5","98183","","new_stimuli/mp3/melody_^2_^4_v3_v2_v1_v3_v2+_^3_^5+_.mp3","","null","",""
"","2309.359999955632","html-button-response","275","1248617","0.0-21.0-1.5","98183","","<p>Which tone was played first after the cadence?</p><p>Please respond as quickly and as accurately as possible!</p>","2","","1","new_stimuli/mp3/melody_^2_^4_v3_v2_v1_v3_v2+_^3_^5+_.mp3"
"","1388.245000038296","html-button-response","276","1250006","0.0-21.0-2.5","98183","","<p>Which tone was played second after the cadence?</p><p>Please respond as quickly and as accurately as possible!</p>","5","","2","new_stimuli/mp3/melody_^2_^4_v3_v2_v1_v3_v2+_^3_^5+_.mp3"
"","1003.0799999949522","html-button-response","277","1251011","0.0-21.0-3.5","98183","","<p>Which tone was played third after the cadence?</p><p>Please respond as quickly and as accurately as possible!</p>","4","","3","new_stimuli/mp3/melody_^2_^4_v3_v2_v1_v3_v2+_^3_^5+_.mp3"
"","1063.7899999856018","html-button-response","278","1252076","0.0-21.0-4.5","98183","","<p>Which tone was played fourth after the cadence?</p><p>Please respond as quickly and as accurately as possible!</p>","2","","4","new_stimuli/mp3/melody_^2_^4_v3_v2_v1_v3_v2+_^3_^5+_.mp3"
"","1063.8649999746121","html-button-response","279","1253141","0.0-21.0-5.5","98183","","<p>Which tone was played fifth after the cadence?</p><p>Please respond as quickly and as accurately as possible!</p>","0","","5","new_stimuli/mp3/melody_^2_^4_v3_v2_v1_v3_v2+_^3_^5+_.mp3"
"","1459.0750000206754","html-button-response","280","1254601","0.0-21.0-6.5","98183","","<p>Which tone was played sixth after the cadence?</p><p>Please respond as quickly and as accurately as possible!</p>","4","","6","new_stimuli/mp3/melody_^2_^4_v3_v2_v1_v3_v2+_^3_^5+_.mp3"
"","982.5149999815039","html-button-response","281","1255585","0.0-21.0-7.5","98183","","<p>Which tone was played seventh after the cadence?</p><p>Please respond as quickly and as accurately as possible!</p>","3","","7","new_stimuli/mp3/melody_^2_^4_v3_v2_v1_v3_v2+_^3_^5+_.mp3"
"","1540.9550000331365","html-button-response","282","1257127","0.0-21.0-8.5","98183","","<p>Which tone was played eight after the cadence?</p><p>Please respond as quickly and as accurately as possible!</p>","4","","8","new_stimuli/mp3/melody_^2_^4_v3_v2_v1_v3_v2+_^3_^5+_.mp3"
"","1621.8849999713711","html-button-response","283","1258751","0.0-21.0-9.5","98183","","<p>Which tone was played nineth after the cadence?</p><p>Please respond as quickly and as accurately as possible!</p>","8","","9","new_stimuli/mp3/melody_^2_^4_v3_v2_v1_v3_v2+_^3_^5+_.mp3"
"","null","audio-keyboard-response","284","1271442","0.0-21.0-0.6","98183","","new_stimuli/mp3/melody_^2_^3_^4_^5_^6_v5_v4_v3_v2_buffer.mp3","","null","",""
"","1745.6200000015087","html-button-response","285","1273205","0.0-21.0-1.6","98183","","<p>Which tone was played first after the cadence?</p><p>Please respond as quickly and as accurately as possible!</p>","2","","1","new_stimuli/mp3/melody_^2_^3_^4_^5_^6_v5_v4_v3_v2_buffer.mp3"
"","982.7599999844097","html-button-response","286","1274189","0.0-21.0-2.6","98183","","<p>Which tone was played second after the cadence?</p><p>Please respond as quickly and as accurately as possible!</p>","4","","2","new_stimuli/mp3/melody_^2_^3_^4_^5_^6_v5_v4_v3_v2_buffer.mp3"
"","819.7099999524653","html-button-response","287","1275010","0.0-21.0-3.6","98183","","<p>Which tone was played third after the cadence?</p><p>Please respond as quickly and as accurately as possible!</p>","5","","3","new_stimuli/mp3/melody_^2_^3_^4_^5_^6_v5_v4_v3_v2_buffer.mp3"
"","911.6599999833852","html-button-response","288","1275923","0.0-21.0-4.6","98183","","<p>Which tone was played fourth after the cadence?</p><p>Please respond as quickly and as accurately as possible!</p>","7","","4","new_stimuli/mp3/melody_^2_^3_^4_^5_^6_v5_v4_v3_v2_buffer.mp3"
"","982.4449999723583","html-button-response","289","1276907","0.0-21.0-5.6","98183","","<p>Which tone was played fifth after the cadence?</p><p>Please respond as quickly and as accurately as possible!</p>","9","","5","new_stimuli/mp3/melody_^2_^3_^4_^5_^6_v5_v4_v3_v2_buffer.mp3"
"","1002.9050000011921","html-button-response","290","1277911","0.0-21.0-6.6","98183","","<p>Which tone was played sixth after the cadence?</p><p>Please respond as quickly and as accurately as possible!</p>","7","","6","new_stimuli/mp3/melody_^2_^3_^4_^5_^6_v5_v4_v3_v2_buffer.mp3"
"","1387.879999994766","html-button-response","291","1279301","0.0-21.0-7.6","98183","","<p>Which tone was played seventh after the cadence?</p><p>Please respond as quickly and as accurately as possible!</p>","5","","7","new_stimuli/mp3/melody_^2_^3_^4_^5_^6_v5_v4_v3_v2_buffer.mp3"
"","1114.25500002224","html-button-response","292","1280417","0.0-21.0-8.6","98183","","<p>Which tone was played eight after the cadence?</p><p>Please respond as quickly and as accurately as possible!</p>","4","","8","new_stimuli/mp3/melody_^2_^3_^4_^5_^6_v5_v4_v3_v2_buffer.mp3"
"","901.1799999861978","html-button-response","293","1281319","0.0-21.0-9.6","98183","","<p>Which tone was played nineth after the cadence?</p><p>Please respond as quickly and as accurately as possible!</p>","2","","9","new_stimuli/mp3/melody_^2_^3_^4_^5_^6_v5_v4_v3_v2_buffer.mp3"
"","101866.98499997146","survey-text","294","1383187","0.0-22.0","98183","{""Q0"":""For the longer ones (7 and 9 note patterns), I found that paying special attention to the first and final notes of the pattern and taking note of the contour helped tremendously.""}","","","","",""
"","7231.885000015609","survey-text","295","1390420","0.0-23.0","98183","{""Q0"":""""}","","","","",""
"","11684.26999996882","survey-text","296","1402105","0.0-24.0","98183","{""Q0"":""No""}","","","","",""
"","9026.089999999385","survey-text","297","1411132","0.0-25.0","98183","{""Q0"":""Laptop speakers""}","","","","",""
"","29865.244999993593","survey-text","298","1440998","0.0-26.0","98183","{""Q0"":""Male""}","","","","",""
"","6633.499999996275","survey-text","299","1447633","0.0-27.0","98183","{""Q0"":""Yes""}","","","","",""
"[{""page_index"":0,""viewing_time"":5677.1300000255}]","5677.399999985937","instructions","300","1453310","0.0-28.0","98183","","","","","",""
