"view_history","rt","trial_type","trial_index","time_elapsed","internal_node_id","subject","responses","stimulus","button_pressed","key_press","response_sequence","melody"
"[{""page_index"":0,""viewing_time"":5061.5999999999985},{""page_index"":1,""viewing_time"":3011.9999999997162},{""page_index"":2,""viewing_time"":3704.9999999999272}]","11797.899999999572","instructions","0","12173","0.0-0.0","98425","","","","","",""
"","4954.30000000033","survey-text","1","17148","0.0-1.0","98425","{""Q0"":""18""}","","","","",""
"","13142.100000000035","survey-text","2","30302","0.0-2.0","98425","{""Q0"":""No Higher Education""}","","","","",""
"","18642.499999999913","survey-text","3","48954","0.0-3.0","98425","{""Q0"":""Fixed-Do""}","","","","",""
"","7561.999999999884","survey-text","4","56525","0.0-4.0","98425","{""Q0"":""Yes""}","","","","",""
"","36728.90000000005","survey-text","5","93261","0.0-5.0","98425","{""Q0"":""1Semester""}","","","","",""
"","10800.400000000081","survey-text","6","104069","0.0-6.0","98425","{""Q0"":""0""}","","","","",""
"[{""page_index"":0,""viewing_time"":5413.999999999767},{""page_index"":1,""viewing_time"":4611.80000000057},{""page_index"":2,""viewing_time"":1898.6999999997497}]","11927.09999999989","instructions","7","116001","0.0-7.0","98425","","","","","",""
"","11584.499999999942","audio-button-response","8","127647","0.0-8.0","98425","","stimuli/long/c-do.mp3","0","","",""
"","9499.89999999979","audio-button-response","9","137159","0.0-9.0","98425","","stimuli/long/a-le.mp3","5","","",""
"[{""page_index"":0,""viewing_time"":5733.900000000198},{""page_index"":1,""viewing_time"":2157.9000000001397}]","7894.699999999837","instructions","10","145058","0.0-10.0","98425","","","","","",""
"","8053.300000000483","audio-button-response","11","153127","0.0-11.0-0.0","98425","","stimuli/long/a-te.mp3","7","","",""
"","9739.59999999989","audio-button-response","12","162884","0.0-11.0-0.1","98425","","stimuli/long/a-re.mp3","11","","",""
"","10877.79999999929","audio-button-response","13","173776","0.0-11.0-0.2","98425","","stimuli/long/e-te.mp3","2","","",""
"","8520.999999999738","audio-button-response","14","182311","0.0-11.0-0.3","98425","","stimuli/long/c-fa.mp3","5","","",""
"","11643.399999999936","audio-button-response","15","193969","0.0-11.0-0.4","98425","","stimuli/long/e-la.mp3","1","","",""
"","8978.699999999662","audio-button-response","16","202964","0.0-11.0-0.5","98425","","stimuli/long/e-do.mp3","4","","",""
"","7766.900000000518","audio-button-response","17","210748","0.0-11.0-0.6","98425","","stimuli/long/a-sol.mp3","4","","",""
"","11654.49999999965","audio-button-response","18","222418","0.0-11.0-0.7","98425","","stimuli/long/e-le.mp3","0","","",""
"","11020.90000000043","audio-button-response","19","233453","0.0-11.0-0.8","98425","","stimuli/long/c-mi.mp3","4","","",""
"","9365.89999999979","audio-button-response","20","242830","0.0-11.0-0.9","98425","","stimuli/long/c-me.mp3","3","","",""
"","9398.400000000023","audio-button-response","21","252239","0.0-11.0-0.10","98425","","stimuli/long/a-fi.mp3","3","","",""
"","15187.899999999907","audio-button-response","22","267534","0.0-11.0-0.11","98425","","stimuli/long/a-le.mp3","6","","",""
"","7936.999999999884","audio-button-response","23","275489","0.0-11.0-0.12","98425","","stimuli/long/e-do8.mp3","4","","",""
"","10426.99999999965","audio-button-response","24","285936","0.0-11.0-0.13","98425","","stimuli/long/e-mi.mp3","8","","",""
"","8682.300000000396","audio-button-response","25","294639","0.0-11.0-0.14","98425","","stimuli/long/e-fa.mp3","9","","",""
"","9049.899999999965","audio-button-response","26","303699","0.0-11.0-0.15","98425","","stimuli/long/a-mi.mp3","1","","",""
"","9425.59999999957","audio-button-response","27","313138","0.0-11.0-0.16","98425","","stimuli/long/a-ti.mp3","8","","",""
"","8168.599999999977","audio-button-response","28","321318","0.0-11.0-0.17","98425","","stimuli/long/a-do8.mp3","9","","",""
"","11758.499999999884","audio-button-response","29","333095","0.0-11.0-0.18","98425","","stimuli/long/e-fi.mp3","10","","",""
"","8266.700000000128","audio-button-response","30","341375","0.0-11.0-0.19","98425","","stimuli/long/c-le.mp3","8","","",""
"","13751.400000000081","audio-button-response","31","355140","0.0-11.0-0.20","98425","","stimuli/long/a-ra.mp3","10","","",""
"","8418.20000000007","audio-button-response","32","363571","0.0-11.0-0.21","98425","","stimuli/long/e-ra.mp3","5","","",""
"","13060.300000000105","audio-button-response","33","376647","0.0-11.0-0.22","98425","","stimuli/long/e-ti.mp3","3","","",""
"","8042.699999999953","audio-button-response","34","384706","0.0-11.0-0.23","98425","","stimuli/long/c-fi.mp3","6","","",""
"","7899.900000000314","audio-button-response","35","392622","0.0-11.0-0.24","98425","","stimuli/long/c-sol.mp3","7","","",""
"","10254.200000000303","audio-button-response","36","402889","0.0-11.0-0.25","98425","","stimuli/long/a-fa.mp3","2","","",""
"","8258.300000000454","audio-button-response","37","411165","0.0-11.0-0.26","98425","","stimuli/long/a-la.mp3","6","","",""
"","8272.899999999907","audio-button-response","38","419454","0.0-11.0-0.27","98425","","stimuli/long/c-la.mp3","9","","",""
"","8134.500000000116","audio-button-response","39","427601","0.0-11.0-0.28","98425","","stimuli/long/c-ti.mp3","11","","",""
"","7495.899999999907","audio-button-response","40","435114","0.0-11.0-0.29","98425","","stimuli/long/c-do8.mp3","12","","",""
"","7461.900000000198","audio-button-response","41","442589","0.0-11.0-0.30","98425","","stimuli/long/a-me.mp3","0","","",""
"","8873.000000000524","audio-button-response","42","451479","0.0-11.0-0.31","98425","","stimuli/long/e-sol.mp3","11","","",""
"","8126.999999999476","audio-button-response","43","459616","0.0-11.0-0.32","98425","","stimuli/long/e-re.mp3","6","","",""
"","8266.20000000007","audio-button-response","44","467894","0.0-11.0-0.33","98425","","stimuli/long/a-do.mp3","9","","",""
"","8403.600000000559","audio-button-response","45","476311","0.0-11.0-0.34","98425","","stimuli/long/c-re.mp3","2","","",""
"","7623.400000000431","audio-button-response","46","483944","0.0-11.0-0.35","98425","","stimuli/long/c-do.mp3","0","","",""
"","7749.0000000006985","audio-button-response","47","491704","0.0-11.0-0.36","98425","","stimuli/long/c-ra.mp3","1","","",""
"","7979.999999999534","audio-button-response","48","499701","0.0-11.0-0.37","98425","","stimuli/long/e-me.mp3","7","","",""
"[{""page_index"":0,""viewing_time"":81485.79999999946},{""page_index"":1,""viewing_time"":1780.9000000007218}]","83269.00000000023","instructions","49","582973","0.0-12.0","98425","","","","","",""
"","null","audio-keyboard-response","50","592482","0.0-13.0-0.0","98425","","new_stimuli/mp3/melody_v5_v1+_.mp3","","null","",""
"","2056.3999999995576","html-button-response","51","594554","0.0-13.0-1.0","98425","","<p>Which tone was played first after the cadence?</p><p>Please respond as quickly and as accurately as possible!</p>","7","","1","new_stimuli/mp3/melody_v5_v1+_.mp3"
"","2393.2999999996973","html-button-response","52","596959","0.0-13.0-2.0","98425","","<p>Which tone was played second after the cadence?</p><p>Please respond as quickly and as accurately as possible!</p>","1","","2","new_stimuli/mp3/melody_v5_v1+_.mp3"
"","null","audio-keyboard-response","53","605978","0.0-13.0-0.1","98425","","new_stimuli/mp3/melody_^1_^2+_.mp3","","null","",""
"","2202.500000000233","html-button-response","54","608193","0.0-13.0-1.1","98425","","<p>Which tone was played first after the cadence?</p><p>Please respond as quickly and as accurately as possible!</p>","0","","1","new_stimuli/mp3/melody_^1_^2+_.mp3"
"","2758.6999999994878","html-button-response","55","610965","0.0-13.0-2.1","98425","","<p>Which tone was played second after the cadence?</p><p>Please respond as quickly and as accurately as possible!</p>","3","","2","new_stimuli/mp3/melody_^1_^2+_.mp3"
"","null","audio-keyboard-response","56","620404","0.0-13.0-0.2","98425","","new_stimuli/mp3/melody_v4_v3_buffer.mp3","","null","",""
"","1429.100000000326","html-button-response","57","621847","0.0-13.0-1.2","98425","","<p>Which tone was played first after the cadence?</p><p>Please respond as quickly and as accurately as possible!</p>","5","","1","new_stimuli/mp3/melody_v4_v3_buffer.mp3"
"","799.1999999994878","html-button-response","58","622660","0.0-13.0-2.2","98425","","<p>Which tone was played second after the cadence?</p><p>Please respond as quickly and as accurately as possible!</p>","4","","2","new_stimuli/mp3/melody_v4_v3_buffer.mp3"
"","null","audio-keyboard-response","59","631835","0.0-13.0-0.3","98425","","new_stimuli/mp3/melody_^2_v7-_.mp3","","null","",""
"","2556.400000000489","html-button-response","60","634408","0.0-13.0-1.3","98425","","<p>Which tone was played first after the cadence?</p><p>Please respond as quickly and as accurately as possible!</p>","2","","1","new_stimuli/mp3/melody_^2_v7-_.mp3"
"","1472.799999999581","html-button-response","61","635895","0.0-13.0-2.3","98425","","<p>Which tone was played second after the cadence?</p><p>Please respond as quickly and as accurately as possible!</p>","10","","2","new_stimuli/mp3/melody_^2_v7-_.mp3"
"","null","audio-keyboard-response","62","644965","0.0-13.0-0.4","98425","","new_stimuli/mp3/melody_v2_v1_.mp3","","null","",""
"","2622.9000000003725","html-button-response","63","647604","0.0-13.0-1.4","98425","","<p>Which tone was played first after the cadence?</p><p>Please respond as quickly and as accurately as possible!</p>","2","","1","new_stimuli/mp3/melody_v2_v1_.mp3"
"","1086.4000000001397","html-button-response","64","648703","0.0-13.0-2.4","98425","","<p>Which tone was played second after the cadence?</p><p>Please respond as quickly and as accurately as possible!</p>","0","","2","new_stimuli/mp3/melody_v2_v1_.mp3"
"","null","audio-keyboard-response","65","657833","0.0-13.0-0.5","98425","","new_stimuli/mp3/melody_^5_^1+_.mp3","","null","",""
"","1968.199999999255","html-button-response","66","659818","0.0-13.0-1.5","98425","","<p>Which tone was played first after the cadence?</p><p>Please respond as quickly and as accurately as possible!</p>","7","","1","new_stimuli/mp3/melody_^5_^1+_.mp3"
"","1632.0999999997439","html-button-response","67","661459","0.0-13.0-2.5","98425","","<p>Which tone was played second after the cadence?</p><p>Please respond as quickly and as accurately as possible!</p>","1","","2","new_stimuli/mp3/melody_^5_^1+_.mp3"
"","null","audio-keyboard-response","68","670716","0.0-13.0-0.6","98425","","new_stimuli/mp3/melody_3_^6_buffer.mp3","","null","",""
"","2029.300000000163","html-button-response","69","672760","0.0-13.0-1.6","98425","","<p>Which tone was played first after the cadence?</p><p>Please respond as quickly and as accurately as possible!</p>","4","","1","new_stimuli/mp3/melody_3_^6_buffer.mp3"
"","1495.7999999996973","html-button-response","70","674274","0.0-13.0-2.6","98425","","<p>Which tone was played second after the cadence?</p><p>Please respond as quickly and as accurately as possible!</p>","9","","2","new_stimuli/mp3/melody_3_^6_buffer.mp3"
"","null","audio-keyboard-response","71","683448","0.0-13.0-0.7","98425","","new_stimuli/mp3/melody_v3_v2_buffer.mp3","","null","",""
"","1839.4000000007218","html-button-response","72","685300","0.0-13.0-1.7","98425","","<p>Which tone was played first after the cadence?</p><p>Please respond as quickly and as accurately as possible!</p>","4","","1","new_stimuli/mp3/melody_v3_v2_buffer.mp3"
"","1378.2000000000698","html-button-response","73","686689","0.0-13.0-2.7","98425","","<p>Which tone was played second after the cadence?</p><p>Please respond as quickly and as accurately as possible!</p>","2","","2","new_stimuli/mp3/melody_v3_v2_buffer.mp3"
"","null","audio-keyboard-response","74","696159","0.0-13.0-0.8","98425","","new_stimuli/mp3/melody_v7_v3_buffer.mp3","","null","",""
"","2048.8999999997905","html-button-response","75","698224","0.0-13.0-1.8","98425","","<p>Which tone was played first after the cadence?</p><p>Please respond as quickly and as accurately as possible!</p>","11","","1","new_stimuli/mp3/melody_v7_v3_buffer.mp3"
"","1255.100000000326","html-button-response","76","699493","0.0-13.0-2.8","98425","","<p>Which tone was played second after the cadence?</p><p>Please respond as quickly and as accurately as possible!</p>","4","","2","new_stimuli/mp3/melody_v7_v3_buffer.mp3"
"","null","audio-keyboard-response","77","708968","0.0-13.0-0.9","98425","","new_stimuli/mp3/melody_^3_v4+_buffer.mp3","","null","",""
"","1907.9999999995343","html-button-response","78","710890","0.0-13.0-1.9","98425","","<p>Which tone was played first after the cadence?</p><p>Please respond as quickly and as accurately as possible!</p>","4","","1","new_stimuli/mp3/melody_^3_v4+_buffer.mp3"
"","867.4000000000233","html-button-response","79","711778","0.0-13.0-2.9","98425","","<p>Which tone was played second after the cadence?</p><p>Please respond as quickly and as accurately as possible!</p>","6","","2","new_stimuli/mp3/melody_^3_v4+_buffer.mp3"
"[{""page_index"":0,""viewing_time"":27367.699999999837},{""page_index"":1,""viewing_time"":2572.4000000000233},{""page_index"":2,""viewing_time"":2237.100000000326}]","32180.499999999534","instructions","80","743961","0.0-14.0","98425","","","","","",""
"","null","audio-keyboard-response","81","754246","0.0-15.0-0.0","98425","","new_stimuli/mp3/melody_v5_v4_v3_buffer.mp3","","null","",""
"","1297.1000000006752","html-button-response","82","755554","0.0-15.0-1.0","98425","","<p>Which tone was played first after the cadence?</p><p>Please respond as quickly and as accurately as possible!</p>","7","","1","new_stimuli/mp3/melody_v5_v4_v3_buffer.mp3"
"","1572.7999999999302","html-button-response","83","757137","0.0-15.0-2.0","98425","","<p>Which tone was played second after the cadence?</p><p>Please respond as quickly and as accurately as possible!</p>","5","","2","new_stimuli/mp3/melody_v5_v4_v3_buffer.mp3"
"","1810.6999999999534","html-button-response","84","758960","0.0-15.0-3.0","98425","","<p>Which tone was played third after the cadence?</p><p>Please respond as quickly and as accurately as possible!</p>","4","","3","new_stimuli/mp3/melody_v5_v4_v3_buffer.mp3"
"","null","audio-keyboard-response","85","768570","0.0-15.0-0.1","98425","","new_stimuli/mp3/melody_6_^1_v5_.mp3","","null","",""
"","1817.5000000001164","html-button-response","86","770400","0.0-15.0-1.1","98425","","<p>Which tone was played first after the cadence?</p><p>Please respond as quickly and as accurately as possible!</p>","9","","1","new_stimuli/mp3/melody_6_^1_v5_.mp3"
"","1307.5999999991618","html-button-response","87","771718","0.0-15.0-2.1","98425","","<p>Which tone was played second after the cadence?</p><p>Please respond as quickly and as accurately as possible!</p>","12","","2","new_stimuli/mp3/melody_6_^1_v5_.mp3"
"","937.1000000000931","html-button-response","88","772666","0.0-15.0-3.1","98425","","<p>Which tone was played third after the cadence?</p><p>Please respond as quickly and as accurately as possible!</p>","7","","3","new_stimuli/mp3/melody_6_^1_v5_.mp3"
"","null","audio-keyboard-response","89","782149","0.0-15.0-0.2","98425","","new_stimuli/mp3/melody_1_v1+_^2_.mp3","","null","",""
"","1171.5999999996275","html-button-response","90","783333","0.0-15.0-1.2","98425","","<p>Which tone was played first after the cadence?</p><p>Please respond as quickly and as accurately as possible!</p>","0","","1","new_stimuli/mp3/melody_1_v1+_^2_.mp3"
"","687.8999999999069","html-button-response","91","784034","0.0-15.0-2.2","98425","","<p>Which tone was played second after the cadence?</p><p>Please respond as quickly and as accurately as possible!</p>","1","","2","new_stimuli/mp3/melody_1_v1+_^2_.mp3"
"","698.800000000163","html-button-response","92","784744","0.0-15.0-3.2","98425","","<p>Which tone was played third after the cadence?</p><p>Please respond as quickly and as accurately as possible!</p>","2","","3","new_stimuli/mp3/melody_1_v1+_^2_.mp3"
"","null","audio-keyboard-response","93","794364","0.0-15.0-0.3","98425","","new_stimuli/mp3/melody_v3_v2_v1_.mp3","","null","",""
"","1418.899999999674","html-button-response","94","795797","0.0-15.0-1.3","98425","","<p>Which tone was played first after the cadence?</p><p>Please respond as quickly and as accurately as possible!</p>","4","","1","new_stimuli/mp3/melody_v3_v2_v1_.mp3"
"","1313.2000000005355","html-button-response","95","797120","0.0-15.0-2.3","98425","","<p>Which tone was played second after the cadence?</p><p>Please respond as quickly and as accurately as possible!</p>","2","","2","new_stimuli/mp3/melody_v3_v2_v1_.mp3"
"","895.5000000005821","html-button-response","96","798026","0.0-15.0-3.3","98425","","<p>Which tone was played third after the cadence?</p><p>Please respond as quickly and as accurately as possible!</p>","0","","3","new_stimuli/mp3/melody_v3_v2_v1_.mp3"
"","null","audio-keyboard-response","97","807597","0.0-15.0-0.4","98425","","new_stimuli/mp3/melody_v1_v7-_7-_buffer.mp3","","null","",""
"","3233.8999999992084","html-button-response","98","810847","0.0-15.0-1.4","98425","","<p>Which tone was played first after the cadence?</p><p>Please respond as quickly and as accurately as possible!</p>","12","","1","new_stimuli/mp3/melody_v1_v7-_7-_buffer.mp3"
"","750.9999999993015","html-button-response","99","811614","0.0-15.0-2.4","98425","","<p>Which tone was played second after the cadence?</p><p>Please respond as quickly and as accurately as possible!</p>","10","","2","new_stimuli/mp3/melody_v1_v7-_7-_buffer.mp3"
"","748.7000000000698","html-button-response","100","812376","0.0-15.0-3.4","98425","","<p>Which tone was played third after the cadence?</p><p>Please respond as quickly and as accurately as possible!</p>","10","","3","new_stimuli/mp3/melody_v1_v7-_7-_buffer.mp3"
"","null","audio-keyboard-response","101","821939","0.0-15.0-0.5","98425","","new_stimuli/mp3/melody_v1_v7-_^7_.mp3","","null","",""
"","1394.0999999996275","html-button-response","102","823348","0.0-15.0-1.5","98425","","<p>Which tone was played first after the cadence?</p><p>Please respond as quickly and as accurately as possible!</p>","12","","1","new_stimuli/mp3/melody_v1_v7-_^7_.mp3"
"","835.1999999994878","html-button-response","103","824198","0.0-15.0-2.5","98425","","<p>Which tone was played second after the cadence?</p><p>Please respond as quickly and as accurately as possible!</p>","10","","2","new_stimuli/mp3/melody_v1_v7-_^7_.mp3"
"","710.0000000001164","html-button-response","104","824919","0.0-15.0-3.5","98425","","<p>Which tone was played third after the cadence?</p><p>Please respond as quickly and as accurately as possible!</p>","11","","3","new_stimuli/mp3/melody_v1_v7-_^7_.mp3"
"","null","audio-keyboard-response","105","834864","0.0-15.0-0.6","98425","","new_stimuli/mp3/melody_v2_v5_^3_buffer.mp3","","null","",""
"","1824.5000000006985","html-button-response","106","836696","0.0-15.0-1.6","98425","","<p>Which tone was played first after the cadence?</p><p>Please respond as quickly and as accurately as possible!</p>","2","","1","new_stimuli/mp3/melody_v2_v5_^3_buffer.mp3"
"","1125","html-button-response","107","837835","0.0-15.0-2.6","98425","","<p>Which tone was played second after the cadence?</p><p>Please respond as quickly and as accurately as possible!</p>","7","","2","new_stimuli/mp3/melody_v2_v5_^3_buffer.mp3"
"","895.0999999997439","html-button-response","108","838741","0.0-15.0-3.6","98425","","<p>Which tone was played third after the cadence?</p><p>Please respond as quickly and as accurately as possible!</p>","4","","3","new_stimuli/mp3/melody_v2_v5_^3_buffer.mp3"
"","null","audio-keyboard-response","109","848470","0.0-15.0-0.7","98425","","new_stimuli/mp3/melody_v4_v3_v2_buffer.mp3","","null","",""
"","1299","html-button-response","110","849786","0.0-15.0-1.7","98425","","<p>Which tone was played first after the cadence?</p><p>Please respond as quickly and as accurately as possible!</p>","5","","1","new_stimuli/mp3/melody_v4_v3_v2_buffer.mp3"
"","1164.6999999993714","html-button-response","111","850965","0.0-15.0-2.7","98425","","<p>Which tone was played second after the cadence?</p><p>Please respond as quickly and as accurately as possible!</p>","4","","2","new_stimuli/mp3/melody_v4_v3_v2_buffer.mp3"
"","1512.9000000006054","html-button-response","112","852491","0.0-15.0-3.7","98425","","<p>Which tone was played third after the cadence?</p><p>Please respond as quickly and as accurately as possible!</p>","2","","3","new_stimuli/mp3/melody_v4_v3_v2_buffer.mp3"
"","null","audio-keyboard-response","113","862413","0.0-15.0-0.8","98425","","new_stimuli/mp3/melody_^1_v6_v5+_.mp3","","null","",""
"","1257.3000000002794","html-button-response","114","863685","0.0-15.0-1.8","98425","","<p>Which tone was played first after the cadence?</p><p>Please respond as quickly and as accurately as possible!</p>","12","","1","new_stimuli/mp3/melody_^1_v6_v5+_.mp3"
"","2753.399999999674","html-button-response","115","866451","0.0-15.0-2.8","98425","","<p>Which tone was played second after the cadence?</p><p>Please respond as quickly and as accurately as possible!</p>","8","","2","new_stimuli/mp3/melody_^1_v6_v5+_.mp3"
"","766.9000000006054","html-button-response","116","867229","0.0-15.0-3.8","98425","","<p>Which tone was played third after the cadence?</p><p>Please respond as quickly and as accurately as possible!</p>","7","","3","new_stimuli/mp3/melody_^1_v6_v5+_.mp3"
"[{""page_index"":0,""viewing_time"":3900.3999999995576},{""page_index"":1,""viewing_time"":896.7000000001863},{""page_index"":2,""viewing_time"":1422.0000000004657}]","6222.300000000396","instructions","117","873458","0.0-16.0","98425","","","","","",""
"","null","audio-keyboard-response","118","884419","0.0-17.0-0.0","98425","","new_stimuli/mp3/melody_^5_^6_v5_v4_v3_buffer.mp3","","null","",""
"","1278.699999999837","html-button-response","119","885715","0.0-17.0-1.0","98425","","<p>Which tone was played first after the cadence?</p><p>Please respond as quickly and as accurately as possible!</p>","7","","1","new_stimuli/mp3/melody_^5_^6_v5_v4_v3_buffer.mp3"
"","831.8000000008615","html-button-response","120","886559","0.0-17.0-2.0","98425","","<p>Which tone was played second after the cadence?</p><p>Please respond as quickly and as accurately as possible!</p>","9","","2","new_stimuli/mp3/melody_^5_^6_v5_v4_v3_buffer.mp3"
"","903.0000000002328","html-button-response","121","887472","0.0-17.0-3.0","98425","","<p>Which tone was played third after the cadence?</p><p>Please respond as quickly and as accurately as possible!</p>","7","","3","new_stimuli/mp3/melody_^5_^6_v5_v4_v3_buffer.mp3"
"","753.4999999998836","html-button-response","122","888238","0.0-17.0-4.0","98425","","<p>Which tone was played fourth after the cadence?</p><p>Please respond as quickly and as accurately as possible!</p>","5","","4","new_stimuli/mp3/melody_^5_^6_v5_v4_v3_buffer.mp3"
"","723.3999999999069","html-button-response","123","888972","0.0-17.0-5.0","98425","","<p>Which tone was played fifth after the cadence?</p><p>Please respond as quickly and as accurately as possible!</p>","4","","5","new_stimuli/mp3/melody_^5_^6_v5_v4_v3_buffer.mp3"
"","null","audio-keyboard-response","124","899651","0.0-17.0-0.1","98425","","new_stimuli/mp3/melody_v5_^6+_^7_^1_5_.mp3","","null","",""
"","1221.9000000003725","html-button-response","125","900888","0.0-17.0-1.1","98425","","<p>Which tone was played first after the cadence?</p><p>Please respond as quickly and as accurately as possible!</p>","7","","1","new_stimuli/mp3/melody_v5_^6+_^7_^1_5_.mp3"
"","729.9000000002561","html-button-response","126","901632","0.0-17.0-2.1","98425","","<p>Which tone was played second after the cadence?</p><p>Please respond as quickly and as accurately as possible!</p>","9","","2","new_stimuli/mp3/melody_v5_^6+_^7_^1_5_.mp3"
"","1170.4000000000233","html-button-response","127","902815","0.0-17.0-3.1","98425","","<p>Which tone was played third after the cadence?</p><p>Please respond as quickly and as accurately as possible!</p>","11","","3","new_stimuli/mp3/melody_v5_^6+_^7_^1_5_.mp3"
"","712.0000000004657","html-button-response","128","903538","0.0-17.0-4.1","98425","","<p>Which tone was played fourth after the cadence?</p><p>Please respond as quickly and as accurately as possible!</p>","12","","4","new_stimuli/mp3/melody_v5_^6+_^7_^1_5_.mp3"
"","968.7000000004191","html-button-response","129","904518","0.0-17.0-5.1","98425","","<p>Which tone was played fifth after the cadence?</p><p>Please respond as quickly and as accurately as possible!</p>","7","","5","new_stimuli/mp3/melody_v5_^6+_^7_^1_5_.mp3"
"","null","audio-keyboard-response","130","915074","0.0-17.0-0.2","98425","","new_stimuli/mp3/melody_v2_2_^3_^4_v2_.mp3","","null","",""
"","1038.1999999999534","html-button-response","131","916125","0.0-17.0-1.2","98425","","<p>Which tone was played first after the cadence?</p><p>Please respond as quickly and as accurately as possible!</p>","2","","1","new_stimuli/mp3/melody_v2_2_^3_^4_v2_.mp3"
"","747.1000000005588","html-button-response","132","916885","0.0-17.0-2.2","98425","","<p>Which tone was played second after the cadence?</p><p>Please respond as quickly and as accurately as possible!</p>","2","","2","new_stimuli/mp3/melody_v2_2_^3_^4_v2_.mp3"
"","734.0999999997439","html-button-response","133","917632","0.0-17.0-3.2","98425","","<p>Which tone was played third after the cadence?</p><p>Please respond as quickly and as accurately as possible!</p>","4","","3","new_stimuli/mp3/melody_v2_2_^3_^4_v2_.mp3"
"","729.0000000002328","html-button-response","134","918373","0.0-17.0-4.2","98425","","<p>Which tone was played fourth after the cadence?</p><p>Please respond as quickly and as accurately as possible!</p>","5","","4","new_stimuli/mp3/melody_v2_2_^3_^4_v2_.mp3"
"","1024.0000000003492","html-button-response","135","919409","0.0-17.0-5.2","98425","","<p>Which tone was played fifth after the cadence?</p><p>Please respond as quickly and as accurately as possible!</p>","2","","5","new_stimuli/mp3/melody_v2_2_^3_^4_v2_.mp3"
"","null","audio-keyboard-response","136","930059","0.0-17.0-0.3","98425","","new_stimuli/mp3/melody_^6_v4_v3_^4_^5_.mp3","","null","",""
"","1521.6000000000931","html-button-response","137","931597","0.0-17.0-1.3","98425","","<p>Which tone was played first after the cadence?</p><p>Please respond as quickly and as accurately as possible!</p>","9","","1","new_stimuli/mp3/melody_^6_v4_v3_^4_^5_.mp3"
"","1763.5","html-button-response","138","933371","0.0-17.0-2.3","98425","","<p>Which tone was played second after the cadence?</p><p>Please respond as quickly and as accurately as possible!</p>","5","","2","new_stimuli/mp3/melody_^6_v4_v3_^4_^5_.mp3"
"","734.6000000006752","html-button-response","139","934119","0.0-17.0-3.3","98425","","<p>Which tone was played third after the cadence?</p><p>Please respond as quickly and as accurately as possible!</p>","4","","3","new_stimuli/mp3/melody_^6_v4_v3_^4_^5_.mp3"
"","690.900000000489","html-button-response","140","934819","0.0-17.0-4.3","98425","","<p>Which tone was played fourth after the cadence?</p><p>Please respond as quickly and as accurately as possible!</p>","5","","4","new_stimuli/mp3/melody_^6_v4_v3_^4_^5_.mp3"
"","878.8000000003958","html-button-response","141","935708","0.0-17.0-5.3","98425","","<p>Which tone was played fifth after the cadence?</p><p>Please respond as quickly and as accurately as possible!</p>","7","","5","new_stimuli/mp3/melody_^6_v4_v3_^4_^5_.mp3"
"","null","audio-keyboard-response","142","946460","0.0-17.0-0.4","98425","","new_stimuli/mp3/melody_^6_v5_v4_v3_v2_buffer.mp3","","null","",""
"","1275.1000000007916","html-button-response","143","947751","0.0-17.0-1.4","98425","","<p>Which tone was played first after the cadence?</p><p>Please respond as quickly and as accurately as possible!</p>","9","","1","new_stimuli/mp3/melody_^6_v5_v4_v3_v2_buffer.mp3"
"","1258.3000000003958","html-button-response","144","949026","0.0-17.0-2.4","98425","","<p>Which tone was played second after the cadence?</p><p>Please respond as quickly and as accurately as possible!</p>","7","","2","new_stimuli/mp3/melody_^6_v5_v4_v3_v2_buffer.mp3"
"","842.4999999997672","html-button-response","145","949883","0.0-17.0-3.4","98425","","<p>Which tone was played third after the cadence?</p><p>Please respond as quickly and as accurately as possible!</p>","5","","3","new_stimuli/mp3/melody_^6_v5_v4_v3_v2_buffer.mp3"
"","652.5000000002328","html-button-response","146","950549","0.0-17.0-4.4","98425","","<p>Which tone was played fourth after the cadence?</p><p>Please respond as quickly and as accurately as possible!</p>","4","","4","new_stimuli/mp3/melody_^6_v5_v4_v3_v2_buffer.mp3"
"","1065.0999999997439","html-button-response","147","951629","0.0-17.0-5.4","98425","","<p>Which tone was played fifth after the cadence?</p><p>Please respond as quickly and as accurately as possible!</p>","2","","5","new_stimuli/mp3/melody_^6_v5_v4_v3_v2_buffer.mp3"
"","null","audio-keyboard-response","148","962190","0.0-17.0-0.5","98425","","new_stimuli/mp3/melody_v5_v4_v3_v2_v1 _buffer.mp3","","null","",""
"","2165.3000000005122","html-button-response","149","964371","0.0-17.0-1.5","98425","","<p>Which tone was played first after the cadence?</p><p>Please respond as quickly and as accurately as possible!</p>","7","","1","new_stimuli/mp3/melody_v5_v4_v3_v2_v1 _buffer.mp3"
"","761.6000000007916","html-button-response","150","965147","0.0-17.0-2.5","98425","","<p>Which tone was played second after the cadence?</p><p>Please respond as quickly and as accurately as possible!</p>","5","","2","new_stimuli/mp3/melody_v5_v4_v3_v2_v1 _buffer.mp3"
"","687.5999999992782","html-button-response","151","965849","0.0-17.0-3.5","98425","","<p>Which tone was played third after the cadence?</p><p>Please respond as quickly and as accurately as possible!</p>","4","","3","new_stimuli/mp3/melody_v5_v4_v3_v2_v1 _buffer.mp3"
"","1344","html-button-response","152","967204","0.0-17.0-4.5","98425","","<p>Which tone was played fourth after the cadence?</p><p>Please respond as quickly and as accurately as possible!</p>","2","","4","new_stimuli/mp3/melody_v5_v4_v3_v2_v1 _buffer.mp3"
"","756.5000000004657","html-button-response","153","967972","0.0-17.0-5.5","98425","","<p>Which tone was played fifth after the cadence?</p><p>Please respond as quickly and as accurately as possible!</p>","0","","5","new_stimuli/mp3/melody_v5_v4_v3_v2_v1 _buffer.mp3"
"","null","audio-keyboard-response","154","978890","0.0-17.0-0.6","98425","","new_stimuli/mp3/melody_v5-_v3_3_^4+_v3_.mp3","","null","",""
"","1769.1999999997206","html-button-response","155","980674","0.0-17.0-1.6","98425","","<p>Which tone was played first after the cadence?</p><p>Please respond as quickly and as accurately as possible!</p>","6","","1","new_stimuli/mp3/melody_v5-_v3_3_^4+_v3_.mp3"
"","912.0000000003492","html-button-response","156","981598","0.0-17.0-2.6","98425","","<p>Which tone was played second after the cadence?</p><p>Please respond as quickly and as accurately as possible!</p>","4","","2","new_stimuli/mp3/melody_v5-_v3_3_^4+_v3_.mp3"
"","742.599999999511","html-button-response","157","982351","0.0-17.0-3.6","98425","","<p>Which tone was played third after the cadence?</p><p>Please respond as quickly and as accurately as possible!</p>","4","","3","new_stimuli/mp3/melody_v5-_v3_3_^4+_v3_.mp3"
"","842.0000000005821","html-button-response","158","983208","0.0-17.0-4.6","98425","","<p>Which tone was played fourth after the cadence?</p><p>Please respond as quickly and as accurately as possible!</p>","6","","4","new_stimuli/mp3/melody_v5-_v3_3_^4+_v3_.mp3"
"","853.3999999999069","html-button-response","159","984076","0.0-17.0-5.6","98425","","<p>Which tone was played fifth after the cadence?</p><p>Please respond as quickly and as accurately as possible!</p>","4","","5","new_stimuli/mp3/melody_v5-_v3_3_^4+_v3_.mp3"
"","null","audio-keyboard-response","160","994634","0.0-17.0-0.7","98425","","new_stimuli/mp3/melody_v5_v4_v3_v2_v1_.mp3","","null","",""
"","3173.6999999993714","html-button-response","161","997825","0.0-17.0-1.7","98425","","<p>Which tone was played first after the cadence?</p><p>Please respond as quickly and as accurately as possible!</p>","7","","1","new_stimuli/mp3/melody_v5_v4_v3_v2_v1_.mp3"
"","813.4000000000233","html-button-response","162","998654","0.0-17.0-2.7","98425","","<p>Which tone was played second after the cadence?</p><p>Please respond as quickly and as accurately as possible!</p>","5","","2","new_stimuli/mp3/melody_v5_v4_v3_v2_v1_.mp3"
"","751.6000000004424","html-button-response","163","999418","0.0-17.0-3.7","98425","","<p>Which tone was played third after the cadence?</p><p>Please respond as quickly and as accurately as possible!</p>","4","","3","new_stimuli/mp3/melody_v5_v4_v3_v2_v1_.mp3"
"","1012.7000000003027","html-button-response","164","1000439","0.0-17.0-4.7","98425","","<p>Which tone was played fourth after the cadence?</p><p>Please respond as quickly and as accurately as possible!</p>","2","","4","new_stimuli/mp3/melody_v5_v4_v3_v2_v1_.mp3"
"","816.6000000000931","html-button-response","165","1001266","0.0-17.0-5.7","98425","","<p>Which tone was played fifth after the cadence?</p><p>Please respond as quickly and as accurately as possible!</p>","0","","5","new_stimuli/mp3/melody_v5_v4_v3_v2_v1_.mp3"
"[{""page_index"":0,""viewing_time"":2636.100000000559},{""page_index"":1,""viewing_time"":3913.5999999998603},{""page_index"":2,""viewing_time"":823.6999999999534}]","7375.700000000419","instructions","166","1008647","0.0-18.0","98425","","","","","",""
"","null","audio-keyboard-response","167","1020342","0.0-19.0-0.0","98425","","new_stimuli/mp3/melody_^6_v5+_v4_^5+_v3_v1_v7-_.mp3","","null","",""
"","1940.9000000003725","html-button-response","168","1022297","0.0-19.0-1.0","98425","","<p>Which tone was played first after the cadence?</p><p>Please respond as quickly and as accurately as possible!</p>","9","","1","new_stimuli/mp3/melody_^6_v5+_v4_^5+_v3_v1_v7-_.mp3"
"","885.5999999996275","html-button-response","169","1023194","0.0-19.0-2.0","98425","","<p>Which tone was played second after the cadence?</p><p>Please respond as quickly and as accurately as possible!</p>","8","","2","new_stimuli/mp3/melody_^6_v5+_v4_^5+_v3_v1_v7-_.mp3"
"","614.7000000001863","html-button-response","170","1023821","0.0-19.0-3.0","98425","","<p>Which tone was played third after the cadence?</p><p>Please respond as quickly and as accurately as possible!</p>","9","","3","new_stimuli/mp3/melody_^6_v5+_v4_^5+_v3_v1_v7-_.mp3"
"","988.2999999998137","html-button-response","171","1024826","0.0-19.0-4.0","98425","","<p>Which tone was played fourth after the cadence?</p><p>Please respond as quickly and as accurately as possible!</p>","5","","4","new_stimuli/mp3/melody_^6_v5+_v4_^5+_v3_v1_v7-_.mp3"
"","860.2999999993481","html-button-response","172","1025699","0.0-19.0-5.0","98425","","<p>Which tone was played fifth after the cadence?</p><p>Please respond as quickly and as accurately as possible!</p>","4","","5","new_stimuli/mp3/melody_^6_v5+_v4_^5+_v3_v1_v7-_.mp3"
"","1099.5999999993946","html-button-response","173","1026807","0.0-19.0-6.0","98425","","<p>Which tone was played sixth after the cadence?</p><p>Please respond as quickly and as accurately as possible!</p>","0","","6","new_stimuli/mp3/melody_^6_v5+_v4_^5+_v3_v1_v7-_.mp3"
"","1970.9000000001397","html-button-response","174","1028792","0.0-19.0-7.0","98425","","<p>Which tone was played seventh after the cadence?</p><p>Please respond as quickly and as accurately as possible!</p>","11","","7","new_stimuli/mp3/melody_^6_v5+_v4_^5+_v3_v1_v7-_.mp3"
"","null","audio-keyboard-response","175","1040391","0.0-19.0-0.1","98425","","new_stimuli/mp3/melody_^5_^6_v5_v4_v3_v2_v1_buffer.mp3","","null","",""
"","1675.5999999996275","html-button-response","176","1042082","0.0-19.0-1.1","98425","","<p>Which tone was played first after the cadence?</p><p>Please respond as quickly and as accurately as possible!</p>","7","","1","new_stimuli/mp3/melody_^5_^6_v5_v4_v3_v2_v1_buffer.mp3"
"","736.9999999993015","html-button-response","177","1042832","0.0-19.0-2.1","98425","","<p>Which tone was played second after the cadence?</p><p>Please respond as quickly and as accurately as possible!</p>","9","","2","new_stimuli/mp3/melody_^5_^6_v5_v4_v3_v2_v1_buffer.mp3"
"","772.4000000008382","html-button-response","178","1043617","0.0-19.0-3.1","98425","","<p>Which tone was played third after the cadence?</p><p>Please respond as quickly and as accurately as possible!</p>","7","","3","new_stimuli/mp3/melody_^5_^6_v5_v4_v3_v2_v1_buffer.mp3"
"","730.4000000003725","html-button-response","179","1044357","0.0-19.0-4.1","98425","","<p>Which tone was played fourth after the cadence?</p><p>Please respond as quickly and as accurately as possible!</p>","5","","4","new_stimuli/mp3/melody_^5_^6_v5_v4_v3_v2_v1_buffer.mp3"
"","613.5000000002328","html-button-response","180","1044981","0.0-19.0-5.1","98425","","<p>Which tone was played fifth after the cadence?</p><p>Please respond as quickly and as accurately as possible!</p>","4","","5","new_stimuli/mp3/melody_^5_^6_v5_v4_v3_v2_v1_buffer.mp3"
"","633.6999999994878","html-button-response","181","1045630","0.0-19.0-6.1","98425","","<p>Which tone was played sixth after the cadence?</p><p>Please respond as quickly and as accurately as possible!</p>","2","","6","new_stimuli/mp3/melody_^5_^6_v5_v4_v3_v2_v1_buffer.mp3"
"","516.0999999998603","html-button-response","182","1046156","0.0-19.0-7.1","98425","","<p>Which tone was played seventh after the cadence?</p><p>Please respond as quickly and as accurately as possible!</p>","0","","7","new_stimuli/mp3/melody_^5_^6_v5_v4_v3_v2_v1_buffer.mp3"
"","null","audio-keyboard-response","183","1057847","0.0-19.0-0.2","98425","","new_stimuli/mp3/melody_^4_^5_^6_v5_v4_v3_v2_.mp3","","null","",""
"","1228.5999999993946","html-button-response","184","1059093","0.0-19.0-1.2","98425","","<p>Which tone was played first after the cadence?</p><p>Please respond as quickly and as accurately as possible!</p>","5","","1","new_stimuli/mp3/melody_^4_^5_^6_v5_v4_v3_v2_.mp3"
"","785.4999999997672","html-button-response","185","1059892","0.0-19.0-2.2","98425","","<p>Which tone was played second after the cadence?</p><p>Please respond as quickly and as accurately as possible!</p>","7","","2","new_stimuli/mp3/melody_^4_^5_^6_v5_v4_v3_v2_.mp3"
"","836.2999999998137","html-button-response","186","1060740","0.0-19.0-3.2","98425","","<p>Which tone was played third after the cadence?</p><p>Please respond as quickly and as accurately as possible!</p>","9","","3","new_stimuli/mp3/melody_^4_^5_^6_v5_v4_v3_v2_.mp3"
"","718.0999999998603","html-button-response","187","1061470","0.0-19.0-4.2","98425","","<p>Which tone was played fourth after the cadence?</p><p>Please respond as quickly and as accurately as possible!</p>","7","","4","new_stimuli/mp3/melody_^4_^5_^6_v5_v4_v3_v2_.mp3"
"","578.0000000004657","html-button-response","188","1062060","0.0-19.0-5.2","98425","","<p>Which tone was played fifth after the cadence?</p><p>Please respond as quickly and as accurately as possible!</p>","5","","5","new_stimuli/mp3/melody_^4_^5_^6_v5_v4_v3_v2_.mp3"
"","560.8000000000466","html-button-response","189","1062631","0.0-19.0-6.2","98425","","<p>Which tone was played sixth after the cadence?</p><p>Please respond as quickly and as accurately as possible!</p>","4","","6","new_stimuli/mp3/melody_^4_^5_^6_v5_v4_v3_v2_.mp3"
"","719.3000000007451","html-button-response","190","1063360","0.0-19.0-7.2","98425","","<p>Which tone was played seventh after the cadence?</p><p>Please respond as quickly and as accurately as possible!</p>","2","","7","new_stimuli/mp3/melody_^4_^5_^6_v5_v4_v3_v2_.mp3"
"","null","audio-keyboard-response","191","1075088","0.0-19.0-0.3","98425","","new_stimuli/mp3/melody_^1_v7_v6_v5_v4_v3_v2_buffer.mp3","","null","",""
"","1895.0000000004657","html-button-response","192","1076999","0.0-19.0-1.3","98425","","<p>Which tone was played first after the cadence?</p><p>Please respond as quickly and as accurately as possible!</p>","12","","1","new_stimuli/mp3/melody_^1_v7_v6_v5_v4_v3_v2_buffer.mp3"
"","708.5999999998603","html-button-response","193","1077717","0.0-19.0-2.3","98425","","<p>Which tone was played second after the cadence?</p><p>Please respond as quickly and as accurately as possible!</p>","11","","2","new_stimuli/mp3/melody_^1_v7_v6_v5_v4_v3_v2_buffer.mp3"
"","887.3999999994412","html-button-response","194","1078618","0.0-19.0-3.3","98425","","<p>Which tone was played third after the cadence?</p><p>Please respond as quickly and as accurately as possible!</p>","9","","3","new_stimuli/mp3/melody_^1_v7_v6_v5_v4_v3_v2_buffer.mp3"
"","741.9000000001397","html-button-response","195","1079372","0.0-19.0-4.3","98425","","<p>Which tone was played fourth after the cadence?</p><p>Please respond as quickly and as accurately as possible!</p>","7","","4","new_stimuli/mp3/melody_^1_v7_v6_v5_v4_v3_v2_buffer.mp3"
"","832.6999999999534","html-button-response","196","1080218","0.0-19.0-5.3","98425","","<p>Which tone was played fifth after the cadence?</p><p>Please respond as quickly and as accurately as possible!</p>","5","","5","new_stimuli/mp3/melody_^1_v7_v6_v5_v4_v3_v2_buffer.mp3"
"","691.5","html-button-response","197","1080919","0.0-19.0-6.3","98425","","<p>Which tone was played sixth after the cadence?</p><p>Please respond as quickly and as accurately as possible!</p>","4","","6","new_stimuli/mp3/melody_^1_v7_v6_v5_v4_v3_v2_buffer.mp3"
"","946.7999999998137","html-button-response","198","1081876","0.0-19.0-7.3","98425","","<p>Which tone was played seventh after the cadence?</p><p>Please respond as quickly and as accurately as possible!</p>","2","","7","new_stimuli/mp3/melody_^1_v7_v6_v5_v4_v3_v2_buffer.mp3"
"","null","audio-keyboard-response","199","1093568","0.0-19.0-0.4","98425","","new_stimuli/mp3/melody_^4_v6-_v5-_^6-_^4_v2-_2-_.mp3","","null","",""
"","2078.5000000004657","html-button-response","200","1095661","0.0-19.0-1.4","98425","","<p>Which tone was played first after the cadence?</p><p>Please respond as quickly and as accurately as possible!</p>","5","","1","new_stimuli/mp3/melody_^4_v6-_v5-_^6-_^4_v2-_2-_.mp3"
"","2381.6999999999534","html-button-response","201","1098056","0.0-19.0-2.4","98425","","<p>Which tone was played second after the cadence?</p><p>Please respond as quickly and as accurately as possible!</p>","10","","2","new_stimuli/mp3/melody_^4_v6-_v5-_^6-_^4_v2-_2-_.mp3"
"","1309.3999999999069","html-button-response","202","1099377","0.0-19.0-3.4","98425","","<p>Which tone was played third after the cadence?</p><p>Please respond as quickly and as accurately as possible!</p>","8","","3","new_stimuli/mp3/melody_^4_v6-_v5-_^6-_^4_v2-_2-_.mp3"
"","898.5999999993946","html-button-response","203","1100286","0.0-19.0-4.4","98425","","<p>Which tone was played fourth after the cadence?</p><p>Please respond as quickly and as accurately as possible!</p>","10","","4","new_stimuli/mp3/melody_^4_v6-_v5-_^6-_^4_v2-_2-_.mp3"
"","828.0999999998603","html-button-response","204","1101128","0.0-19.0-5.4","98425","","<p>Which tone was played fifth after the cadence?</p><p>Please respond as quickly and as accurately as possible!</p>","5","","5","new_stimuli/mp3/melody_^4_v6-_v5-_^6-_^4_v2-_2-_.mp3"
"","3313.9000000001397","html-button-response","205","1104456","0.0-19.0-6.4","98425","","<p>Which tone was played sixth after the cadence?</p><p>Please respond as quickly and as accurately as possible!</p>","1","","6","new_stimuli/mp3/melody_^4_v6-_v5-_^6-_^4_v2-_2-_.mp3"
"","695.0999999998603","html-button-response","206","1105160","0.0-19.0-7.4","98425","","<p>Which tone was played seventh after the cadence?</p><p>Please respond as quickly and as accurately as possible!</p>","1","","7","new_stimuli/mp3/melody_^4_v6-_v5-_^6-_^4_v2-_2-_.mp3"
"","null","audio-keyboard-response","207","1117148","0.0-19.0-0.5","98425","","new_stimuli/mp3/melody_1_^3_v1_^5_v3_v2_^3_.mp3","","null","",""
"","1113.6999999999534","html-button-response","208","1118277","0.0-19.0-1.5","98425","","<p>Which tone was played first after the cadence?</p><p>Please respond as quickly and as accurately as possible!</p>","0","","1","new_stimuli/mp3/melody_1_^3_v1_^5_v3_v2_^3_.mp3"
"","1272.5","html-button-response","209","1119559","0.0-19.0-2.5","98425","","<p>Which tone was played second after the cadence?</p><p>Please respond as quickly and as accurately as possible!</p>","4","","2","new_stimuli/mp3/melody_1_^3_v1_^5_v3_v2_^3_.mp3"
"","769.8000000000466","html-button-response","210","1120338","0.0-19.0-3.5","98425","","<p>Which tone was played third after the cadence?</p><p>Please respond as quickly and as accurately as possible!</p>","0","","3","new_stimuli/mp3/melody_1_^3_v1_^5_v3_v2_^3_.mp3"
"","1242.300000000745","html-button-response","211","1121595","0.0-19.0-4.5","98425","","<p>Which tone was played fourth after the cadence?</p><p>Please respond as quickly and as accurately as possible!</p>","7","","4","new_stimuli/mp3/melody_1_^3_v1_^5_v3_v2_^3_.mp3"
"","1085.700000000652","html-button-response","212","1122691","0.0-19.0-5.5","98425","","<p>Which tone was played fifth after the cadence?</p><p>Please respond as quickly and as accurately as possible!</p>","4","","5","new_stimuli/mp3/melody_1_^3_v1_^5_v3_v2_^3_.mp3"
"","714.1000000000931","html-button-response","213","1123417","0.0-19.0-6.5","98425","","<p>Which tone was played sixth after the cadence?</p><p>Please respond as quickly and as accurately as possible!</p>","2","","6","new_stimuli/mp3/melody_1_^3_v1_^5_v3_v2_^3_.mp3"
"","653.2999999998137","html-button-response","214","1124080","0.0-19.0-7.5","98425","","<p>Which tone was played seventh after the cadence?</p><p>Please respond as quickly and as accurately as possible!</p>","4","","7","new_stimuli/mp3/melody_1_^3_v1_^5_v3_v2_^3_.mp3"
"","null","audio-keyboard-response","215","1135814","0.0-19.0-0.6","98425","","new_stimuli/mp3/melody_v1_^2_v1_v7_^1_^3_v2_.mp3","","null","",""
"","3040.7999999998137","html-button-response","216","1138868","0.0-19.0-1.6","98425","","<p>Which tone was played first after the cadence?</p><p>Please respond as quickly and as accurately as possible!</p>","0","","1","new_stimuli/mp3/melody_v1_^2_v1_v7_^1_^3_v2_.mp3"
"","803.8000000005122","html-button-response","217","1139684","0.0-19.0-2.6","98425","","<p>Which tone was played second after the cadence?</p><p>Please respond as quickly and as accurately as possible!</p>","2","","2","new_stimuli/mp3/melody_v1_^2_v1_v7_^1_^3_v2_.mp3"
"","624.1000000000931","html-button-response","218","1140320","0.0-19.0-3.6","98425","","<p>Which tone was played third after the cadence?</p><p>Please respond as quickly and as accurately as possible!</p>","0","","3","new_stimuli/mp3/melody_v1_^2_v1_v7_^1_^3_v2_.mp3"
"","819.6000000005588","html-button-response","219","1141152","0.0-19.0-4.6","98425","","<p>Which tone was played fourth after the cadence?</p><p>Please respond as quickly and as accurately as possible!</p>","11","","4","new_stimuli/mp3/melody_v1_^2_v1_v7_^1_^3_v2_.mp3"
"","1072.4000000001397","html-button-response","220","1142235","0.0-19.0-5.6","98425","","<p>Which tone was played fifth after the cadence?</p><p>Please respond as quickly and as accurately as possible!</p>","0","","5","new_stimuli/mp3/melody_v1_^2_v1_v7_^1_^3_v2_.mp3"
"","935.9999999997672","html-button-response","221","1143184","0.0-19.0-6.6","98425","","<p>Which tone was played sixth after the cadence?</p><p>Please respond as quickly and as accurately as possible!</p>","4","","6","new_stimuli/mp3/melody_v1_^2_v1_v7_^1_^3_v2_.mp3"
"","960.2999999998137","html-button-response","222","1144156","0.0-19.0-7.6","98425","","<p>Which tone was played seventh after the cadence?</p><p>Please respond as quickly and as accurately as possible!</p>","2","","7","new_stimuli/mp3/melody_v1_^2_v1_v7_^1_^3_v2_.mp3"
"[{""page_index"":0,""viewing_time"":8812.5},{""page_index"":1,""viewing_time"":1518.6999999994878},{""page_index"":2,""viewing_time"":1102.3999999999069}]","11437.100000000093","instructions","223","1155597","0.0-20.0","98425","","","","","",""
"","null","audio-keyboard-response","224","1168277","0.0-21.0-0.0","98425","","new_stimuli/mp3/melody_^3_^4_v2_v7_^1_^2_^3_3_^4_.mp3","","null","",""
"","2891.899999999441","html-button-response","225","1171184","0.0-21.0-1.0","98425","","<p>Which tone was played first after the cadence?</p><p>Please respond as quickly and as accurately as possible!</p>","4","","1","new_stimuli/mp3/melody_^3_^4_v2_v7_^1_^2_^3_3_^4_.mp3"
"","685.0000000004657","html-button-response","226","1171885","0.0-21.0-2.0","98425","","<p>Which tone was played second after the cadence?</p><p>Please respond as quickly and as accurately as possible!</p>","5","","2","new_stimuli/mp3/melody_^3_^4_v2_v7_^1_^2_^3_3_^4_.mp3"
"","1027.9999999993015","html-button-response","227","1172927","0.0-21.0-3.0","98425","","<p>Which tone was played third after the cadence?</p><p>Please respond as quickly and as accurately as possible!</p>","2","","3","new_stimuli/mp3/melody_^3_^4_v2_v7_^1_^2_^3_3_^4_.mp3"
"","797.0999999998603","html-button-response","228","1173738","0.0-21.0-4.0","98425","","<p>Which tone was played fourth after the cadence?</p><p>Please respond as quickly and as accurately as possible!</p>","11","","4","new_stimuli/mp3/melody_^3_^4_v2_v7_^1_^2_^3_3_^4_.mp3"
"","594.7999999998137","html-button-response","229","1174343","0.0-21.0-5.0","98425","","<p>Which tone was played fifth after the cadence?</p><p>Please respond as quickly and as accurately as possible!</p>","12","","5","new_stimuli/mp3/melody_^3_^4_v2_v7_^1_^2_^3_3_^4_.mp3"
"","1516.0999999998603","html-button-response","230","1175870","0.0-21.0-6.0","98425","","<p>Which tone was played sixth after the cadence?</p><p>Please respond as quickly and as accurately as possible!</p>","2","","6","new_stimuli/mp3/melody_^3_^4_v2_v7_^1_^2_^3_3_^4_.mp3"
"","858.3999999999069","html-button-response","231","1176734","0.0-21.0-7.0","98425","","<p>Which tone was played seventh after the cadence?</p><p>Please respond as quickly and as accurately as possible!</p>","4","","7","new_stimuli/mp3/melody_^3_^4_v2_v7_^1_^2_^3_3_^4_.mp3"
"","679.8999999999069","html-button-response","232","1177426","0.0-21.0-8.0","98425","","<p>Which tone was played eight after the cadence?</p><p>Please respond as quickly and as accurately as possible!</p>","4","","8","new_stimuli/mp3/melody_^3_^4_v2_v7_^1_^2_^3_3_^4_.mp3"
"","1671.4000000001397","html-button-response","233","1179107","0.0-21.0-9.0","98425","","<p>Which tone was played nineth after the cadence?</p><p>Please respond as quickly and as accurately as possible!</p>","4","","9","new_stimuli/mp3/melody_^3_^4_v2_v7_^1_^2_^3_3_^4_.mp3"
"","null","audio-keyboard-response","234","1192098","0.0-21.0-0.1","98425","","new_stimuli/mp3/melody_^2_^4_v3_v2_v1_v3_v2+_^3_^5+_.mp3","","null","",""
"","4670.299999999814","html-button-response","235","1196779","0.0-21.0-1.1","98425","","<p>Which tone was played first after the cadence?</p><p>Please respond as quickly and as accurately as possible!</p>","4","","1","new_stimuli/mp3/melody_^2_^4_v3_v2_v1_v3_v2+_^3_^5+_.mp3"
"","991.7999999998137","html-button-response","236","1197779","0.0-21.0-2.1","98425","","<p>Which tone was played second after the cadence?</p><p>Please respond as quickly and as accurately as possible!</p>","5","","2","new_stimuli/mp3/melody_^2_^4_v3_v2_v1_v3_v2+_^3_^5+_.mp3"
"","1452.4999999995343","html-button-response","237","1199239","0.0-21.0-3.1","98425","","<p>Which tone was played third after the cadence?</p><p>Please respond as quickly and as accurately as possible!</p>","2","","3","new_stimuli/mp3/melody_^2_^4_v3_v2_v1_v3_v2+_^3_^5+_.mp3"
"","1114.1999999999534","html-button-response","238","1200366","0.0-21.0-4.1","98425","","<p>Which tone was played fourth after the cadence?</p><p>Please respond as quickly and as accurately as possible!</p>","11","","4","new_stimuli/mp3/melody_^2_^4_v3_v2_v1_v3_v2+_^3_^5+_.mp3"
"","652.5999999996275","html-button-response","239","1201034","0.0-21.0-5.1","98425","","<p>Which tone was played fifth after the cadence?</p><p>Please respond as quickly and as accurately as possible!</p>","12","","5","new_stimuli/mp3/melody_^2_^4_v3_v2_v1_v3_v2+_^3_^5+_.mp3"
"","1835.2999999998137","html-button-response","240","1202879","0.0-21.0-6.1","98425","","<p>Which tone was played sixth after the cadence?</p><p>Please respond as quickly and as accurately as possible!</p>","4","","6","new_stimuli/mp3/melody_^2_^4_v3_v2_v1_v3_v2+_^3_^5+_.mp3"
"","499.39999999990687","html-button-response","241","1203389","0.0-21.0-7.1","98425","","<p>Which tone was played seventh after the cadence?</p><p>Please respond as quickly and as accurately as possible!</p>","3","","7","new_stimuli/mp3/melody_^2_^4_v3_v2_v1_v3_v2+_^3_^5+_.mp3"
"","703.6999999999534","html-button-response","242","1204103","0.0-21.0-8.1","98425","","<p>Which tone was played eight after the cadence?</p><p>Please respond as quickly and as accurately as possible!</p>","4","","8","new_stimuli/mp3/melody_^2_^4_v3_v2_v1_v3_v2+_^3_^5+_.mp3"
"","1717.7000000001863","html-button-response","243","1205833","0.0-21.0-9.1","98425","","<p>Which tone was played nineth after the cadence?</p><p>Please respond as quickly and as accurately as possible!</p>","8","","9","new_stimuli/mp3/melody_^2_^4_v3_v2_v1_v3_v2+_^3_^5+_.mp3"
"","null","audio-keyboard-response","244","1218794","0.0-21.0-0.2","98425","","new_stimuli/mp3/melody_^5_^6_v5_v4_v3_v2_v1_^2_^3_buffer.mp3","","null","",""
"","1767.5","html-button-response","245","1220576","0.0-21.0-1.2","98425","","<p>Which tone was played first after the cadence?</p><p>Please respond as quickly and as accurately as possible!</p>","7","","1","new_stimuli/mp3/melody_^5_^6_v5_v4_v3_v2_v1_^2_^3_buffer.mp3"
"","694.5000000004657","html-button-response","246","1221283","0.0-21.0-2.2","98425","","<p>Which tone was played second after the cadence?</p><p>Please respond as quickly and as accurately as possible!</p>","9","","2","new_stimuli/mp3/melody_^5_^6_v5_v4_v3_v2_v1_^2_^3_buffer.mp3"
"","810.9000000003725","html-button-response","247","1222107","0.0-21.0-3.2","98425","","<p>Which tone was played third after the cadence?</p><p>Please respond as quickly and as accurately as possible!</p>","7","","3","new_stimuli/mp3/melody_^5_^6_v5_v4_v3_v2_v1_^2_^3_buffer.mp3"
"","821.8999999999069","html-button-response","248","1222945","0.0-21.0-4.2","98425","","<p>Which tone was played fourth after the cadence?</p><p>Please respond as quickly and as accurately as possible!</p>","5","","4","new_stimuli/mp3/melody_^5_^6_v5_v4_v3_v2_v1_^2_^3_buffer.mp3"
"","592.0999999998603","html-button-response","249","1223551","0.0-21.0-5.2","98425","","<p>Which tone was played fifth after the cadence?</p><p>Please respond as quickly and as accurately as possible!</p>","4","","5","new_stimuli/mp3/melody_^5_^6_v5_v4_v3_v2_v1_^2_^3_buffer.mp3"
"","2089.200000000419","html-button-response","250","1225654","0.0-21.0-6.2","98425","","<p>Which tone was played sixth after the cadence?</p><p>Please respond as quickly and as accurately as possible!</p>","2","","6","new_stimuli/mp3/melody_^5_^6_v5_v4_v3_v2_v1_^2_^3_buffer.mp3"
"","693.2999999998137","html-button-response","251","1226364","0.0-21.0-7.2","98425","","<p>Which tone was played seventh after the cadence?</p><p>Please respond as quickly and as accurately as possible!</p>","0","","7","new_stimuli/mp3/melody_^5_^6_v5_v4_v3_v2_v1_^2_^3_buffer.mp3"
"","588.3000000005122","html-button-response","252","1226965","0.0-21.0-8.2","98425","","<p>Which tone was played eight after the cadence?</p><p>Please respond as quickly and as accurately as possible!</p>","2","","8","new_stimuli/mp3/melody_^5_^6_v5_v4_v3_v2_v1_^2_^3_buffer.mp3"
"","1287.5000000002328","html-button-response","253","1228264","0.0-21.0-9.2","98425","","<p>Which tone was played nineth after the cadence?</p><p>Please respond as quickly and as accurately as possible!</p>","4","","9","new_stimuli/mp3/melody_^5_^6_v5_v4_v3_v2_v1_^2_^3_buffer.mp3"
"","null","audio-keyboard-response","254","1240876","0.0-21.0-0.3","98425","","new_stimuli/mp3/melody_v5_v4_v6+_^7_^3+_v3_v2_v5_^4_.mp3","","null","",""
"","1626.5999999996275","html-button-response","255","1242518","0.0-21.0-1.3","98425","","<p>Which tone was played first after the cadence?</p><p>Please respond as quickly and as accurately as possible!</p>","7","","1","new_stimuli/mp3/melody_v5_v4_v6+_^7_^3+_v3_v2_v5_^4_.mp3"
"","579.6000000000931","html-button-response","256","1243109","0.0-21.0-2.3","98425","","<p>Which tone was played second after the cadence?</p><p>Please respond as quickly and as accurately as possible!</p>","5","","2","new_stimuli/mp3/melody_v5_v4_v6+_^7_^3+_v3_v2_v5_^4_.mp3"
"","5619.899999999674","html-button-response","257","1248745","0.0-21.0-3.3","98425","","<p>Which tone was played third after the cadence?</p><p>Please respond as quickly and as accurately as possible!</p>","10","","3","new_stimuli/mp3/melody_v5_v4_v6+_^7_^3+_v3_v2_v5_^4_.mp3"
"","363.1999999997206","html-button-response","258","1249127","0.0-21.0-4.3","98425","","<p>Which tone was played fourth after the cadence?</p><p>Please respond as quickly and as accurately as possible!</p>","11","","4","new_stimuli/mp3/melody_v5_v4_v6+_^7_^3+_v3_v2_v5_^4_.mp3"
"","1291.3999999999069","html-button-response","259","1250429","0.0-21.0-5.3","98425","","<p>Which tone was played fifth after the cadence?</p><p>Please respond as quickly and as accurately as possible!</p>","3","","5","new_stimuli/mp3/melody_v5_v4_v6+_^7_^3+_v3_v2_v5_^4_.mp3"
"","1761.5000000006985","html-button-response","260","1252205","0.0-21.0-6.3","98425","","<p>Which tone was played sixth after the cadence?</p><p>Please respond as quickly and as accurately as possible!</p>","2","","6","new_stimuli/mp3/melody_v5_v4_v6+_^7_^3+_v3_v2_v5_^4_.mp3"
"","3886.3999999992084","html-button-response","261","1256105","0.0-21.0-7.3","98425","","<p>Which tone was played seventh after the cadence?</p><p>Please respond as quickly and as accurately as possible!</p>","8","","7","new_stimuli/mp3/melody_v5_v4_v6+_^7_^3+_v3_v2_v5_^4_.mp3"
"","6450.200000000186","html-button-response","262","1262569","0.0-21.0-8.3","98425","","<p>Which tone was played eight after the cadence?</p><p>Please respond as quickly and as accurately as possible!</p>","11","","8","new_stimuli/mp3/melody_v5_v4_v6+_^7_^3+_v3_v2_v5_^4_.mp3"
"","2524.1999999997206","html-button-response","263","1265110","0.0-21.0-9.3","98425","","<p>Which tone was played nineth after the cadence?</p><p>Please respond as quickly and as accurately as possible!</p>","11","","9","new_stimuli/mp3/melody_v5_v4_v6+_^7_^3+_v3_v2_v5_^4_.mp3"
"","null","audio-keyboard-response","264","1277653","0.0-21.0-0.4","98425","","new_stimuli/mp3/melody_^3_^4_^5 _^6_v5_v4_v3_v2_v1_.mp3","","null","",""
"","1807.2000000001863","html-button-response","265","1279475","0.0-21.0-1.4","98425","","<p>Which tone was played first after the cadence?</p><p>Please respond as quickly and as accurately as possible!</p>","4","","1","new_stimuli/mp3/melody_^3_^4_^5 _^6_v5_v4_v3_v2_v1_.mp3"
"","493.19999999995343","html-button-response","266","1279979","0.0-21.0-2.4","98425","","<p>Which tone was played second after the cadence?</p><p>Please respond as quickly and as accurately as possible!</p>","5","","2","new_stimuli/mp3/melody_^3_^4_^5 _^6_v5_v4_v3_v2_v1_.mp3"
"","580.7999999998137","html-button-response","267","1280569","0.0-21.0-3.4","98425","","<p>Which tone was played third after the cadence?</p><p>Please respond as quickly and as accurately as possible!</p>","7","","3","new_stimuli/mp3/melody_^3_^4_^5 _^6_v5_v4_v3_v2_v1_.mp3"
"","536.9999999993015","html-button-response","268","1281119","0.0-21.0-4.4","98425","","<p>Which tone was played fourth after the cadence?</p><p>Please respond as quickly and as accurately as possible!</p>","9","","4","new_stimuli/mp3/melody_^3_^4_^5 _^6_v5_v4_v3_v2_v1_.mp3"
"","880.5999999993946","html-button-response","269","1282006","0.0-21.0-5.4","98425","","<p>Which tone was played fifth after the cadence?</p><p>Please respond as quickly and as accurately as possible!</p>","7","","5","new_stimuli/mp3/melody_^3_^4_^5 _^6_v5_v4_v3_v2_v1_.mp3"
"","393.79999999981374","html-button-response","270","1282404","0.0-21.0-6.4","98425","","<p>Which tone was played sixth after the cadence?</p><p>Please respond as quickly and as accurately as possible!</p>","5","","6","new_stimuli/mp3/melody_^3_^4_^5 _^6_v5_v4_v3_v2_v1_.mp3"
"","614.9999999997672","html-button-response","271","1283028","0.0-21.0-7.4","98425","","<p>Which tone was played seventh after the cadence?</p><p>Please respond as quickly and as accurately as possible!</p>","4","","7","new_stimuli/mp3/melody_^3_^4_^5 _^6_v5_v4_v3_v2_v1_.mp3"
"","696.7000000004191","html-button-response","272","1283736","0.0-21.0-8.4","98425","","<p>Which tone was played eight after the cadence?</p><p>Please respond as quickly and as accurately as possible!</p>","2","","8","new_stimuli/mp3/melody_^3_^4_^5 _^6_v5_v4_v3_v2_v1_.mp3"
"","595.2999999998137","html-button-response","273","1284338","0.0-21.0-9.4","98425","","<p>Which tone was played nineth after the cadence?</p><p>Please respond as quickly and as accurately as possible!</p>","0","","9","new_stimuli/mp3/melody_^3_^4_^5 _^6_v5_v4_v3_v2_v1_.mp3"
"","null","audio-keyboard-response","274","1296993","0.0-21.0-0.5","98425","","new_stimuli/mp3/melody_v7_v6_v5_^6_v5_v4_^5_^6_v5_.mp3","","null","",""
"","2653.4000000001397","html-button-response","275","1299664","0.0-21.0-1.5","98425","","<p>Which tone was played first after the cadence?</p><p>Please respond as quickly and as accurately as possible!</p>","11","","1","new_stimuli/mp3/melody_v7_v6_v5_^6_v5_v4_^5_^6_v5_.mp3"
"","681.9999999997672","html-button-response","276","1300360","0.0-21.0-2.5","98425","","<p>Which tone was played second after the cadence?</p><p>Please respond as quickly and as accurately as possible!</p>","9","","2","new_stimuli/mp3/melody_v7_v6_v5_^6_v5_v4_^5_^6_v5_.mp3"
"","604.5000000004657","html-button-response","277","1300979","0.0-21.0-3.5","98425","","<p>Which tone was played third after the cadence?</p><p>Please respond as quickly and as accurately as possible!</p>","7","","3","new_stimuli/mp3/melody_v7_v6_v5_^6_v5_v4_^5_^6_v5_.mp3"
"","369.0000000006985","html-button-response","278","1301357","0.0-21.0-4.5","98425","","<p>Which tone was played fourth after the cadence?</p><p>Please respond as quickly and as accurately as possible!</p>","9","","4","new_stimuli/mp3/melody_v7_v6_v5_^6_v5_v4_^5_^6_v5_.mp3"
"","628.5999999998603","html-button-response","279","1301998","0.0-21.0-5.5","98425","","<p>Which tone was played fifth after the cadence?</p><p>Please respond as quickly and as accurately as possible!</p>","7","","5","new_stimuli/mp3/melody_v7_v6_v5_^6_v5_v4_^5_^6_v5_.mp3"
"","564.0000000004657","html-button-response","280","1302572","0.0-21.0-6.5","98425","","<p>Which tone was played sixth after the cadence?</p><p>Please respond as quickly and as accurately as possible!</p>","5","","6","new_stimuli/mp3/melody_v7_v6_v5_^6_v5_v4_^5_^6_v5_.mp3"
"","738.4000000003725","html-button-response","281","1303321","0.0-21.0-7.5","98425","","<p>Which tone was played seventh after the cadence?</p><p>Please respond as quickly and as accurately as possible!</p>","7","","7","new_stimuli/mp3/melody_v7_v6_v5_^6_v5_v4_^5_^6_v5_.mp3"
"","794.1000000000931","html-button-response","282","1304126","0.0-21.0-8.5","98425","","<p>Which tone was played eight after the cadence?</p><p>Please respond as quickly and as accurately as possible!</p>","9","","8","new_stimuli/mp3/melody_v7_v6_v5_^6_v5_v4_^5_^6_v5_.mp3"
"","6416.999999999534","html-button-response","283","1310558","0.0-21.0-9.5","98425","","<p>Which tone was played nineth after the cadence?</p><p>Please respond as quickly and as accurately as possible!</p>","9","","9","new_stimuli/mp3/melody_v7_v6_v5_^6_v5_v4_^5_^6_v5_.mp3"
"","null","audio-keyboard-response","284","1323215","0.0-21.0-0.6","98425","","new_stimuli/mp3/melody_^2_^3_^4_^5_^6_v5_v4_v3_v2_buffer.mp3","","null","",""
"","1641.4000000003725","html-button-response","285","1324874","0.0-21.0-1.6","98425","","<p>Which tone was played first after the cadence?</p><p>Please respond as quickly and as accurately as possible!</p>","2","","1","new_stimuli/mp3/melody_^2_^3_^4_^5_^6_v5_v4_v3_v2_buffer.mp3"
"","588.6000000000931","html-button-response","286","1325472","0.0-21.0-2.6","98425","","<p>Which tone was played second after the cadence?</p><p>Please respond as quickly and as accurately as possible!</p>","4","","2","new_stimuli/mp3/melody_^2_^3_^4_^5_^6_v5_v4_v3_v2_buffer.mp3"
"","481.2999999995809","html-button-response","287","1325968","0.0-21.0-3.6","98425","","<p>Which tone was played third after the cadence?</p><p>Please respond as quickly and as accurately as possible!</p>","5","","3","new_stimuli/mp3/melody_^2_^3_^4_^5_^6_v5_v4_v3_v2_buffer.mp3"
"","533.3000000000466","html-button-response","288","1326515","0.0-21.0-4.6","98425","","<p>Which tone was played fourth after the cadence?</p><p>Please respond as quickly and as accurately as possible!</p>","7","","4","new_stimuli/mp3/melody_^2_^3_^4_^5_^6_v5_v4_v3_v2_buffer.mp3"
"","521.2000000001863","html-button-response","289","1327049","0.0-21.0-5.6","98425","","<p>Which tone was played fifth after the cadence?</p><p>Please respond as quickly and as accurately as possible!</p>","9","","5","new_stimuli/mp3/melody_^2_^3_^4_^5_^6_v5_v4_v3_v2_buffer.mp3"
"","546.0000000002328","html-button-response","290","1327609","0.0-21.0-6.6","98425","","<p>Which tone was played sixth after the cadence?</p><p>Please respond as quickly and as accurately as possible!</p>","7","","6","new_stimuli/mp3/melody_^2_^3_^4_^5_^6_v5_v4_v3_v2_buffer.mp3"
"","773.9999999993015","html-button-response","291","1328397","0.0-21.0-7.6","98425","","<p>Which tone was played seventh after the cadence?</p><p>Please respond as quickly and as accurately as possible!</p>","5","","7","new_stimuli/mp3/melody_^2_^3_^4_^5_^6_v5_v4_v3_v2_buffer.mp3"
"","567","html-button-response","292","1328972","0.0-21.0-8.6","98425","","<p>Which tone was played eight after the cadence?</p><p>Please respond as quickly and as accurately as possible!</p>","4","","8","new_stimuli/mp3/melody_^2_^3_^4_^5_^6_v5_v4_v3_v2_buffer.mp3"
"","1459.6000000000931","html-button-response","293","1330442","0.0-21.0-9.6","98425","","<p>Which tone was played nineth after the cadence?</p><p>Please respond as quickly and as accurately as possible!</p>","2","","9","new_stimuli/mp3/melody_^2_^3_^4_^5_^6_v5_v4_v3_v2_buffer.mp3"
"","35331.89999999921","survey-text","294","1365785","0.0-22.0","98425","{""Q0"":""I pictured in my mind the piano keys being played""}","","","","",""
"","50777.50000000023","survey-text","295","1416574","0.0-23.0","98425","{""Q0"":""Would like to see \""Do, Do#/Reb, Re, Re#/Mib\"" type of buttons""}","","","","",""
"","21706.20000000042","survey-text","296","1438288","0.0-24.0","98425","{""Q0"":""Yes, the piano keys and singing""}","","","","",""
"","5367.699999999721","survey-text","297","1443663","0.0-25.0","98425","{""Q0"":""Headphones""}","","","","",""
"","3252.6000000007916","survey-text","298","1446925","0.0-26.0","98425","{""Q0"":""Male""}","","","","",""
"","3052.600000000093","survey-text","299","1449987","0.0-27.0","98425","{""Q0"":""Yes""}","","","","",""
"[{""page_index"":0,""viewing_time"":2097.999999999767}]","2100.4000000001397","instructions","300","1452093","0.0-28.0","98425","","","","","",""
