"view_history","rt","trial_type","trial_index","time_elapsed","internal_node_id","subject","responses","stimulus","button_pressed","key_press","response_sequence","melody"
"[{""page_index"":0,""viewing_time"":1562198},{""page_index"":1,""viewing_time"":100472},{""page_index"":2,""viewing_time"":2476}]","1665147","instructions","0","1665151","0.0-0.0","99886","","","","","",""
"","18451","survey-text","1","1683606","0.0-1.0","99886","{""Q0"":""54""}","","","","",""
"","14854","survey-text","2","1698467","0.0-2.0","99886","{""Q0"":""Bachelors""}","","","","",""
"","23353","survey-text","3","1721824","0.0-3.0","99886","{""Q0"":""Moveable Do""}","","","","",""
"","7011","survey-text","4","1728840","0.0-4.0","99886","{""Q0"":""no""}","","","","",""
"","20076","survey-text","5","1748919","0.0-5.0","99886","{""Q0"":""8""}","","","","",""
"","7604","survey-text","6","1756526","0.0-6.0","99886","{""Q0"":""0""}","","","","",""
"[{""page_index"":0,""viewing_time"":8663},{""page_index"":1,""viewing_time"":38918},{""page_index"":2,""viewing_time"":2040}]","49622","instructions","7","1806151","0.0-7.0","99886","","","","","",""
"","15936","audio-button-response","8","1822096","0.0-8.0","99886","","stimuli/long/c-do.mp3","0","","",""
"","58478","audio-button-response","9","1880578","0.0-9.0","99886","","stimuli/long/a-le.mp3","8","","",""
"[{""page_index"":0,""viewing_time"":18018},{""page_index"":1,""viewing_time"":20075}]","38093","instructions","10","1918674","0.0-10.0","99886","","","","","",""
"","10641","audio-button-response","11","1929323","0.0-11.0-0.0","99886","","stimuli/long/c-ra.mp3","1","","",""
"","10058","audio-button-response","12","1939385","0.0-11.0-0.1","99886","","stimuli/long/e-ti.mp3","11","","",""
"","14915","audio-button-response","13","1954303","0.0-11.0-0.2","99886","","stimuli/long/a-le.mp3","8","","",""
"","16537","audio-button-response","14","1970842","0.0-11.0-0.3","99886","","stimuli/long/e-fa.mp3","5","","",""
"","9147","audio-button-response","15","1979992","0.0-11.0-0.4","99886","","stimuli/long/c-ti.mp3","11","","",""
"","16549","audio-button-response","16","1996546","0.0-11.0-0.5","99886","","stimuli/long/a-sol.mp3","7","","",""
"","10832","audio-button-response","17","2007383","0.0-11.0-0.6","99886","","stimuli/long/c-do8.mp3","0","","",""
"","13478","audio-button-response","18","2020864","0.0-11.0-0.7","99886","","stimuli/long/c-fa.mp3","5","","",""
"","17800","audio-button-response","19","2038668","0.0-11.0-0.8","99886","","stimuli/long/c-le.mp3","7","","",""
"","16886","audio-button-response","20","2055558","0.0-11.0-0.9","99886","","stimuli/long/e-me.mp3","3","","",""
"","14448","audio-button-response","21","2070011","0.0-11.0-0.10","99886","","stimuli/long/a-re.mp3","2","","",""
"","9462","audio-button-response","22","2079479","0.0-11.0-0.11","99886","","stimuli/long/a-do8.mp3","0","","",""
"","null","audio-button-response","23","2099482","0.0-11.0-0.12","99886","","stimuli/long/e-le.mp3","null","","",""
"","572","audio-button-response","24","2100057","0.0-11.0-0.13","99886","","stimuli/long/a-la.mp3","8","","",""
"","10777","audio-button-response","25","2110837","0.0-11.0-0.14","99886","","stimuli/long/e-re.mp3","2","","",""
"","15123","audio-button-response","26","2125963","0.0-11.0-0.15","99886","","stimuli/long/e-sol.mp3","9","","",""
"","15018","audio-button-response","27","2140985","0.0-11.0-0.16","99886","","stimuli/long/e-mi.mp3","4","","",""
"","null","audio-button-response","28","2160989","0.0-11.0-0.17","99886","","stimuli/long/a-fi.mp3","null","","",""
"","11064","audio-button-response","29","2172054","0.0-11.0-0.18","99886","","stimuli/long/c-sol.mp3","7","","",""
"","null","audio-button-response","30","2192056","0.0-11.0-0.19","99886","","stimuli/long/a-te.mp3","null","","",""
"","16939","audio-button-response","31","2208999","0.0-11.0-0.20","99886","","stimuli/long/c-fi.mp3","5","","",""
"","18870","audio-button-response","32","2227872","0.0-11.0-0.21","99886","","stimuli/long/c-la.mp3","7","","",""
"","null","audio-button-response","33","2247877","0.0-11.0-0.22","99886","","stimuli/long/e-fi.mp3","null","","",""
"","12381","audio-button-response","34","2260260","0.0-11.0-0.23","99886","","stimuli/long/a-fa.mp3","4","","",""
"","7795","audio-button-response","35","2268059","0.0-11.0-0.24","99886","","stimuli/long/e-do8.mp3","0","","",""
"","17979","audio-button-response","36","2286042","0.0-11.0-0.25","99886","","stimuli/long/e-la.mp3","8","","",""
"","15652","audio-button-response","37","2301697","0.0-11.0-0.26","99886","","stimuli/long/e-te.mp3","10","","",""
"","7779","audio-button-response","38","2309480","0.0-11.0-0.27","99886","","stimuli/long/a-ti.mp3","11","","",""
"","11375","audio-button-response","39","2320858","0.0-11.0-0.28","99886","","stimuli/long/a-me.mp3","3","","",""
"","12403","audio-button-response","40","2333264","0.0-11.0-0.29","99886","","stimuli/long/c-me.mp3","3","","",""
"","8206","audio-button-response","41","2341474","0.0-11.0-0.30","99886","","stimuli/long/c-do.mp3","0","","",""
"","7950","audio-button-response","42","2349428","0.0-11.0-0.31","99886","","stimuli/long/a-do.mp3","0","","",""
"","10276","audio-button-response","43","2359708","0.0-11.0-0.32","99886","","stimuli/long/c-mi.mp3","4","","",""
"","7895","audio-button-response","44","2367606","0.0-11.0-0.33","99886","","stimuli/long/e-do.mp3","0","","",""
"","10042","audio-button-response","45","2377652","0.0-11.0-0.34","99886","","stimuli/long/e-ra.mp3","1","","",""
"","12145","audio-button-response","46","2389801","0.0-11.0-0.35","99886","","stimuli/long/c-re.mp3","2","","",""
"","13979","audio-button-response","47","2403784","0.0-11.0-0.36","99886","","stimuli/long/a-mi.mp3","4","","",""
"","13611","audio-button-response","48","2417401","0.0-11.0-0.37","99886","","stimuli/long/a-ra.mp3","1","","",""
"[{""page_index"":0,""viewing_time"":121620},{""page_index"":1,""viewing_time"":2203}]","123824","instructions","49","2541228","0.0-12.0","99886","","","","","",""
"","null","audio-keyboard-response","50","2550258","0.0-13.0-0.0","99886","","new_stimuli/mp3/melody_^1_^2+_.mp3","","null","",""
"","2239","html-button-response","51","2552501","0.0-13.0-1.0","99886","","<p>Which tone was played first after the cadence?</p><p>Please respond as quickly and as accurately as possible!</p>","0","","1","new_stimuli/mp3/melody_^1_^2+_.mp3"
"","3885","html-button-response","52","2556391","0.0-13.0-2.0","99886","","<p>Which tone was played second after the cadence?</p><p>Please respond as quickly and as accurately as possible!</p>","3","","2","new_stimuli/mp3/melody_^1_^2+_.mp3"
"","null","audio-keyboard-response","53","2565832","0.0-13.0-0.1","99886","","new_stimuli/mp3/melody_v4_v3_buffer.mp3","","null","",""
"","6082","html-button-response","54","2571915","0.0-13.0-1.1","99886","","<p>Which tone was played first after the cadence?</p><p>Please respond as quickly and as accurately as possible!</p>","5","","1","new_stimuli/mp3/melody_v4_v3_buffer.mp3"
"","1315","html-button-response","55","2573235","0.0-13.0-2.1","99886","","<p>Which tone was played second after the cadence?</p><p>Please respond as quickly and as accurately as possible!</p>","4","","2","new_stimuli/mp3/melody_v4_v3_buffer.mp3"
"","null","audio-keyboard-response","56","2582440","0.0-13.0-0.2","99886","","new_stimuli/mp3/melody_v3_v2_buffer.mp3","","null","",""
"","4544","html-button-response","57","2586986","0.0-13.0-1.2","99886","","<p>Which tone was played first after the cadence?</p><p>Please respond as quickly and as accurately as possible!</p>","2","","1","new_stimuli/mp3/melody_v3_v2_buffer.mp3"
"","1113","html-button-response","58","2588101","0.0-13.0-2.2","99886","","<p>Which tone was played second after the cadence?</p><p>Please respond as quickly and as accurately as possible!</p>","0","","2","new_stimuli/mp3/melody_v3_v2_buffer.mp3"
"","null","audio-keyboard-response","59","2597574","0.0-13.0-0.3","99886","","new_stimuli/mp3/melody_v7_v3_buffer.mp3","","null","",""
"","3540","html-button-response","60","2601115","0.0-13.0-1.3","99886","","<p>Which tone was played first after the cadence?</p><p>Please respond as quickly and as accurately as possible!</p>","11","","1","new_stimuli/mp3/melody_v7_v3_buffer.mp3"
"","4379","html-button-response","61","2605498","0.0-13.0-2.3","99886","","<p>Which tone was played second after the cadence?</p><p>Please respond as quickly and as accurately as possible!</p>","3","","2","new_stimuli/mp3/melody_v7_v3_buffer.mp3"
"","null","audio-keyboard-response","62","2614685","0.0-13.0-0.4","99886","","new_stimuli/mp3/melody_v5_v1+_.mp3","","null","",""
"","7661","html-button-response","63","2622348","0.0-13.0-1.4","99886","","<p>Which tone was played first after the cadence?</p><p>Please respond as quickly and as accurately as possible!</p>","7","","1","new_stimuli/mp3/melody_v5_v1+_.mp3"
"","1043","html-button-response","64","2623394","0.0-13.0-2.4","99886","","<p>Which tone was played second after the cadence?</p><p>Please respond as quickly and as accurately as possible!</p>","1","","2","new_stimuli/mp3/melody_v5_v1+_.mp3"
"","null","audio-keyboard-response","65","2632474","0.0-13.0-0.5","99886","","new_stimuli/mp3/melody_v2_v1_.mp3","","null","",""
"","3395","html-button-response","66","2635873","0.0-13.0-1.5","99886","","<p>Which tone was played first after the cadence?</p><p>Please respond as quickly and as accurately as possible!</p>","2","","1","new_stimuli/mp3/melody_v2_v1_.mp3"
"","1087","html-button-response","67","2636964","0.0-13.0-2.5","99886","","<p>Which tone was played second after the cadence?</p><p>Please respond as quickly and as accurately as possible!</p>","0","","2","new_stimuli/mp3/melody_v2_v1_.mp3"
"","null","audio-keyboard-response","68","2646288","0.0-13.0-0.6","99886","","new_stimuli/mp3/melody_3_^6_buffer.mp3","","null","",""
"","10282","html-button-response","69","2656572","0.0-13.0-1.6","99886","","<p>Which tone was played first after the cadence?</p><p>Please respond as quickly and as accurately as possible!</p>","4","","1","new_stimuli/mp3/melody_3_^6_buffer.mp3"
"","4772","html-button-response","70","2661346","0.0-13.0-2.6","99886","","<p>Which tone was played second after the cadence?</p><p>Please respond as quickly and as accurately as possible!</p>","9","","2","new_stimuli/mp3/melody_3_^6_buffer.mp3"
"","null","audio-keyboard-response","71","2670817","0.0-13.0-0.7","99886","","new_stimuli/mp3/melody_^3_v4+_buffer.mp3","","null","",""
"","6127","html-button-response","72","2676947","0.0-13.0-1.7","99886","","<p>Which tone was played first after the cadence?</p><p>Please respond as quickly and as accurately as possible!</p>","4","","1","new_stimuli/mp3/melody_^3_v4+_buffer.mp3"
"","9193","html-button-response","73","2686143","0.0-13.0-2.7","99886","","<p>Which tone was played second after the cadence?</p><p>Please respond as quickly and as accurately as possible!</p>","5","","2","new_stimuli/mp3/melody_^3_v4+_buffer.mp3"
"","null","audio-keyboard-response","74","2695325","0.0-13.0-0.8","99886","","new_stimuli/mp3/melody_^5_^1+_.mp3","","null","",""
"","7284","html-button-response","75","2702611","0.0-13.0-1.8","99886","","<p>Which tone was played first after the cadence?</p><p>Please respond as quickly and as accurately as possible!</p>","1","","1","new_stimuli/mp3/melody_^5_^1+_.mp3"
"","8003","html-button-response","76","2710617","0.0-13.0-2.8","99886","","<p>Which tone was played second after the cadence?</p><p>Please respond as quickly and as accurately as possible!</p>","7","","2","new_stimuli/mp3/melody_^5_^1+_.mp3"
"","null","audio-keyboard-response","77","2719795","0.0-13.0-0.9","99886","","new_stimuli/mp3/melody_^2_v7-_.mp3","","null","",""
"","3467","html-button-response","78","2723264","0.0-13.0-1.9","99886","","<p>Which tone was played first after the cadence?</p><p>Please respond as quickly and as accurately as possible!</p>","2","","1","new_stimuli/mp3/melody_^2_v7-_.mp3"
"","23448","html-button-response","79","2746717","0.0-13.0-2.9","99886","","<p>Which tone was played second after the cadence?</p><p>Please respond as quickly and as accurately as possible!</p>","10","","2","new_stimuli/mp3/melody_^2_v7-_.mp3"
"[{""page_index"":0,""viewing_time"":87751},{""page_index"":1,""viewing_time"":8248},{""page_index"":2,""viewing_time"":7484}]","103484","instructions","80","2850205","0.0-14.0","99886","","","","","",""
"","null","audio-keyboard-response","81","2859802","0.0-15.0-0.0","99886","","new_stimuli/mp3/melody_v1_v7-_7-_buffer.mp3","","null","",""
"","1760","html-button-response","82","2861565","0.0-15.0-1.0","99886","","<p>Which tone was played first after the cadence?</p><p>Please respond as quickly and as accurately as possible!</p>","12","","1","new_stimuli/mp3/melody_v1_v7-_7-_buffer.mp3"
"","2254","html-button-response","83","2863823","0.0-15.0-2.0","99886","","<p>Which tone was played second after the cadence?</p><p>Please respond as quickly and as accurately as possible!</p>","10","","2","new_stimuli/mp3/melody_v1_v7-_7-_buffer.mp3"
"","957","html-button-response","84","2864782","0.0-15.0-3.0","99886","","<p>Which tone was played third after the cadence?</p><p>Please respond as quickly and as accurately as possible!</p>","10","","3","new_stimuli/mp3/melody_v1_v7-_7-_buffer.mp3"
"","null","audio-keyboard-response","85","2874366","0.0-15.0-0.1","99886","","new_stimuli/mp3/melody_v1_v7-_^7_.mp3","","null","",""
"","1102","html-button-response","86","2875468","0.0-15.0-1.1","99886","","<p>Which tone was played first after the cadence?</p><p>Please respond as quickly and as accurately as possible!</p>","12","","1","new_stimuli/mp3/melody_v1_v7-_^7_.mp3"
"","797","html-button-response","87","2876267","0.0-15.0-2.1","99886","","<p>Which tone was played second after the cadence?</p><p>Please respond as quickly and as accurately as possible!</p>","10","","2","new_stimuli/mp3/melody_v1_v7-_^7_.mp3"
"","604","html-button-response","88","2876875","0.0-15.0-3.1","99886","","<p>Which tone was played third after the cadence?</p><p>Please respond as quickly and as accurately as possible!</p>","11","","3","new_stimuli/mp3/melody_v1_v7-_^7_.mp3"
"","null","audio-keyboard-response","89","2886843","0.0-15.0-0.2","99886","","new_stimuli/mp3/melody_v5_v4_v3_buffer.mp3","","null","",""
"","6445","html-button-response","90","2893289","0.0-15.0-1.2","99886","","<p>Which tone was played first after the cadence?</p><p>Please respond as quickly and as accurately as possible!</p>","5","","1","new_stimuli/mp3/melody_v5_v4_v3_buffer.mp3"
"","714","html-button-response","91","2894007","0.0-15.0-2.2","99886","","<p>Which tone was played second after the cadence?</p><p>Please respond as quickly and as accurately as possible!</p>","4","","2","new_stimuli/mp3/melody_v5_v4_v3_buffer.mp3"
"","9073","html-button-response","92","2903083","0.0-15.0-3.2","99886","","<p>Which tone was played third after the cadence?</p><p>Please respond as quickly and as accurately as possible!</p>","4","","3","new_stimuli/mp3/melody_v5_v4_v3_buffer.mp3"
"","null","audio-keyboard-response","93","2913075","0.0-15.0-0.3","99886","","new_stimuli/mp3/melody_v2_v5_^3_buffer.mp3","","null","",""
"","3620","html-button-response","94","2916696","0.0-15.0-1.3","99886","","<p>Which tone was played first after the cadence?</p><p>Please respond as quickly and as accurately as possible!</p>","1","","1","new_stimuli/mp3/melody_v2_v5_^3_buffer.mp3"
"","6710","html-button-response","95","2923414","0.0-15.0-2.3","99886","","<p>Which tone was played second after the cadence?</p><p>Please respond as quickly and as accurately as possible!</p>","7","","2","new_stimuli/mp3/melody_v2_v5_^3_buffer.mp3"
"","802","html-button-response","96","2924217","0.0-15.0-3.3","99886","","<p>Which tone was played third after the cadence?</p><p>Please respond as quickly and as accurately as possible!</p>","4","","3","new_stimuli/mp3/melody_v2_v5_^3_buffer.mp3"
"","null","audio-keyboard-response","97","2933873","0.0-15.0-0.4","99886","","new_stimuli/mp3/melody_6_^1_v5_.mp3","","null","",""
"","2898","html-button-response","98","2936772","0.0-15.0-1.4","99886","","<p>Which tone was played first after the cadence?</p><p>Please respond as quickly and as accurately as possible!</p>","9","","1","new_stimuli/mp3/melody_6_^1_v5_.mp3"
"","5514","html-button-response","99","2942288","0.0-15.0-2.4","99886","","<p>Which tone was played second after the cadence?</p><p>Please respond as quickly and as accurately as possible!</p>","12","","2","new_stimuli/mp3/melody_6_^1_v5_.mp3"
"","2246","html-button-response","100","2944537","0.0-15.0-3.4","99886","","<p>Which tone was played third after the cadence?</p><p>Please respond as quickly and as accurately as possible!</p>","7","","3","new_stimuli/mp3/melody_6_^1_v5_.mp3"
"","null","audio-keyboard-response","101","2954115","0.0-15.0-0.5","99886","","new_stimuli/mp3/melody_v3_v2_v1_.mp3","","null","",""
"","2756","html-button-response","102","2956872","0.0-15.0-1.5","99886","","<p>Which tone was played first after the cadence?</p><p>Please respond as quickly and as accurately as possible!</p>","4","","1","new_stimuli/mp3/melody_v3_v2_v1_.mp3"
"","738","html-button-response","103","2957614","0.0-15.0-2.5","99886","","<p>Which tone was played second after the cadence?</p><p>Please respond as quickly and as accurately as possible!</p>","2","","2","new_stimuli/mp3/melody_v3_v2_v1_.mp3"
"","624","html-button-response","104","2958240","0.0-15.0-3.5","99886","","<p>Which tone was played third after the cadence?</p><p>Please respond as quickly and as accurately as possible!</p>","0","","3","new_stimuli/mp3/melody_v3_v2_v1_.mp3"
"","null","audio-keyboard-response","105","2967754","0.0-15.0-0.6","99886","","new_stimuli/mp3/melody_1_v1+_^2_.mp3","","null","",""
"","1155","html-button-response","106","2968911","0.0-15.0-1.6","99886","","<p>Which tone was played first after the cadence?</p><p>Please respond as quickly and as accurately as possible!</p>","0","","1","new_stimuli/mp3/melody_1_v1+_^2_.mp3"
"","802","html-button-response","107","2969717","0.0-15.0-2.6","99886","","<p>Which tone was played second after the cadence?</p><p>Please respond as quickly and as accurately as possible!</p>","1","","2","new_stimuli/mp3/melody_1_v1+_^2_.mp3"
"","765","html-button-response","108","2970487","0.0-15.0-3.6","99886","","<p>Which tone was played third after the cadence?</p><p>Please respond as quickly and as accurately as possible!</p>","2","","3","new_stimuli/mp3/melody_1_v1+_^2_.mp3"
"","null","audio-keyboard-response","109","2980185","0.0-15.0-0.7","99886","","new_stimuli/mp3/melody_v4_v3_v2_buffer.mp3","","null","",""
"","7847","html-button-response","110","2988034","0.0-15.0-1.7","99886","","<p>Which tone was played first after the cadence?</p><p>Please respond as quickly and as accurately as possible!</p>","7","","1","new_stimuli/mp3/melody_v4_v3_v2_buffer.mp3"
"","843","html-button-response","111","2988880","0.0-15.0-2.7","99886","","<p>Which tone was played second after the cadence?</p><p>Please respond as quickly and as accurately as possible!</p>","5","","2","new_stimuli/mp3/melody_v4_v3_v2_buffer.mp3"
"","731","html-button-response","112","2989612","0.0-15.0-3.7","99886","","<p>Which tone was played third after the cadence?</p><p>Please respond as quickly and as accurately as possible!</p>","4","","3","new_stimuli/mp3/melody_v4_v3_v2_buffer.mp3"
"","null","audio-keyboard-response","113","2999529","0.0-15.0-0.8","99886","","new_stimuli/mp3/melody_^1_v6_v5+_.mp3","","null","",""
"","894","html-button-response","114","3000425","0.0-15.0-1.8","99886","","<p>Which tone was played first after the cadence?</p><p>Please respond as quickly and as accurately as possible!</p>","12","","1","new_stimuli/mp3/melody_^1_v6_v5+_.mp3"
"","7402","html-button-response","115","3007828","0.0-15.0-2.8","99886","","<p>Which tone was played second after the cadence?</p><p>Please respond as quickly and as accurately as possible!</p>","8","","2","new_stimuli/mp3/melody_^1_v6_v5+_.mp3"
"","471","html-button-response","116","3008301","0.0-15.0-3.8","99886","","<p>Which tone was played third after the cadence?</p><p>Please respond as quickly and as accurately as possible!</p>","7","","3","new_stimuli/mp3/melody_^1_v6_v5+_.mp3"
"[{""page_index"":0,""viewing_time"":466279},{""page_index"":1,""viewing_time"":138391},{""page_index"":2,""viewing_time"":1734}]","606404","instructions","117","3614707","0.0-16.0","99886","","","","","",""
"","null","audio-keyboard-response","118","3625668","0.0-17.0-0.0","99886","","new_stimuli/mp3/melody_^5_^6_v5_v4_v3_buffer.mp3","","null","",""
"","3849","html-button-response","119","3629527","0.0-17.0-1.0","99886","","<p>Which tone was played first after the cadence?</p><p>Please respond as quickly and as accurately as possible!</p>","5","","1","new_stimuli/mp3/melody_^5_^6_v5_v4_v3_buffer.mp3"
"","1032","html-button-response","120","3630565","0.0-17.0-2.0","99886","","<p>Which tone was played second after the cadence?</p><p>Please respond as quickly and as accurately as possible!</p>","7","","2","new_stimuli/mp3/melody_^5_^6_v5_v4_v3_buffer.mp3"
"","752","html-button-response","121","3631323","0.0-17.0-3.0","99886","","<p>Which tone was played third after the cadence?</p><p>Please respond as quickly and as accurately as possible!</p>","5","","3","new_stimuli/mp3/melody_^5_^6_v5_v4_v3_buffer.mp3"
"","2122","html-button-response","122","3633449","0.0-17.0-4.0","99886","","<p>Which tone was played fourth after the cadence?</p><p>Please respond as quickly and as accurately as possible!</p>","4","","4","new_stimuli/mp3/melody_^5_^6_v5_v4_v3_buffer.mp3"
"","1235","html-button-response","123","3634690","0.0-17.0-5.0","99886","","<p>Which tone was played fifth after the cadence?</p><p>Please respond as quickly and as accurately as possible!</p>","2","","5","new_stimuli/mp3/melody_^5_^6_v5_v4_v3_buffer.mp3"
"","null","audio-keyboard-response","124","3645434","0.0-17.0-0.1","99886","","new_stimuli/mp3/melody_^6_v5_v4_v3_v2_buffer.mp3","","null","",""
"","5695","html-button-response","125","3651133","0.0-17.0-1.1","99886","","<p>Which tone was played first after the cadence?</p><p>Please respond as quickly and as accurately as possible!</p>","9","","1","new_stimuli/mp3/melody_^6_v5_v4_v3_v2_buffer.mp3"
"","699","html-button-response","126","3651836","0.0-17.0-2.1","99886","","<p>Which tone was played second after the cadence?</p><p>Please respond as quickly and as accurately as possible!</p>","7","","2","new_stimuli/mp3/melody_^6_v5_v4_v3_v2_buffer.mp3"
"","799","html-button-response","127","3652640","0.0-17.0-3.1","99886","","<p>Which tone was played third after the cadence?</p><p>Please respond as quickly and as accurately as possible!</p>","5","","3","new_stimuli/mp3/melody_^6_v5_v4_v3_v2_buffer.mp3"
"","1649","html-button-response","128","3654295","0.0-17.0-4.1","99886","","<p>Which tone was played fourth after the cadence?</p><p>Please respond as quickly and as accurately as possible!</p>","4","","4","new_stimuli/mp3/melody_^6_v5_v4_v3_v2_buffer.mp3"
"","787","html-button-response","129","3655085","0.0-17.0-5.1","99886","","<p>Which tone was played fifth after the cadence?</p><p>Please respond as quickly and as accurately as possible!</p>","2","","5","new_stimuli/mp3/melody_^6_v5_v4_v3_v2_buffer.mp3"
"","null","audio-keyboard-response","130","3665689","0.0-17.0-0.2","99886","","new_stimuli/mp3/melody_v5_v4_v3_v2_v1 _buffer.mp3","","null","",""
"","1871","html-button-response","131","3667562","0.0-17.0-1.2","99886","","<p>Which tone was played first after the cadence?</p><p>Please respond as quickly and as accurately as possible!</p>","7","","1","new_stimuli/mp3/melody_v5_v4_v3_v2_v1 _buffer.mp3"
"","878","html-button-response","132","3668443","0.0-17.0-2.2","99886","","<p>Which tone was played second after the cadence?</p><p>Please respond as quickly and as accurately as possible!</p>","5","","2","new_stimuli/mp3/melody_v5_v4_v3_v2_v1 _buffer.mp3"
"","1420","html-button-response","133","3669865","0.0-17.0-3.2","99886","","<p>Which tone was played third after the cadence?</p><p>Please respond as quickly and as accurately as possible!</p>","4","","3","new_stimuli/mp3/melody_v5_v4_v3_v2_v1 _buffer.mp3"
"","659","html-button-response","134","3670528","0.0-17.0-4.2","99886","","<p>Which tone was played fourth after the cadence?</p><p>Please respond as quickly and as accurately as possible!</p>","2","","4","new_stimuli/mp3/melody_v5_v4_v3_v2_v1 _buffer.mp3"
"","849","html-button-response","135","3671381","0.0-17.0-5.2","99886","","<p>Which tone was played fifth after the cadence?</p><p>Please respond as quickly and as accurately as possible!</p>","0","","5","new_stimuli/mp3/melody_v5_v4_v3_v2_v1 _buffer.mp3"
"","null","audio-keyboard-response","136","3681974","0.0-17.0-0.3","99886","","new_stimuli/mp3/melody_v5_v4_v3_v2_v1_.mp3","","null","",""
"","2366","html-button-response","137","3684342","0.0-17.0-1.3","99886","","<p>Which tone was played first after the cadence?</p><p>Please respond as quickly and as accurately as possible!</p>","7","","1","new_stimuli/mp3/melody_v5_v4_v3_v2_v1_.mp3"
"","1122","html-button-response","138","3685465","0.0-17.0-2.3","99886","","<p>Which tone was played second after the cadence?</p><p>Please respond as quickly and as accurately as possible!</p>","5","","2","new_stimuli/mp3/melody_v5_v4_v3_v2_v1_.mp3"
"","1090","html-button-response","139","3686558","0.0-17.0-3.3","99886","","<p>Which tone was played third after the cadence?</p><p>Please respond as quickly and as accurately as possible!</p>","4","","3","new_stimuli/mp3/melody_v5_v4_v3_v2_v1_.mp3"
"","764","html-button-response","140","3687326","0.0-17.0-4.3","99886","","<p>Which tone was played fourth after the cadence?</p><p>Please respond as quickly and as accurately as possible!</p>","2","","4","new_stimuli/mp3/melody_v5_v4_v3_v2_v1_.mp3"
"","963","html-button-response","141","3688294","0.0-17.0-5.3","99886","","<p>Which tone was played fifth after the cadence?</p><p>Please respond as quickly and as accurately as possible!</p>","0","","5","new_stimuli/mp3/melody_v5_v4_v3_v2_v1_.mp3"
"","null","audio-keyboard-response","142","3698891","0.0-17.0-0.4","99886","","new_stimuli/mp3/melody_v2_2_^3_^4_v2_.mp3","","null","",""
"","4339","html-button-response","143","3703234","0.0-17.0-1.4","99886","","<p>Which tone was played first after the cadence?</p><p>Please respond as quickly and as accurately as possible!</p>","2","","1","new_stimuli/mp3/melody_v2_2_^3_^4_v2_.mp3"
"","970","html-button-response","144","3704208","0.0-17.0-2.4","99886","","<p>Which tone was played second after the cadence?</p><p>Please respond as quickly and as accurately as possible!</p>","2","","2","new_stimuli/mp3/melody_v2_2_^3_^4_v2_.mp3"
"","1370","html-button-response","145","3705582","0.0-17.0-3.4","99886","","<p>Which tone was played third after the cadence?</p><p>Please respond as quickly and as accurately as possible!</p>","4","","3","new_stimuli/mp3/melody_v2_2_^3_^4_v2_.mp3"
"","639","html-button-response","146","3706224","0.0-17.0-4.4","99886","","<p>Which tone was played fourth after the cadence?</p><p>Please respond as quickly and as accurately as possible!</p>","5","","4","new_stimuli/mp3/melody_v2_2_^3_^4_v2_.mp3"
"","754","html-button-response","147","3706982","0.0-17.0-5.4","99886","","<p>Which tone was played fifth after the cadence?</p><p>Please respond as quickly and as accurately as possible!</p>","2","","5","new_stimuli/mp3/melody_v2_2_^3_^4_v2_.mp3"
"","null","audio-keyboard-response","148","3717642","0.0-17.0-0.5","99886","","new_stimuli/mp3/melody_^6_v4_v3_^4_^5_.mp3","","null","",""
"","3013","html-button-response","149","3720658","0.0-17.0-1.5","99886","","<p>Which tone was played first after the cadence?</p><p>Please respond as quickly and as accurately as possible!</p>","9","","1","new_stimuli/mp3/melody_^6_v4_v3_^4_^5_.mp3"
"","1941","html-button-response","150","3722603","0.0-17.0-2.5","99886","","<p>Which tone was played second after the cadence?</p><p>Please respond as quickly and as accurately as possible!</p>","5","","2","new_stimuli/mp3/melody_^6_v4_v3_^4_^5_.mp3"
"","1669","html-button-response","151","3724276","0.0-17.0-3.5","99886","","<p>Which tone was played third after the cadence?</p><p>Please respond as quickly and as accurately as possible!</p>","4","","3","new_stimuli/mp3/melody_^6_v4_v3_^4_^5_.mp3"
"","575","html-button-response","152","3724853","0.0-17.0-4.5","99886","","<p>Which tone was played fourth after the cadence?</p><p>Please respond as quickly and as accurately as possible!</p>","5","","4","new_stimuli/mp3/melody_^6_v4_v3_^4_^5_.mp3"
"","948","html-button-response","153","3725806","0.0-17.0-5.5","99886","","<p>Which tone was played fifth after the cadence?</p><p>Please respond as quickly and as accurately as possible!</p>","7","","5","new_stimuli/mp3/melody_^6_v4_v3_^4_^5_.mp3"
"","null","audio-keyboard-response","154","3736765","0.0-17.0-0.6","99886","","new_stimuli/mp3/melody_v5-_v3_3_^4+_v3_.mp3","","null","",""
"","22155","html-button-response","155","3758923","0.0-17.0-1.6","99886","","<p>Which tone was played first after the cadence?</p><p>Please respond as quickly and as accurately as possible!</p>","6","","1","new_stimuli/mp3/melody_v5-_v3_3_^4+_v3_.mp3"
"","754","html-button-response","156","3759680","0.0-17.0-2.6","99886","","<p>Which tone was played second after the cadence?</p><p>Please respond as quickly and as accurately as possible!</p>","5","","2","new_stimuli/mp3/melody_v5-_v3_3_^4+_v3_.mp3"
"","566","html-button-response","157","3760250","0.0-17.0-3.6","99886","","<p>Which tone was played third after the cadence?</p><p>Please respond as quickly and as accurately as possible!</p>","5","","3","new_stimuli/mp3/melody_v5-_v3_3_^4+_v3_.mp3"
"","567","html-button-response","158","3760821","0.0-17.0-4.6","99886","","<p>Which tone was played fourth after the cadence?</p><p>Please respond as quickly and as accurately as possible!</p>","6","","4","new_stimuli/mp3/melody_v5-_v3_3_^4+_v3_.mp3"
"","520","html-button-response","159","3761345","0.0-17.0-5.6","99886","","<p>Which tone was played fifth after the cadence?</p><p>Please respond as quickly and as accurately as possible!</p>","5","","5","new_stimuli/mp3/melody_v5-_v3_3_^4+_v3_.mp3"
"","null","audio-keyboard-response","160","3771991","0.0-17.0-0.7","99886","","new_stimuli/mp3/melody_v5_^6+_^7_^1_5_.mp3","","null","",""
"","5772","html-button-response","161","3777765","0.0-17.0-1.7","99886","","<p>Which tone was played first after the cadence?</p><p>Please respond as quickly and as accurately as possible!</p>","7","","1","new_stimuli/mp3/melody_v5_^6+_^7_^1_5_.mp3"
"","751","html-button-response","162","3778520","0.0-17.0-2.7","99886","","<p>Which tone was played second after the cadence?</p><p>Please respond as quickly and as accurately as possible!</p>","9","","2","new_stimuli/mp3/melody_v5_^6+_^7_^1_5_.mp3"
"","1335","html-button-response","163","3779858","0.0-17.0-3.7","99886","","<p>Which tone was played third after the cadence?</p><p>Please respond as quickly and as accurately as possible!</p>","11","","3","new_stimuli/mp3/melody_v5_^6+_^7_^1_5_.mp3"
"","638","html-button-response","164","3780500","0.0-17.0-4.7","99886","","<p>Which tone was played fourth after the cadence?</p><p>Please respond as quickly and as accurately as possible!</p>","12","","4","new_stimuli/mp3/melody_v5_^6+_^7_^1_5_.mp3"
"","4136","html-button-response","165","3784641","0.0-17.0-5.7","99886","","<p>Which tone was played fifth after the cadence?</p><p>Please respond as quickly and as accurately as possible!</p>","7","","5","new_stimuli/mp3/melody_v5_^6+_^7_^1_5_.mp3"
"[{""page_index"":0,""viewing_time"":19347},{""page_index"":1,""viewing_time"":1857},{""page_index"":2,""viewing_time"":1064}]","22270","instructions","166","3806913","0.0-18.0","99886","","","","","",""
"","null","audio-keyboard-response","167","3818508","0.0-19.0-0.0","99886","","new_stimuli/mp3/melody_^5_^6_v5_v4_v3_v2_v1_buffer.mp3","","null","",""
"","4296","html-button-response","168","3822808","0.0-19.0-1.0","99886","","<p>Which tone was played first after the cadence?</p><p>Please respond as quickly and as accurately as possible!</p>","7","","1","new_stimuli/mp3/melody_^5_^6_v5_v4_v3_v2_v1_buffer.mp3"
"","1128","html-button-response","169","3823939","0.0-19.0-2.0","99886","","<p>Which tone was played second after the cadence?</p><p>Please respond as quickly and as accurately as possible!</p>","9","","2","new_stimuli/mp3/melody_^5_^6_v5_v4_v3_v2_v1_buffer.mp3"
"","997","html-button-response","170","3824939","0.0-19.0-3.0","99886","","<p>Which tone was played third after the cadence?</p><p>Please respond as quickly and as accurately as possible!</p>","7","","3","new_stimuli/mp3/melody_^5_^6_v5_v4_v3_v2_v1_buffer.mp3"
"","1075","html-button-response","171","3826018","0.0-19.0-4.0","99886","","<p>Which tone was played fourth after the cadence?</p><p>Please respond as quickly and as accurately as possible!</p>","5","","4","new_stimuli/mp3/melody_^5_^6_v5_v4_v3_v2_v1_buffer.mp3"
"","1535","html-button-response","172","3827558","0.0-19.0-5.0","99886","","<p>Which tone was played fifth after the cadence?</p><p>Please respond as quickly and as accurately as possible!</p>","4","","5","new_stimuli/mp3/melody_^5_^6_v5_v4_v3_v2_v1_buffer.mp3"
"","1004","html-button-response","173","3828565","0.0-19.0-6.0","99886","","<p>Which tone was played sixth after the cadence?</p><p>Please respond as quickly and as accurately as possible!</p>","2","","6","new_stimuli/mp3/melody_^5_^6_v5_v4_v3_v2_v1_buffer.mp3"
"","1300","html-button-response","174","3829869","0.0-19.0-7.0","99886","","<p>Which tone was played seventh after the cadence?</p><p>Please respond as quickly and as accurately as possible!</p>","0","","7","new_stimuli/mp3/melody_^5_^6_v5_v4_v3_v2_v1_buffer.mp3"
"","null","audio-keyboard-response","175","3841927","0.0-19.0-0.1","99886","","new_stimuli/mp3/melody_1_^3_v1_^5_v3_v2_^3_.mp3","","null","",""
"","1226","html-button-response","176","3843155","0.0-19.0-1.1","99886","","<p>Which tone was played first after the cadence?</p><p>Please respond as quickly and as accurately as possible!</p>","0","","1","new_stimuli/mp3/melody_1_^3_v1_^5_v3_v2_^3_.mp3"
"","1915","html-button-response","177","3845071","0.0-19.0-2.1","99886","","<p>Which tone was played second after the cadence?</p><p>Please respond as quickly and as accurately as possible!</p>","4","","2","new_stimuli/mp3/melody_1_^3_v1_^5_v3_v2_^3_.mp3"
"","871","html-button-response","178","3845946","0.0-19.0-3.1","99886","","<p>Which tone was played third after the cadence?</p><p>Please respond as quickly and as accurately as possible!</p>","0","","3","new_stimuli/mp3/melody_1_^3_v1_^5_v3_v2_^3_.mp3"
"","5090","html-button-response","179","3851040","0.0-19.0-4.1","99886","","<p>Which tone was played fourth after the cadence?</p><p>Please respond as quickly and as accurately as possible!</p>","7","","4","new_stimuli/mp3/melody_1_^3_v1_^5_v3_v2_^3_.mp3"
"","1209","html-button-response","180","3852252","0.0-19.0-5.1","99886","","<p>Which tone was played fifth after the cadence?</p><p>Please respond as quickly and as accurately as possible!</p>","4","","5","new_stimuli/mp3/melody_1_^3_v1_^5_v3_v2_^3_.mp3"
"","1212","html-button-response","181","3853469","0.0-19.0-6.1","99886","","<p>Which tone was played sixth after the cadence?</p><p>Please respond as quickly and as accurately as possible!</p>","2","","6","new_stimuli/mp3/melody_1_^3_v1_^5_v3_v2_^3_.mp3"
"","1395","html-button-response","182","3854868","0.0-19.0-7.1","99886","","<p>Which tone was played seventh after the cadence?</p><p>Please respond as quickly and as accurately as possible!</p>","4","","7","new_stimuli/mp3/melody_1_^3_v1_^5_v3_v2_^3_.mp3"
"","null","audio-keyboard-response","183","3866590","0.0-19.0-0.2","99886","","new_stimuli/mp3/melody_v1_^2_v1_v7_^1_^3_v2_.mp3","","null","",""
"","3883","html-button-response","184","3870476","0.0-19.0-1.2","99886","","<p>Which tone was played first after the cadence?</p><p>Please respond as quickly and as accurately as possible!</p>","0","","1","new_stimuli/mp3/melody_v1_^2_v1_v7_^1_^3_v2_.mp3"
"","668","html-button-response","185","3871147","0.0-19.0-2.2","99886","","<p>Which tone was played second after the cadence?</p><p>Please respond as quickly and as accurately as possible!</p>","2","","2","new_stimuli/mp3/melody_v1_^2_v1_v7_^1_^3_v2_.mp3"
"","746","html-button-response","186","3871898","0.0-19.0-3.2","99886","","<p>Which tone was played third after the cadence?</p><p>Please respond as quickly and as accurately as possible!</p>","0","","3","new_stimuli/mp3/melody_v1_^2_v1_v7_^1_^3_v2_.mp3"
"","2904","html-button-response","187","3874804","0.0-19.0-4.2","99886","","<p>Which tone was played fourth after the cadence?</p><p>Please respond as quickly and as accurately as possible!</p>","11","","4","new_stimuli/mp3/melody_v1_^2_v1_v7_^1_^3_v2_.mp3"
"","2653","html-button-response","188","3877460","0.0-19.0-5.2","99886","","<p>Which tone was played fifth after the cadence?</p><p>Please respond as quickly and as accurately as possible!</p>","12","","5","new_stimuli/mp3/melody_v1_^2_v1_v7_^1_^3_v2_.mp3"
"","6909","html-button-response","189","3884372","0.0-19.0-6.2","99886","","<p>Which tone was played sixth after the cadence?</p><p>Please respond as quickly and as accurately as possible!</p>","2","","6","new_stimuli/mp3/melody_v1_^2_v1_v7_^1_^3_v2_.mp3"
"","4001","html-button-response","190","3888374","0.0-19.0-7.2","99886","","<p>Which tone was played seventh after the cadence?</p><p>Please respond as quickly and as accurately as possible!</p>","2","","7","new_stimuli/mp3/melody_v1_^2_v1_v7_^1_^3_v2_.mp3"
"","null","audio-keyboard-response","191","3900084","0.0-19.0-0.3","99886","","new_stimuli/mp3/melody_^1_v7_v6_v5_v4_v3_v2_buffer.mp3","","null","",""
"","1829","html-button-response","192","3901916","0.0-19.0-1.3","99886","","<p>Which tone was played first after the cadence?</p><p>Please respond as quickly and as accurately as possible!</p>","12","","1","new_stimuli/mp3/melody_^1_v7_v6_v5_v4_v3_v2_buffer.mp3"
"","736","html-button-response","193","3902655","0.0-19.0-2.3","99886","","<p>Which tone was played second after the cadence?</p><p>Please respond as quickly and as accurately as possible!</p>","11","","2","new_stimuli/mp3/melody_^1_v7_v6_v5_v4_v3_v2_buffer.mp3"
"","698","html-button-response","194","3903354","0.0-19.0-3.3","99886","","<p>Which tone was played third after the cadence?</p><p>Please respond as quickly and as accurately as possible!</p>","9","","3","new_stimuli/mp3/melody_^1_v7_v6_v5_v4_v3_v2_buffer.mp3"
"","910","html-button-response","195","3904268","0.0-19.0-4.3","99886","","<p>Which tone was played fourth after the cadence?</p><p>Please respond as quickly and as accurately as possible!</p>","7","","4","new_stimuli/mp3/melody_^1_v7_v6_v5_v4_v3_v2_buffer.mp3"
"","1129","html-button-response","196","3905401","0.0-19.0-5.3","99886","","<p>Which tone was played fifth after the cadence?</p><p>Please respond as quickly and as accurately as possible!</p>","5","","5","new_stimuli/mp3/melody_^1_v7_v6_v5_v4_v3_v2_buffer.mp3"
"","2216","html-button-response","197","3907621","0.0-19.0-6.3","99886","","<p>Which tone was played sixth after the cadence?</p><p>Please respond as quickly and as accurately as possible!</p>","4","","6","new_stimuli/mp3/melody_^1_v7_v6_v5_v4_v3_v2_buffer.mp3"
"","1402","html-button-response","198","3909024","0.0-19.0-7.3","99886","","<p>Which tone was played seventh after the cadence?</p><p>Please respond as quickly and as accurately as possible!</p>","2","","7","new_stimuli/mp3/melody_^1_v7_v6_v5_v4_v3_v2_buffer.mp3"
"","null","audio-keyboard-response","199","3920690","0.0-19.0-0.4","99886","","new_stimuli/mp3/melody_^6_v5+_v4_^5+_v3_v1_v7-_.mp3","","null","",""
"","6041","html-button-response","200","3926733","0.0-19.0-1.4","99886","","<p>Which tone was played first after the cadence?</p><p>Please respond as quickly and as accurately as possible!</p>","10","","1","new_stimuli/mp3/melody_^6_v5+_v4_^5+_v3_v1_v7-_.mp3"
"","771","html-button-response","201","3927507","0.0-19.0-2.4","99886","","<p>Which tone was played second after the cadence?</p><p>Please respond as quickly and as accurately as possible!</p>","8","","2","new_stimuli/mp3/melody_^6_v5+_v4_^5+_v3_v1_v7-_.mp3"
"","1603","html-button-response","202","3929114","0.0-19.0-3.4","99886","","<p>Which tone was played third after the cadence?</p><p>Please respond as quickly and as accurately as possible!</p>","7","","3","new_stimuli/mp3/melody_^6_v5+_v4_^5+_v3_v1_v7-_.mp3"
"","3337","html-button-response","203","3932453","0.0-19.0-4.4","99886","","<p>Which tone was played fourth after the cadence?</p><p>Please respond as quickly and as accurately as possible!</p>","10","","4","new_stimuli/mp3/melody_^6_v5+_v4_^5+_v3_v1_v7-_.mp3"
"","3004","html-button-response","204","3935460","0.0-19.0-5.4","99886","","<p>Which tone was played fifth after the cadence?</p><p>Please respond as quickly and as accurately as possible!</p>","6","","5","new_stimuli/mp3/melody_^6_v5+_v4_^5+_v3_v1_v7-_.mp3"
"","1551","html-button-response","205","3937015","0.0-19.0-6.4","99886","","<p>Which tone was played sixth after the cadence?</p><p>Please respond as quickly and as accurately as possible!</p>","4","","6","new_stimuli/mp3/melody_^6_v5+_v4_^5+_v3_v1_v7-_.mp3"
"","1316","html-button-response","206","3938335","0.0-19.0-7.4","99886","","<p>Which tone was played seventh after the cadence?</p><p>Please respond as quickly and as accurately as possible!</p>","3","","7","new_stimuli/mp3/melody_^6_v5+_v4_^5+_v3_v1_v7-_.mp3"
"","null","audio-keyboard-response","207","3950069","0.0-19.0-0.5","99886","","new_stimuli/mp3/melody_^4_^5_^6_v5_v4_v3_v2_.mp3","","null","",""
"","10357","html-button-response","208","3960428","0.0-19.0-1.5","99886","","<p>Which tone was played first after the cadence?</p><p>Please respond as quickly and as accurately as possible!</p>","7","","1","new_stimuli/mp3/melody_^4_^5_^6_v5_v4_v3_v2_.mp3"
"","4302","html-button-response","209","3964733","0.0-19.0-2.5","99886","","<p>Which tone was played second after the cadence?</p><p>Please respond as quickly and as accurately as possible!</p>","9","","2","new_stimuli/mp3/melody_^4_^5_^6_v5_v4_v3_v2_.mp3"
"","605","html-button-response","210","3965341","0.0-19.0-3.5","99886","","<p>Which tone was played third after the cadence?</p><p>Please respond as quickly and as accurately as possible!</p>","7","","3","new_stimuli/mp3/melody_^4_^5_^6_v5_v4_v3_v2_.mp3"
"","1145","html-button-response","211","3966489","0.0-19.0-4.5","99886","","<p>Which tone was played fourth after the cadence?</p><p>Please respond as quickly and as accurately as possible!</p>","5","","4","new_stimuli/mp3/melody_^4_^5_^6_v5_v4_v3_v2_.mp3"
"","831","html-button-response","212","3967325","0.0-19.0-5.5","99886","","<p>Which tone was played fifth after the cadence?</p><p>Please respond as quickly and as accurately as possible!</p>","3","","5","new_stimuli/mp3/melody_^4_^5_^6_v5_v4_v3_v2_.mp3"
"","1856","html-button-response","213","3969185","0.0-19.0-6.5","99886","","<p>Which tone was played sixth after the cadence?</p><p>Please respond as quickly and as accurately as possible!</p>","4","","6","new_stimuli/mp3/melody_^4_^5_^6_v5_v4_v3_v2_.mp3"
"","997","html-button-response","214","3970185","0.0-19.0-7.5","99886","","<p>Which tone was played seventh after the cadence?</p><p>Please respond as quickly and as accurately as possible!</p>","3","","7","new_stimuli/mp3/melody_^4_^5_^6_v5_v4_v3_v2_.mp3"
"","null","audio-keyboard-response","215","3981882","0.0-19.0-0.6","99886","","new_stimuli/mp3/melody_^4_v6-_v5-_^6-_^4_v2-_2-_.mp3","","null","",""
"","15219","html-button-response","216","3997104","0.0-19.0-1.6","99886","","<p>Which tone was played first after the cadence?</p><p>Please respond as quickly and as accurately as possible!</p>","4","","1","new_stimuli/mp3/melody_^4_v6-_v5-_^6-_^4_v2-_2-_.mp3"
"","5785","html-button-response","217","4002891","0.0-19.0-2.6","99886","","<p>Which tone was played second after the cadence?</p><p>Please respond as quickly and as accurately as possible!</p>","9","","2","new_stimuli/mp3/melody_^4_v6-_v5-_^6-_^4_v2-_2-_.mp3"
"","1937","html-button-response","218","4004830","0.0-19.0-3.6","99886","","<p>Which tone was played third after the cadence?</p><p>Please respond as quickly and as accurately as possible!</p>","7","","3","new_stimuli/mp3/melody_^4_v6-_v5-_^6-_^4_v2-_2-_.mp3"
"","676","html-button-response","219","4005509","0.0-19.0-4.6","99886","","<p>Which tone was played fourth after the cadence?</p><p>Please respond as quickly and as accurately as possible!</p>","9","","4","new_stimuli/mp3/melody_^4_v6-_v5-_^6-_^4_v2-_2-_.mp3"
"","2185","html-button-response","220","4007698","0.0-19.0-5.6","99886","","<p>Which tone was played fifth after the cadence?</p><p>Please respond as quickly and as accurately as possible!</p>","4","","5","new_stimuli/mp3/melody_^4_v6-_v5-_^6-_^4_v2-_2-_.mp3"
"","1488","html-button-response","221","4009189","0.0-19.0-6.6","99886","","<p>Which tone was played sixth after the cadence?</p><p>Please respond as quickly and as accurately as possible!</p>","2","","6","new_stimuli/mp3/melody_^4_v6-_v5-_^6-_^4_v2-_2-_.mp3"
"","465","html-button-response","222","4009658","0.0-19.0-7.6","99886","","<p>Which tone was played seventh after the cadence?</p><p>Please respond as quickly and as accurately as possible!</p>","2","","7","new_stimuli/mp3/melody_^4_v6-_v5-_^6-_^4_v2-_2-_.mp3"
"[{""page_index"":0,""viewing_time"":9402},{""page_index"":1,""viewing_time"":1141},{""page_index"":2,""viewing_time"":892}]","11436","instructions","223","4021095","0.0-20.0","99886","","","","","",""
"","null","audio-keyboard-response","224","4033757","0.0-21.0-0.0","99886","","new_stimuli/mp3/melody_v7_v6_v5_^6_v5_v4_^5_^6_v5_.mp3","","null","",""
"","8617","html-button-response","225","4042377","0.0-21.0-1.0","99886","","<p>Which tone was played first after the cadence?</p><p>Please respond as quickly and as accurately as possible!</p>","11","","1","new_stimuli/mp3/melody_v7_v6_v5_^6_v5_v4_^5_^6_v5_.mp3"
"","651","html-button-response","226","4043031","0.0-21.0-2.0","99886","","<p>Which tone was played second after the cadence?</p><p>Please respond as quickly and as accurately as possible!</p>","9","","2","new_stimuli/mp3/melody_v7_v6_v5_^6_v5_v4_^5_^6_v5_.mp3"
"","834","html-button-response","227","4043868","0.0-21.0-3.0","99886","","<p>Which tone was played third after the cadence?</p><p>Please respond as quickly and as accurately as possible!</p>","7","","3","new_stimuli/mp3/melody_v7_v6_v5_^6_v5_v4_^5_^6_v5_.mp3"
"","1083","html-button-response","228","4044954","0.0-21.0-4.0","99886","","<p>Which tone was played fourth after the cadence?</p><p>Please respond as quickly and as accurately as possible!</p>","5","","4","new_stimuli/mp3/melody_v7_v6_v5_^6_v5_v4_^5_^6_v5_.mp3"
"","2489","html-button-response","229","4047447","0.0-21.0-5.0","99886","","<p>Which tone was played fifth after the cadence?</p><p>Please respond as quickly and as accurately as possible!</p>","7","","5","new_stimuli/mp3/melody_v7_v6_v5_^6_v5_v4_^5_^6_v5_.mp3"
"","965","html-button-response","230","4048414","0.0-21.0-6.0","99886","","<p>Which tone was played sixth after the cadence?</p><p>Please respond as quickly and as accurately as possible!</p>","5","","6","new_stimuli/mp3/melody_v7_v6_v5_^6_v5_v4_^5_^6_v5_.mp3"
"","1467","html-button-response","231","4049884","0.0-21.0-7.0","99886","","<p>Which tone was played seventh after the cadence?</p><p>Please respond as quickly and as accurately as possible!</p>","9","","7","new_stimuli/mp3/melody_v7_v6_v5_^6_v5_v4_^5_^6_v5_.mp3"
"","1184","html-button-response","232","4051070","0.0-21.0-8.0","99886","","<p>Which tone was played eight after the cadence?</p><p>Please respond as quickly and as accurately as possible!</p>","7","","8","new_stimuli/mp3/melody_v7_v6_v5_^6_v5_v4_^5_^6_v5_.mp3"
"","3424","html-button-response","233","4054500","0.0-21.0-9.0","99886","","<p>Which tone was played nineth after the cadence?</p><p>Please respond as quickly and as accurately as possible!</p>","7","","9","new_stimuli/mp3/melody_v7_v6_v5_^6_v5_v4_^5_^6_v5_.mp3"
"","null","audio-keyboard-response","234","4067442","0.0-21.0-0.1","99886","","new_stimuli/mp3/melody_^2_^4_v3_v2_v1_v3_v2+_^3_^5+_.mp3","","null","",""
"","1868","html-button-response","235","4069315","0.0-21.0-1.1","99886","","<p>Which tone was played first after the cadence?</p><p>Please respond as quickly and as accurately as possible!</p>","0","","1","new_stimuli/mp3/melody_^2_^4_v3_v2_v1_v3_v2+_^3_^5+_.mp3"
"","949","html-button-response","236","4070267","0.0-21.0-2.1","99886","","<p>Which tone was played second after the cadence?</p><p>Please respond as quickly and as accurately as possible!</p>","4","","2","new_stimuli/mp3/melody_^2_^4_v3_v2_v1_v3_v2+_^3_^5+_.mp3"
"","1043","html-button-response","237","4071314","0.0-21.0-3.1","99886","","<p>Which tone was played third after the cadence?</p><p>Please respond as quickly and as accurately as possible!</p>","2","","3","new_stimuli/mp3/melody_^2_^4_v3_v2_v1_v3_v2+_^3_^5+_.mp3"
"","826","html-button-response","238","4072143","0.0-21.0-4.1","99886","","<p>Which tone was played fourth after the cadence?</p><p>Please respond as quickly and as accurately as possible!</p>","0","","4","new_stimuli/mp3/melody_^2_^4_v3_v2_v1_v3_v2+_^3_^5+_.mp3"
"","4395","html-button-response","239","4076541","0.0-21.0-5.1","99886","","<p>Which tone was played fifth after the cadence?</p><p>Please respond as quickly and as accurately as possible!</p>","10","","5","new_stimuli/mp3/melody_^2_^4_v3_v2_v1_v3_v2+_^3_^5+_.mp3"
"","933","html-button-response","240","4077477","0.0-21.0-6.1","99886","","<p>Which tone was played sixth after the cadence?</p><p>Please respond as quickly and as accurately as possible!</p>","12","","6","new_stimuli/mp3/melody_^2_^4_v3_v2_v1_v3_v2+_^3_^5+_.mp3"
"","1312","html-button-response","241","4078790","0.0-21.0-7.1","99886","","<p>Which tone was played seventh after the cadence?</p><p>Please respond as quickly and as accurately as possible!</p>","3","","7","new_stimuli/mp3/melody_^2_^4_v3_v2_v1_v3_v2+_^3_^5+_.mp3"
"","1480","html-button-response","242","4080274","0.0-21.0-8.1","99886","","<p>Which tone was played eight after the cadence?</p><p>Please respond as quickly and as accurately as possible!</p>","6","","8","new_stimuli/mp3/melody_^2_^4_v3_v2_v1_v3_v2+_^3_^5+_.mp3"
"","3763","html-button-response","243","4084041","0.0-21.0-9.1","99886","","<p>Which tone was played nineth after the cadence?</p><p>Please respond as quickly and as accurately as possible!</p>","6","","9","new_stimuli/mp3/melody_^2_^4_v3_v2_v1_v3_v2+_^3_^5+_.mp3"
"","null","audio-keyboard-response","244","4096701","0.0-21.0-0.2","99886","","new_stimuli/mp3/melody_v5_v4_v6+_^7_^3+_v3_v2_v5_^4_.mp3","","null","",""
"","3853","html-button-response","245","4100555","0.0-21.0-1.2","99886","","<p>Which tone was played first after the cadence?</p><p>Please respond as quickly and as accurately as possible!</p>","6","","1","new_stimuli/mp3/melody_v5_v4_v6+_^7_^3+_v3_v2_v5_^4_.mp3"
"","698","html-button-response","246","4101256","0.0-21.0-2.2","99886","","<p>Which tone was played second after the cadence?</p><p>Please respond as quickly and as accurately as possible!</p>","5","","2","new_stimuli/mp3/melody_v5_v4_v6+_^7_^3+_v3_v2_v5_^4_.mp3"
"","3287","html-button-response","247","4104548","0.0-21.0-3.2","99886","","<p>Which tone was played third after the cadence?</p><p>Please respond as quickly and as accurately as possible!</p>","12","","3","new_stimuli/mp3/melody_v5_v4_v6+_^7_^3+_v3_v2_v5_^4_.mp3"
"","2245","html-button-response","248","4106797","0.0-21.0-4.2","99886","","<p>Which tone was played fourth after the cadence?</p><p>Please respond as quickly and as accurately as possible!</p>","3","","4","new_stimuli/mp3/melody_v5_v4_v6+_^7_^3+_v3_v2_v5_^4_.mp3"
"","552","html-button-response","249","4107351","0.0-21.0-5.2","99886","","<p>Which tone was played fifth after the cadence?</p><p>Please respond as quickly and as accurately as possible!</p>","2","","5","new_stimuli/mp3/melody_v5_v4_v6+_^7_^3+_v3_v2_v5_^4_.mp3"
"","8980","html-button-response","250","4116336","0.0-21.0-6.2","99886","","<p>Which tone was played sixth after the cadence?</p><p>Please respond as quickly and as accurately as possible!</p>","11","","6","new_stimuli/mp3/melody_v5_v4_v6+_^7_^3+_v3_v2_v5_^4_.mp3"
"","2973","html-button-response","251","4119312","0.0-21.0-7.2","99886","","<p>Which tone was played seventh after the cadence?</p><p>Please respond as quickly and as accurately as possible!</p>","1","","7","new_stimuli/mp3/melody_v5_v4_v6+_^7_^3+_v3_v2_v5_^4_.mp3"
"","1480","html-button-response","252","4120795","0.0-21.0-8.2","99886","","<p>Which tone was played eight after the cadence?</p><p>Please respond as quickly and as accurately as possible!</p>","3","","8","new_stimuli/mp3/melody_v5_v4_v6+_^7_^3+_v3_v2_v5_^4_.mp3"
"","3131","html-button-response","253","4123929","0.0-21.0-9.2","99886","","<p>Which tone was played nineth after the cadence?</p><p>Please respond as quickly and as accurately as possible!</p>","4","","9","new_stimuli/mp3/melody_v5_v4_v6+_^7_^3+_v3_v2_v5_^4_.mp3"
"","null","audio-keyboard-response","254","4136898","0.0-21.0-0.3","99886","","new_stimuli/mp3/melody_^5_^6_v5_v4_v3_v2_v1_^2_^3_buffer.mp3","","null","",""
"","3058","html-button-response","255","4139958","0.0-21.0-1.3","99886","","<p>Which tone was played first after the cadence?</p><p>Please respond as quickly and as accurately as possible!</p>","7","","1","new_stimuli/mp3/melody_^5_^6_v5_v4_v3_v2_v1_^2_^3_buffer.mp3"
"","646","html-button-response","256","4140607","0.0-21.0-2.3","99886","","<p>Which tone was played second after the cadence?</p><p>Please respond as quickly and as accurately as possible!</p>","5","","2","new_stimuli/mp3/melody_^5_^6_v5_v4_v3_v2_v1_^2_^3_buffer.mp3"
"","1472","html-button-response","257","4142083","0.0-21.0-3.3","99886","","<p>Which tone was played third after the cadence?</p><p>Please respond as quickly and as accurately as possible!</p>","4","","3","new_stimuli/mp3/melody_^5_^6_v5_v4_v3_v2_v1_^2_^3_buffer.mp3"
"","840","html-button-response","258","4142927","0.0-21.0-4.3","99886","","<p>Which tone was played fourth after the cadence?</p><p>Please respond as quickly and as accurately as possible!</p>","2","","4","new_stimuli/mp3/melody_^5_^6_v5_v4_v3_v2_v1_^2_^3_buffer.mp3"
"","1371","html-button-response","259","4144301","0.0-21.0-5.3","99886","","<p>Which tone was played fifth after the cadence?</p><p>Please respond as quickly and as accurately as possible!</p>","0","","5","new_stimuli/mp3/melody_^5_^6_v5_v4_v3_v2_v1_^2_^3_buffer.mp3"
"","3621","html-button-response","260","4147927","0.0-21.0-6.3","99886","","<p>Which tone was played sixth after the cadence?</p><p>Please respond as quickly and as accurately as possible!</p>","0","","6","new_stimuli/mp3/melody_^5_^6_v5_v4_v3_v2_v1_^2_^3_buffer.mp3"
"","1846","html-button-response","261","4149776","0.0-21.0-7.3","99886","","<p>Which tone was played seventh after the cadence?</p><p>Please respond as quickly and as accurately as possible!</p>","2","","7","new_stimuli/mp3/melody_^5_^6_v5_v4_v3_v2_v1_^2_^3_buffer.mp3"
"","1766","html-button-response","262","4151543","0.0-21.0-8.3","99886","","<p>Which tone was played eight after the cadence?</p><p>Please respond as quickly and as accurately as possible!</p>","4","","8","new_stimuli/mp3/melody_^5_^6_v5_v4_v3_v2_v1_^2_^3_buffer.mp3"
"","1520","html-button-response","263","4153068","0.0-21.0-9.3","99886","","<p>Which tone was played nineth after the cadence?</p><p>Please respond as quickly and as accurately as possible!</p>","5","","9","new_stimuli/mp3/melody_^5_^6_v5_v4_v3_v2_v1_^2_^3_buffer.mp3"
"","null","audio-keyboard-response","264","4165644","0.0-21.0-0.4","99886","","new_stimuli/mp3/melody_^3_^4_^5 _^6_v5_v4_v3_v2_v1_.mp3","","null","",""
"","4216","html-button-response","265","4169864","0.0-21.0-1.4","99886","","<p>Which tone was played first after the cadence?</p><p>Please respond as quickly and as accurately as possible!</p>","4","","1","new_stimuli/mp3/melody_^3_^4_^5 _^6_v5_v4_v3_v2_v1_.mp3"
"","505","html-button-response","266","4170372","0.0-21.0-2.4","99886","","<p>Which tone was played second after the cadence?</p><p>Please respond as quickly and as accurately as possible!</p>","5","","2","new_stimuli/mp3/melody_^3_^4_^5 _^6_v5_v4_v3_v2_v1_.mp3"
"","842","html-button-response","267","4171217","0.0-21.0-3.4","99886","","<p>Which tone was played third after the cadence?</p><p>Please respond as quickly and as accurately as possible!</p>","7","","3","new_stimuli/mp3/melody_^3_^4_^5 _^6_v5_v4_v3_v2_v1_.mp3"
"","1004","html-button-response","268","4172224","0.0-21.0-4.4","99886","","<p>Which tone was played fourth after the cadence?</p><p>Please respond as quickly and as accurately as possible!</p>","9","","4","new_stimuli/mp3/melody_^3_^4_^5 _^6_v5_v4_v3_v2_v1_.mp3"
"","854","html-button-response","269","4173082","0.0-21.0-5.4","99886","","<p>Which tone was played fifth after the cadence?</p><p>Please respond as quickly and as accurately as possible!</p>","7","","5","new_stimuli/mp3/melody_^3_^4_^5 _^6_v5_v4_v3_v2_v1_.mp3"
"","1060","html-button-response","270","4174145","0.0-21.0-6.4","99886","","<p>Which tone was played sixth after the cadence?</p><p>Please respond as quickly and as accurately as possible!</p>","5","","6","new_stimuli/mp3/melody_^3_^4_^5 _^6_v5_v4_v3_v2_v1_.mp3"
"","503","html-button-response","271","4174652","0.0-21.0-7.4","99886","","<p>Which tone was played seventh after the cadence?</p><p>Please respond as quickly and as accurately as possible!</p>","4","","7","new_stimuli/mp3/melody_^3_^4_^5 _^6_v5_v4_v3_v2_v1_.mp3"
"","888","html-button-response","272","4175543","0.0-21.0-8.4","99886","","<p>Which tone was played eight after the cadence?</p><p>Please respond as quickly and as accurately as possible!</p>","2","","8","new_stimuli/mp3/melody_^3_^4_^5 _^6_v5_v4_v3_v2_v1_.mp3"
"","1896","html-button-response","273","4177442","0.0-21.0-9.4","99886","","<p>Which tone was played nineth after the cadence?</p><p>Please respond as quickly and as accurately as possible!</p>","0","","9","new_stimuli/mp3/melody_^3_^4_^5 _^6_v5_v4_v3_v2_v1_.mp3"
"","null","audio-keyboard-response","274","4190096","0.0-21.0-0.5","99886","","new_stimuli/mp3/melody_^3_^4_v2_v7_^1_^2_^3_3_^4_.mp3","","null","",""
"","5470","html-button-response","275","4195570","0.0-21.0-1.5","99886","","<p>Which tone was played first after the cadence?</p><p>Please respond as quickly and as accurately as possible!</p>","4","","1","new_stimuli/mp3/melody_^3_^4_v2_v7_^1_^2_^3_3_^4_.mp3"
"","467","html-button-response","276","4196041","0.0-21.0-2.5","99886","","<p>Which tone was played second after the cadence?</p><p>Please respond as quickly and as accurately as possible!</p>","5","","2","new_stimuli/mp3/melody_^3_^4_v2_v7_^1_^2_^3_3_^4_.mp3"
"","1447","html-button-response","277","4197492","0.0-21.0-3.5","99886","","<p>Which tone was played third after the cadence?</p><p>Please respond as quickly and as accurately as possible!</p>","2","","3","new_stimuli/mp3/melody_^3_^4_v2_v7_^1_^2_^3_3_^4_.mp3"
"","2121","html-button-response","278","4199618","0.0-21.0-4.5","99886","","<p>Which tone was played fourth after the cadence?</p><p>Please respond as quickly and as accurately as possible!</p>","0","","4","new_stimuli/mp3/melody_^3_^4_v2_v7_^1_^2_^3_3_^4_.mp3"
"","3292","html-button-response","279","4202914","0.0-21.0-5.5","99886","","<p>Which tone was played fifth after the cadence?</p><p>Please respond as quickly and as accurately as possible!</p>","11","","5","new_stimuli/mp3/melody_^3_^4_v2_v7_^1_^2_^3_3_^4_.mp3"
"","670","html-button-response","280","4203586","0.0-21.0-6.5","99886","","<p>Which tone was played sixth after the cadence?</p><p>Please respond as quickly and as accurately as possible!</p>","12","","6","new_stimuli/mp3/melody_^3_^4_v2_v7_^1_^2_^3_3_^4_.mp3"
"","2152","html-button-response","281","4205742","0.0-21.0-7.5","99886","","<p>Which tone was played seventh after the cadence?</p><p>Please respond as quickly and as accurately as possible!</p>","4","","7","new_stimuli/mp3/melody_^3_^4_v2_v7_^1_^2_^3_3_^4_.mp3"
"","769","html-button-response","282","4206516","0.0-21.0-8.5","99886","","<p>Which tone was played eight after the cadence?</p><p>Please respond as quickly and as accurately as possible!</p>","5","","8","new_stimuli/mp3/melody_^3_^4_v2_v7_^1_^2_^3_3_^4_.mp3"
"","2519","html-button-response","283","4209038","0.0-21.0-9.5","99886","","<p>Which tone was played nineth after the cadence?</p><p>Please respond as quickly and as accurately as possible!</p>","5","","9","new_stimuli/mp3/melody_^3_^4_v2_v7_^1_^2_^3_3_^4_.mp3"
"","null","audio-keyboard-response","284","4221742","0.0-21.0-0.6","99886","","new_stimuli/mp3/melody_^2_^3_^4_^5_^6_v5_v4_v3_v2_buffer.mp3","","null","",""
"","3826","html-button-response","285","4225570","0.0-21.0-1.6","99886","","<p>Which tone was played first after the cadence?</p><p>Please respond as quickly and as accurately as possible!</p>","4","","1","new_stimuli/mp3/melody_^2_^3_^4_^5_^6_v5_v4_v3_v2_buffer.mp3"
"","1471","html-button-response","286","4227045","0.0-21.0-2.6","99886","","<p>Which tone was played second after the cadence?</p><p>Please respond as quickly and as accurately as possible!</p>","7","","2","new_stimuli/mp3/melody_^2_^3_^4_^5_^6_v5_v4_v3_v2_buffer.mp3"
"","1101","html-button-response","287","4228148","0.0-21.0-3.6","99886","","<p>Which tone was played third after the cadence?</p><p>Please respond as quickly and as accurately as possible!</p>","9","","3","new_stimuli/mp3/melody_^2_^3_^4_^5_^6_v5_v4_v3_v2_buffer.mp3"
"","825","html-button-response","288","4228976","0.0-21.0-4.6","99886","","<p>Which tone was played fourth after the cadence?</p><p>Please respond as quickly and as accurately as possible!</p>","11","","4","new_stimuli/mp3/melody_^2_^3_^4_^5_^6_v5_v4_v3_v2_buffer.mp3"
"","542","html-button-response","289","4229521","0.0-21.0-5.6","99886","","<p>Which tone was played fifth after the cadence?</p><p>Please respond as quickly and as accurately as possible!</p>","9","","5","new_stimuli/mp3/melody_^2_^3_^4_^5_^6_v5_v4_v3_v2_buffer.mp3"
"","665","html-button-response","290","4230187","0.0-21.0-6.6","99886","","<p>Which tone was played sixth after the cadence?</p><p>Please respond as quickly and as accurately as possible!</p>","7","","6","new_stimuli/mp3/melody_^2_^3_^4_^5_^6_v5_v4_v3_v2_buffer.mp3"
"","879","html-button-response","291","4231069","0.0-21.0-7.6","99886","","<p>Which tone was played seventh after the cadence?</p><p>Please respond as quickly and as accurately as possible!</p>","5","","7","new_stimuli/mp3/melody_^2_^3_^4_^5_^6_v5_v4_v3_v2_buffer.mp3"
"","2343","html-button-response","292","4233415","0.0-21.0-8.6","99886","","<p>Which tone was played eight after the cadence?</p><p>Please respond as quickly and as accurately as possible!</p>","2","","8","new_stimuli/mp3/melody_^2_^3_^4_^5_^6_v5_v4_v3_v2_buffer.mp3"
"","1464","html-button-response","293","4234882","0.0-21.0-9.6","99886","","<p>Which tone was played nineth after the cadence?</p><p>Please respond as quickly and as accurately as possible!</p>","2","","9","new_stimuli/mp3/melody_^2_^3_^4_^5_^6_v5_v4_v3_v2_buffer.mp3"
"","31790","survey-text","294","4266675","0.0-22.0","99886","{""Q0"":""contours""}","","","","",""
"","10983","survey-text","295","4277664","0.0-23.0","99886","{""Q0"":""""}","","","","",""
"","7986","survey-text","296","4285655","0.0-24.0","99886","{""Q0"":""no""}","","","","",""
"","7652","survey-text","297","4293311","0.0-25.0","99886","{""Q0"":""headphones""}","","","","",""
"","7231","survey-text","298","4300544","0.0-26.0","99886","{""Q0"":""Male""}","","","","",""
"","6332","survey-text","299","4306881","0.0-27.0","99886","{""Q0"":""yes""}","","","","",""
"[{""page_index"":0,""viewing_time"":15890}]","15890","instructions","300","4322774","0.0-28.0","99886","","","","","",""
