"","subject","rt","button_pressed_vector_c","trial_answer","score","trial_length","stimulus","serial_order"
"1",22189,8895.46499995049,"re","mi",0,2,"3_^6",1
"2",22189,5564.97000006493,"sol","la",0,2,"3_^6",2
"3",22189,14950.9799999651,"mi","mi",1,2,"v3_v2",1
"4",22189,903.240000014193,"re","re",1,2,"v3_v2",2
"5",22189,3822.56999996025,"do","re",0,2,"^2_v7-",1
"6",22189,17797.6100000087,"sol","te",0,2,"^2_v7-",2
"7",22189,11954.9549999647,"la","sol",0,2,"v5_v1+",1
"8",22189,19848.2749999966,"re","ra",0,2,"v5_v1+",2
"9",22189,11023.0549999978,"re","sol",0,2,"^5_^1+",1
"10",22189,3861.91500001587,"le","ra",0,2,"^5_^1+",2
"11",22189,34501.569999964,"le","mi",0,2,"^3_v4+",1
"12",22189,840.169999981299,"la","fi",0,2,"^3_v4+",2
"13",22189,27795.8050000016,"fa","fa",1,2,"v4_v3",1
"14",22189,5164.21499999706,"mi","mi",1,2,"v4_v3",2
"15",22189,14180.534999934,"fi","ti",0,2,"v7_v3",1
"16",22189,1671.36999999639,"ra","mi",0,2,"v7_v3",2
"17",22189,1553.31499991007,"do","do",1,2,"^1_^2+",1
"18",22189,5882.40000000224,"me","me",1,2,"^1_^2+",2
"19",22189,3452.98499998171,"ra","re",0,2,"v2_v1",1
"20",22189,2218.28999998979,"ti","do",0,2,"v2_v1",2
"21",22189,11433.480000007,"do","do",1,3,"^1_v6_v5+",1
"22",22189,8025.44999995735,"te","la",0,3,"^1_v6_v5+",2
"23",22189,1239.09500008449,"la","le",0,3,"^1_v6_v5+",3
"24",22189,13680.8650000021,"do","do",1,3,"v1_v7-_^7",1
"25",22189,2585.59999999125,"la","te",0,3,"v1_v7-_^7",2
"26",22189,605.045000091195,"te","ti",0,3,"v1_v7-_^7",3
"27",22189,8118.00999997649,"re","do",0,3,"1_v1+_^2",1
"28",22189,520.549999899231,"me","ra",0,3,"1_v1+_^2",2
"29",22189,540.440000011586,"mi","re",0,3,"1_v1+_^2",3
"30",22189,22899.3300000438,"do","la",0,3,"6_^1_v5",1
"31",22189,4531.33999998681,"mi","do",0,3,"6_^1_v5",2
"32",22189,563.419999903999,"fa","sol",0,3,"6_^1_v5",3
"33",22189,19301.7100000288,"do","re",0,3,"v2_v5_^3",1
"34",22189,1512.86500005517,"sol","sol",1,3,"v2_v5_^3",2
"35",22189,1262.89999997243,"mi","mi",1,3,"v2_v5_^3",3
"36",22189,21087.5450000167,"fa","fa",1,3,"v4_v3_v2",1
"37",22189,738.060000003316,"mi","mi",1,3,"v4_v3_v2",2
"38",22189,711.24500001315,"re","re",1,3,"v4_v3_v2",3
"39",22189,2030.03999998327,"mi","mi",1,3,"v3_v2_v1",1
"40",22189,660.885000019334,"re","re",1,3,"v3_v2_v1",2
"41",22189,767.529999953695,"do","do",1,3,"v3_v2_v1",3
"42",22189,11262.1250000084,"sol","sol",1,3,"v5_v4_v3",1
"43",22189,1684.44499990437,"fa","fa",1,3,"v5_v4_v3",2
"44",22189,1593.24000007473,"mi","mi",1,3,"v5_v4_v3",3
"45",22189,27495.0749999844,"me","do",0,3,"v1_v7-_7-",1
"46",22189,1305.92499999329,"do","te",0,3,"v1_v7-_7-",2
"47",22189,611.890000058338,"do","te",0,3,"v1_v7-_7-",3
"48",22189,17878.7399999565,"me","fi",0,5,"v5-_v3_3_^4+_v3",1
"49",22189,1011.6299999645,"re","mi",0,5,"v5-_v3_3_^4+_v3",2
"50",22189,454.524999950081,"re","mi",0,5,"v5-_v3_3_^4+_v3",3
"51",22189,561.744999955408,"me","fi",0,5,"v5-_v3_3_^4+_v3",4
"52",22189,575.454999925569,"re","mi",0,5,"v5-_v3_3_^4+_v3",5
"53",22189,2341.86500008218,"sol","sol",1,5,"v5_v4_v3_v2_v1 ",1
"54",22189,941.684999968857,"fa","fa",1,5,"v5_v4_v3_v2_v1 ",2
"55",22189,940.760000026785,"mi","mi",1,5,"v5_v4_v3_v2_v1 ",3
"56",22189,833.059999975376,"re","re",1,5,"v5_v4_v3_v2_v1 ",4
"57",22189,928.550000069663,"do","1 ",0,5,"v5_v4_v3_v2_v1 ",5
"58",22189,14346.8700000085,"sol","sol",1,5,"^5_^6_v5_v4_v3",1
"59",22189,1563.44000005629,"fa","la",0,5,"^5_^6_v5_v4_v3",2
"60",22189,3259.84499999322,"sol","sol",1,5,"^5_^6_v5_v4_v3",3
"61",22189,952.129999990575,"fa","fa",1,5,"^5_^6_v5_v4_v3",4
"62",22189,540.670000016689,"mi","mi",1,5,"^5_^6_v5_v4_v3",5
"63",22189,2231.68000008445,"sol","sol",1,5,"v5_v4_v3_v2_v1",1
"64",22189,1026.91000001505,"fa","fa",1,5,"v5_v4_v3_v2_v1",2
"65",22189,561.814999906346,"mi","mi",1,5,"v5_v4_v3_v2_v1",3
"66",22189,661.784999887459,"re","re",1,5,"v5_v4_v3_v2_v1",4
"67",22189,755.284999962896,"do","do",1,5,"v5_v4_v3_v2_v1",5
"68",22189,6107.90999990422,"ra","re",0,5,"v2_2_^3_^4_v2",1
"69",22189,765.485000098124,"ra","re",0,5,"v2_2_^3_^4_v2",2
"70",22189,5651.37500001583,"me","mi",0,5,"v2_2_^3_^4_v2",3
"71",22189,6587.65999996103,"mi","fa",0,5,"v2_2_^3_^4_v2",4
"72",22189,5072.71000009496,"ra","re",0,5,"v2_2_^3_^4_v2",5
"73",22189,22689.1900000628,"la","la",1,5,"^6_v4_v3_^4_^5",1
"74",22189,1649.5049999794,"sol","fa",0,5,"^6_v4_v3_^4_^5",2
"75",22189,1248.54499998037,"fa","mi",0,5,"^6_v4_v3_^4_^5",3
"76",22189,1097.84000006039,"mi","fa",0,5,"^6_v4_v3_^4_^5",4
"77",22189,1564.49500005692,"me","sol",0,5,"^6_v4_v3_^4_^5",5
"78",22189,23778.5999999614,"la","la",1,5,"^6_v5_v4_v3_v2",1
"79",22189,832.554999971762,"sol","sol",1,5,"^6_v5_v4_v3_v2",2
"80",22189,740.044999984093,"fa","fa",1,5,"^6_v5_v4_v3_v2",3
"81",22189,1665.06999998819,"mi","mi",1,5,"^6_v5_v4_v3_v2",4
"82",22189,948.949999990873,"re","re",1,5,"^6_v5_v4_v3_v2",5
"83",22189,16619.2049999954,"fa","sol",0,5,"v5_^6+_^7_^1_5",1
"84",22189,346.209999988787,"fa","te",0,5,"v5_^6+_^7_^1_5",2
"85",22189,1399.92499991786,"sol","ti",0,5,"v5_^6+_^7_^1_5",3
"86",22189,5701.2050000485,"le","do",0,5,"v5_^6+_^7_^1_5",4
"87",22189,810.749999945983,"fa","sol",0,5,"v5_^6+_^7_^1_5",5
"88",22189,18177.7800000273,"fa","la",0,7,"^6_v5+_v4_^5+_v3_v1_v7-",1
"89",22189,1141.13000000361,"me","le",0,7,"^6_v5+_v4_^5+_v3_v1_v7-",2
"90",22189,2771.7699999921,"re","fa",0,7,"^6_v5+_v4_^5+_v3_v1_v7-",3
"91",22189,927.219999954104,"do","le",0,7,"^6_v5+_v4_^5+_v3_v1_v7-",4
"92",22189,2352.04500006512,"la","mi",0,7,"^6_v5+_v4_^5+_v3_v1_v7-",5
"93",22189,694.825000013225,"ti","do",0,7,"^6_v5+_v4_^5+_v3_v1_v7-",6
"94",22189,1105.01499997918,"la","te",0,7,"^6_v5+_v4_^5+_v3_v1_v7-",7
"95",22189,5405.69000004325,"re","fa",0,7,"^4_^5_^6_v5_v4_v3_v2",1
"96",22189,838.909999933094,"mi","sol",0,7,"^4_^5_^6_v5_v4_v3_v2",2
"97",22189,669.484999962151,"re","la",0,7,"^4_^5_^6_v5_v4_v3_v2",3
"98",22189,654.53499997966,"do","sol",0,7,"^4_^5_^6_v5_v4_v3_v2",4
"99",22189,1628.34000005387,"ti","fa",0,7,"^4_^5_^6_v5_v4_v3_v2",5
"100",22189,583.220000029542,"la","mi",0,7,"^4_^5_^6_v5_v4_v3_v2",6
"101",22189,1391.98499999475,"sol","re",0,7,"^4_^5_^6_v5_v4_v3_v2",7
"102",22189,1264.96999990195,"do","do",1,7,"^1_v7_v6_v5_v4_v3_v2",1
"103",22189,669.755000039004,"ti","ti",1,7,"^1_v7_v6_v5_v4_v3_v2",2
"104",22189,633.085000095889,"la","la",1,7,"^1_v7_v6_v5_v4_v3_v2",3
"105",22189,632.759999949485,"sol","sol",1,7,"^1_v7_v6_v5_v4_v3_v2",4
"106",22189,762.204999919049,"fa","fa",1,7,"^1_v7_v6_v5_v4_v3_v2",5
"107",22189,690.850000013597,"mi","mi",1,7,"^1_v7_v6_v5_v4_v3_v2",6
"108",22189,2366.8399999151,"re","re",1,7,"^1_v7_v6_v5_v4_v3_v2",7
"109",22189,4479.25500001293,"la","fa",0,7,"^4_v6-_v5-_^6-_^4_v2-_2-",1
"110",22189,976.165000000037,"re","le",0,7,"^4_v6-_v5-_^6-_^4_v2-_2-",2
"111",22189,796.400000108406,"mi","fi",0,7,"^4_v6-_v5-_^6-_^4_v2-_2-",3
"112",22189,1891.44500007387,"re","le",0,7,"^4_v6-_v5-_^6-_^4_v2-_2-",4
"113",22189,1048.56999998447,"la","fa",0,7,"^4_v6-_v5-_^6-_^4_v2-_2-",5
"114",22189,1479.50499993749,"fi","ra",0,7,"^4_v6-_v5-_^6-_^4_v2-_2-",6
"115",22189,517.735000001267,"fi","ra",0,7,"^4_v6-_v5-_^6-_^4_v2-_2-",7
"116",22189,1461.81000000797,"me","do",0,7,"1_^3_v1_^5_v3_v2_^3",1
"117",22189,1173.13500004821,"ti","mi",0,7,"1_^3_v1_^5_v3_v2_^3",2
"118",22189,765.654999995604,"le","do",0,7,"1_^3_v1_^5_v3_v2_^3",3
"119",22189,856.904999935068,"fi","sol",0,7,"1_^3_v1_^5_v3_v2_^3",4
"120",22189,667.765000020154,"le","mi",0,7,"1_^3_v1_^5_v3_v2_^3",5
"121",22189,2423.53999998886,"fi","re",0,7,"1_^3_v1_^5_v3_v2_^3",6
"122",22189,1701.20999997016,"te","mi",0,7,"1_^3_v1_^5_v3_v2_^3",7
"123",22189,10592.1700000763,"sol","sol",1,7,"^5_^6_v5_v4_v3_v2_v1",1
"124",22189,901.169999968261,"la","la",1,7,"^5_^6_v5_v4_v3_v2_v1",2
"125",22189,675.879999995232,"sol","sol",1,7,"^5_^6_v5_v4_v3_v2_v1",3
"126",22189,713.034999906085,"fa","fa",1,7,"^5_^6_v5_v4_v3_v2_v1",4
"127",22189,1033.70000002906,"re","mi",0,7,"^5_^6_v5_v4_v3_v2_v1",5
"128",22189,791.489999974146,"do","re",0,7,"^5_^6_v5_v4_v3_v2_v1",6
"129",22189,626.784999971278,"do","do",1,7,"^5_^6_v5_v4_v3_v2_v1",7
"130",22189,5036.6300001042,"te","do",0,7,"v1_^2_v1_v7_^1_^3_v2",1
"131",22189,1236.74000008032,"do","re",0,7,"v1_^2_v1_v7_^1_^3_v2",2
"132",22189,559.705000021495,"te","do",0,7,"v1_^2_v1_v7_^1_^3_v2",3
"133",22189,641.735000070184,"le","ti",0,7,"v1_^2_v1_v7_^1_^3_v2",4
"134",22189,933.184999972582,"fa","do",0,7,"v1_^2_v1_v7_^1_^3_v2",5
"135",22189,740.519999992102,"le","mi",0,7,"v1_^2_v1_v7_^1_^3_v2",6
"136",22189,1491.50999996345,"sol","re",0,7,"v1_^2_v1_v7_^1_^3_v2",7
"137",22189,4003.35999997333,"do","ti",0,9,"v7_v6_v5_^6_v5_v4_^5_^6_v5",1
"138",22189,2315.16500003636,"te","la",0,9,"v7_v6_v5_^6_v5_v4_^5_^6_v5",2
"139",22189,1522.62000006158,"do","sol",0,9,"v7_v6_v5_^6_v5_v4_^5_^6_v5",3
"140",22189,696.409999975003,"te","la",0,9,"v7_v6_v5_^6_v5_v4_^5_^6_v5",4
"141",22189,912.600000039674,"le","sol",0,9,"v7_v6_v5_^6_v5_v4_^5_^6_v5",5
"142",22189,1699.3149999762,"fi","fa",0,9,"v7_v6_v5_^6_v5_v4_^5_^6_v5",6
"143",22189,861.83000006713,"le","sol",0,9,"v7_v6_v5_^6_v5_v4_^5_^6_v5",7
"144",22189,1078.28500005417,"fi","la",0,9,"v7_v6_v5_^6_v5_v4_^5_^6_v5",8
"145",22189,769.854999962263,"fa","sol",0,9,"v7_v6_v5_^6_v5_v4_^5_^6_v5",9
"146",22189,2716.04500000831,"fa","mi",0,9,"^3_^4_v2_v7_^1_^2_^3_3_^4",1
"147",22189,772.035000030883,"sol","fa",0,9,"^3_^4_v2_v7_^1_^2_^3_3_^4",2
"148",22189,574.619999970309,"fa","re",0,9,"^3_^4_v2_v7_^1_^2_^3_3_^4",3
"149",22189,2051.46499990951,"re","ti",0,9,"^3_^4_v2_v7_^1_^2_^3_3_^4",4
"150",22189,1907.04499999993,"mi","do",0,9,"^3_^4_v2_v7_^1_^2_^3_3_^4",5
"151",22189,577.580000041053,"re","re",1,9,"^3_^4_v2_v7_^1_^2_^3_3_^4",6
"152",22189,661.730000050738,"do","mi",0,9,"^3_^4_v2_v7_^1_^2_^3_3_^4",7
"153",22189,551.74500006251,"re","mi",0,9,"^3_^4_v2_v7_^1_^2_^3_3_^4",8
"154",22189,790.299999993294,"mi","fa",0,9,"^3_^4_v2_v7_^1_^2_^3_3_^4",9
"155",22189,1363.43500006478,"do","sol",0,9,"v5_v4_v6+_^7_^3+_v3_v2_v5_^4",1
"156",22189,531.929999939166,"ti","fa",0,9,"v5_v4_v6+_^7_^3+_v3_v2_v5_^4",2
"157",22189,809.149999986403,"fi","te",0,9,"v5_v4_v6+_^7_^3+_v3_v2_v5_^4",3
"158",22189,1327.47000001837,"te","ti",0,9,"v5_v4_v6+_^7_^3+_v3_v2_v5_^4",4
"159",22189,746.805000002496,"le","3+",0,9,"v5_v4_v6+_^7_^3+_v3_v2_v5_^4",5
"160",22189,1071.01499999408,"me","mi",0,9,"v5_v4_v6+_^7_^3+_v3_v2_v5_^4",6
"161",22189,1306.37499992736,"sol","re",0,9,"v5_v4_v6+_^7_^3+_v3_v2_v5_^4",7
"162",22189,554.810000001453,"fi","sol",0,9,"v5_v4_v6+_^7_^3+_v3_v2_v5_^4",8
"163",22189,1213.23999995366,"re","fa",0,9,"v5_v4_v6+_^7_^3+_v3_v2_v5_^4",9
"164",22189,1651.25999995507,"re","re",1,9,"^2_^4_v3_v2_v1_v3_v2+_^3_^5+",1
"165",22189,814.110000035726,"te","fa",0,9,"^2_^4_v3_v2_v1_v3_v2+_^3_^5+",2
"166",22189,1083.23500002734,"la","mi",0,9,"^2_^4_v3_v2_v1_v3_v2+_^3_^5+",3
"167",22189,1700.52499999292,"sol","re",0,9,"^2_^4_v3_v2_v1_v3_v2+_^3_^5+",4
"168",22189,925.979999941774,"fa","do",0,9,"^2_^4_v3_v2_v1_v3_v2+_^3_^5+",5
"169",22189,675.285000004806,"le","mi",0,9,"^2_^4_v3_v2_v1_v3_v2+_^3_^5+",6
"170",22189,625.024999957532,"sol","me",0,9,"^2_^4_v3_v2_v1_v3_v2+_^3_^5+",7
"171",22189,648.010000004433,"mi","mi",1,9,"^2_^4_v3_v2_v1_v3_v2+_^3_^5+",8
"172",22189,857.390000019222,"re","le",0,9,"^2_^4_v3_v2_v1_v3_v2+_^3_^5+",9
"173",22189,2410.96999996807,"sol","sol",1,9,"^5_^6_v5_v4_v3_v2_v1_^2_^3",1
"174",22189,590.059999958612,"la","la",1,9,"^5_^6_v5_v4_v3_v2_v1_^2_^3",2
"175",22189,1040.76499992516,"sol","sol",1,9,"^5_^6_v5_v4_v3_v2_v1_^2_^3",3
"176",22189,740.434999926947,"fa","fa",1,9,"^5_^6_v5_v4_v3_v2_v1_^2_^3",4
"177",22189,741.049999953248,"mi","mi",1,9,"^5_^6_v5_v4_v3_v2_v1_^2_^3",5
"178",22189,848.35500002373,"re","re",1,9,"^5_^6_v5_v4_v3_v2_v1_^2_^3",6
"179",22189,1592.79499994591,"do","do",1,9,"^5_^6_v5_v4_v3_v2_v1_^2_^3",7
"180",22189,725.609999964945,"re","re",1,9,"^5_^6_v5_v4_v3_v2_v1_^2_^3",8
"181",22189,683.770000003278,"mi","mi",1,9,"^5_^6_v5_v4_v3_v2_v1_^2_^3",9
"182",22189,16950.130000012,"do","re",0,9,"^2_^3_^4_^5_^6_v5_v4_v3_v2",1
"183",22189,655.660000047646,"re","mi",0,9,"^2_^3_^4_^5_^6_v5_v4_v3_v2",2
"184",22189,510.540000046603,"me","fa",0,9,"^2_^3_^4_^5_^6_v5_v4_v3_v2",3
"185",22189,719.144999980927,"fa","sol",0,9,"^2_^3_^4_^5_^6_v5_v4_v3_v2",4
"186",22189,770.295000053011,"sol","la",0,9,"^2_^3_^4_^5_^6_v5_v4_v3_v2",5
"187",22189,740.699999965727,"fa","sol",0,9,"^2_^3_^4_^5_^6_v5_v4_v3_v2",6
"188",22189,733.224999974482,"me","fa",0,9,"^2_^3_^4_^5_^6_v5_v4_v3_v2",7
"189",22189,612.959999940358,"re","mi",0,9,"^2_^3_^4_^5_^6_v5_v4_v3_v2",8
"190",22189,1262.88000005297,"do","re",0,9,"^2_^3_^4_^5_^6_v5_v4_v3_v2",9
"191",22189,2581.14499994554,"fa","mi",0,9,"^3_^4_^5 _^6_v5_v4_v3_v2_v1",1
"192",22189,3253.81999998353,"sol","fa",0,9,"^3_^4_^5 _^6_v5_v4_v3_v2_v1",2
"193",22189,1005.34999999218,"fa","5 ",0,9,"^3_^4_^5 _^6_v5_v4_v3_v2_v1",3
"194",22189,1320.4600000754,"mi","la",0,9,"^3_^4_^5 _^6_v5_v4_v3_v2_v1",4
"195",22189,915.860000066459,"re","sol",0,9,"^3_^4_^5 _^6_v5_v4_v3_v2_v1",5
"196",22189,2889.36999998987,"do","fa",0,9,"^3_^4_^5 _^6_v5_v4_v3_v2_v1",6
"197",22189,1055.64499995671,"la","mi",0,9,"^3_^4_^5 _^6_v5_v4_v3_v2_v1",7
"198",22189,776.799999992363,"sol","re",0,9,"^3_^4_^5 _^6_v5_v4_v3_v2_v1",8
"199",22189,590.304999961518,"la","do",0,9,"^3_^4_^5 _^6_v5_v4_v3_v2_v1",9
"200",31141,1300,"fa","fa",1,2,"v4_v3",1
"201",31141,595,"mi","mi",1,2,"v4_v3",2
"202",31141,1353,"mi","mi",1,2,"3_^6",1
"203",31141,832,"la","la",1,2,"3_^6",2
"204",31141,1259,"mi","mi",1,2,"^3_v4+",1
"205",31141,675,"fi","fi",1,2,"^3_v4+",2
"206",31141,1239,"re","re",1,2,"v2_v1",1
"207",31141,774,"do","do",1,2,"v2_v1",2
"208",31141,1673,"mi","mi",1,2,"v3_v2",1
"209",31141,786,"re","re",1,2,"v3_v2",2
"210",31141,1496,"sol","sol",1,2,"^5_^1+",1
"211",31141,853,"ra","ra",1,2,"^5_^1+",2
"212",31141,2154,"ti","ti",1,2,"v7_v3",1
"213",31141,1270,"mi","mi",1,2,"v7_v3",2
"214",31141,873,"do","do",1,2,"^1_^2+",1
"215",31141,854,"me","me",1,2,"^1_^2+",2
"216",31141,2900,"sol","sol",1,2,"v5_v1+",1
"217",31141,1293,"ra","ra",1,2,"v5_v1+",2
"218",31141,1465,"re","re",1,2,"^2_v7-",1
"219",31141,1090,"te","te",1,2,"^2_v7-",2
"220",31141,986,"do","do",1,3,"v1_v7-_7-",1
"221",31141,1336,"te","te",1,3,"v1_v7-_7-",2
"222",31141,483,"te","te",1,3,"v1_v7-_7-",3
"223",31141,1801,"la","la",1,3,"6_^1_v5",1
"224",31141,887,"do","do",1,3,"6_^1_v5",2
"225",31141,910,"sol","sol",1,3,"6_^1_v5",3
"226",31141,938,"do","do",1,3,"v1_v7-_^7",1
"227",31141,674,"te","te",1,3,"v1_v7-_^7",2
"228",31141,1045,"ti","ti",1,3,"v1_v7-_^7",3
"229",31141,1239,"mi","mi",1,3,"v3_v2_v1",1
"230",31141,730,"re","re",1,3,"v3_v2_v1",2
"231",31141,640,"do","do",1,3,"v3_v2_v1",3
"232",31141,1270,"fa","fa",1,3,"v4_v3_v2",1
"233",31141,505,"mi","mi",1,3,"v4_v3_v2",2
"234",31141,730,"re","re",1,3,"v4_v3_v2",3
"235",31141,1617,"do","do",1,3,"^1_v6_v5+",1
"236",31141,877,"la","la",1,3,"^1_v6_v5+",2
"237",31141,674,"le","le",1,3,"^1_v6_v5+",3
"238",31141,1324,"sol","sol",1,3,"v5_v4_v3",1
"239",31141,696,"fa","fa",1,3,"v5_v4_v3",2
"240",31141,527,"mi","mi",1,3,"v5_v4_v3",3
"241",31141,2989,"do","do",1,3,"1_v1+_^2",1
"242",31141,1080,"ra","ra",1,3,"1_v1+_^2",2
"243",31141,1057,"re","re",1,3,"1_v1+_^2",3
"244",31141,1616,"re","re",1,3,"v2_v5_^3",1
"245",31141,1044,"sol","sol",1,3,"v2_v5_^3",2
"246",31141,1260,"mi","mi",1,3,"v2_v5_^3",3
"247",31141,1318,"la","la",1,5,"^6_v5_v4_v3_v2",1
"248",31141,595,"sol","sol",1,5,"^6_v5_v4_v3_v2",2
"249",31141,617,"fa","fa",1,5,"^6_v5_v4_v3_v2",3
"250",31141,628,"mi","mi",1,5,"^6_v5_v4_v3_v2",4
"251",31141,628,"re","re",1,5,"^6_v5_v4_v3_v2",5
"252",31141,1224,"sol","sol",1,5,"v5_v4_v3_v2_v1 ",1
"253",31141,505,"fa","fa",1,5,"v5_v4_v3_v2_v1 ",2
"254",31141,662,"mi","mi",1,5,"v5_v4_v3_v2_v1 ",3
"255",31141,483,"re","re",1,5,"v5_v4_v3_v2_v1 ",4
"256",31141,449,"do","1 ",0,5,"v5_v4_v3_v2_v1 ",5
"257",31141,1166,"sol","sol",1,5,"^5_^6_v5_v4_v3",1
"258",31141,550,"la","la",1,5,"^5_^6_v5_v4_v3",2
"259",31141,764,"sol","sol",1,5,"^5_^6_v5_v4_v3",3
"260",31141,641,"fa","fa",1,5,"^5_^6_v5_v4_v3",4
"261",31141,798,"mi","mi",1,5,"^5_^6_v5_v4_v3",5
"262",31141,1112,"sol","sol",1,5,"v5_v4_v3_v2_v1",1
"263",31141,618,"fa","fa",1,5,"v5_v4_v3_v2_v1",2
"264",31141,495,"mi","mi",1,5,"v5_v4_v3_v2_v1",3
"265",31141,697,"re","re",1,5,"v5_v4_v3_v2_v1",4
"266",31141,539,"do","do",1,5,"v5_v4_v3_v2_v1",5
"267",31141,1867,"fi","fi",1,5,"v5-_v3_3_^4+_v3",1
"268",31141,752,"mi","mi",1,5,"v5-_v3_3_^4+_v3",2
"269",31141,482,"mi","mi",1,5,"v5-_v3_3_^4+_v3",3
"270",31141,765,"fi","fi",1,5,"v5-_v3_3_^4+_v3",4
"271",31141,890,"mi","mi",1,5,"v5-_v3_3_^4+_v3",5
"272",31141,1029,"re","re",1,5,"v2_2_^3_^4_v2",1
"273",31141,606,"re","re",1,5,"v2_2_^3_^4_v2",2
"274",31141,1236,"mi","mi",1,5,"v2_2_^3_^4_v2",3
"275",31141,584,"fa","fa",1,5,"v2_2_^3_^4_v2",4
"276",31141,753,"re","re",1,5,"v2_2_^3_^4_v2",5
"277",31141,1164,"sol","sol",1,5,"v5_^6+_^7_^1_5",1
"278",31141,629,"la","te",0,5,"v5_^6+_^7_^1_5",2
"279",31141,641,"ti","ti",1,5,"v5_^6+_^7_^1_5",3
"280",31141,550,"do","do",1,5,"v5_^6+_^7_^1_5",4
"281",31141,966,"sol","sol",1,5,"v5_^6+_^7_^1_5",5
"282",31141,1908,"la","la",1,5,"^6_v4_v3_^4_^5",1
"283",31141,933,"fa","fa",1,5,"^6_v4_v3_^4_^5",2
"284",31141,674,"mi","mi",1,5,"^6_v4_v3_^4_^5",3
"285",31141,674,"fa","fa",1,5,"^6_v4_v3_^4_^5",4
"286",31141,696,"sol","sol",1,5,"^6_v4_v3_^4_^5",5
"287",31141,1111,"sol","sol",1,7,"^5_^6_v5_v4_v3_v2_v1",1
"288",31141,608,"la","la",1,7,"^5_^6_v5_v4_v3_v2_v1",2
"289",31141,695,"sol","sol",1,7,"^5_^6_v5_v4_v3_v2_v1",3
"290",31141,573,"fa","fa",1,7,"^5_^6_v5_v4_v3_v2_v1",4
"291",31141,505,"mi","mi",1,7,"^5_^6_v5_v4_v3_v2_v1",5
"292",31141,629,"re","re",1,7,"^5_^6_v5_v4_v3_v2_v1",6
"293",31141,483,"do","do",1,7,"^5_^6_v5_v4_v3_v2_v1",7
"294",31141,1486,"do","do",1,7,"1_^3_v1_^5_v3_v2_^3",1
"295",31141,1022,"re","mi",0,7,"1_^3_v1_^5_v3_v2_^3",2
"296",31141,664,"do","do",1,7,"1_^3_v1_^5_v3_v2_^3",3
"297",31141,956,"sol","sol",1,7,"1_^3_v1_^5_v3_v2_^3",4
"298",31141,967,"mi","mi",1,7,"1_^3_v1_^5_v3_v2_^3",5
"299",31141,687,"re","re",1,7,"1_^3_v1_^5_v3_v2_^3",6
"300",31141,718,"mi","mi",1,7,"1_^3_v1_^5_v3_v2_^3",7
"301",31141,918,"do","do",1,7,"^1_v7_v6_v5_v4_v3_v2",1
"302",31141,449,"ti","ti",1,7,"^1_v7_v6_v5_v4_v3_v2",2
"303",31141,470,"la","la",1,7,"^1_v7_v6_v5_v4_v3_v2",3
"304",31141,561,"sol","sol",1,7,"^1_v7_v6_v5_v4_v3_v2",4
"305",31141,484,"fa","fa",1,7,"^1_v7_v6_v5_v4_v3_v2",5
"306",31141,1057,"mi","mi",1,7,"^1_v7_v6_v5_v4_v3_v2",6
"307",31141,607,"re","re",1,7,"^1_v7_v6_v5_v4_v3_v2",7
"308",31141,42965,"fa","fa",1,7,"^4_v6-_v5-_^6-_^4_v2-_2-",1
"309",31141,898,"le","le",1,7,"^4_v6-_v5-_^6-_^4_v2-_2-",2
"310",31141,833,"fi","fi",1,7,"^4_v6-_v5-_^6-_^4_v2-_2-",3
"311",31141,831,"le","le",1,7,"^4_v6-_v5-_^6-_^4_v2-_2-",4
"312",31141,990,"fa","fa",1,7,"^4_v6-_v5-_^6-_^4_v2-_2-",5
"313",31141,652,"ra","ra",1,7,"^4_v6-_v5-_^6-_^4_v2-_2-",6
"314",31141,606,"ra","ra",1,7,"^4_v6-_v5-_^6-_^4_v2-_2-",7
"315",31141,1490,"fa","fa",1,7,"^4_^5_^6_v5_v4_v3_v2",1
"316",31141,1101,"sol","sol",1,7,"^4_^5_^6_v5_v4_v3_v2",2
"317",31141,606,"la","la",1,7,"^4_^5_^6_v5_v4_v3_v2",3
"318",31141,562,"sol","sol",1,7,"^4_^5_^6_v5_v4_v3_v2",4
"319",31141,628,"fa","fa",1,7,"^4_^5_^6_v5_v4_v3_v2",5
"320",31141,504,"mi","mi",1,7,"^4_^5_^6_v5_v4_v3_v2",6
"321",31141,551,"re","re",1,7,"^4_^5_^6_v5_v4_v3_v2",7
"322",31141,1115,"do","do",1,7,"v1_^2_v1_v7_^1_^3_v2",1
"323",31141,662,"re","re",1,7,"v1_^2_v1_v7_^1_^3_v2",2
"324",31141,753,"do","do",1,7,"v1_^2_v1_v7_^1_^3_v2",3
"325",31141,921,"ti","ti",1,7,"v1_^2_v1_v7_^1_^3_v2",4
"326",31141,832,"do","do",1,7,"v1_^2_v1_v7_^1_^3_v2",5
"327",31141,1068,"mi","mi",1,7,"v1_^2_v1_v7_^1_^3_v2",6
"328",31141,675,"re","re",1,7,"v1_^2_v1_v7_^1_^3_v2",7
"329",31141,27719,"la","la",1,7,"^6_v5+_v4_^5+_v3_v1_v7-",1
"330",31141,1168,"fi","le",0,7,"^6_v5+_v4_^5+_v3_v1_v7-",2
"331",31141,448,"mi","fa",0,7,"^6_v5+_v4_^5+_v3_v1_v7-",3
"332",31141,561,"fi","le",0,7,"^6_v5+_v4_^5+_v3_v1_v7-",4
"333",31141,2643,"me","mi",0,7,"^6_v5+_v4_^5+_v3_v1_v7-",5
"334",31141,651,"do","do",1,7,"^6_v5+_v4_^5+_v3_v1_v7-",6
"335",31141,315,"do","te",0,7,"^6_v5+_v4_^5+_v3_v1_v7-",7
"336",31141,24472,"re","re",1,9,"^2_^3_^4_^5_^6_v5_v4_v3_v2",1
"337",31141,685,"mi","mi",1,9,"^2_^3_^4_^5_^6_v5_v4_v3_v2",2
"338",31141,853,"fa","fa",1,9,"^2_^3_^4_^5_^6_v5_v4_v3_v2",3
"339",31141,630,"sol","sol",1,9,"^2_^3_^4_^5_^6_v5_v4_v3_v2",4
"340",31141,550,"la","la",1,9,"^2_^3_^4_^5_^6_v5_v4_v3_v2",5
"341",31141,709,"sol","sol",1,9,"^2_^3_^4_^5_^6_v5_v4_v3_v2",6
"342",31141,832,"fa","fa",1,9,"^2_^3_^4_^5_^6_v5_v4_v3_v2",7
"343",31141,561,"mi","mi",1,9,"^2_^3_^4_^5_^6_v5_v4_v3_v2",8
"344",31141,607,"re","re",1,9,"^2_^3_^4_^5_^6_v5_v4_v3_v2",9
"345",31141,4775,"mi","mi",1,9,"^3_^4_^5 _^6_v5_v4_v3_v2_v1",1
"346",31141,527,"fa","fa",1,9,"^3_^4_^5 _^6_v5_v4_v3_v2_v1",2
"347",31141,595,"sol","5 ",0,9,"^3_^4_^5 _^6_v5_v4_v3_v2_v1",3
"348",31141,516,"la","la",1,9,"^3_^4_^5 _^6_v5_v4_v3_v2_v1",4
"349",31141,416,"sol","sol",1,9,"^3_^4_^5 _^6_v5_v4_v3_v2_v1",5
"350",31141,505,"fa","fa",1,9,"^3_^4_^5 _^6_v5_v4_v3_v2_v1",6
"351",31141,460,"mi","mi",1,9,"^3_^4_^5 _^6_v5_v4_v3_v2_v1",7
"352",31141,416,"re","re",1,9,"^3_^4_^5 _^6_v5_v4_v3_v2_v1",8
"353",31141,461,"do","do",1,9,"^3_^4_^5 _^6_v5_v4_v3_v2_v1",9
"354",31141,1669,"ti","ti",1,9,"v7_v6_v5_^6_v5_v4_^5_^6_v5",1
"355",31141,562,"la","la",1,9,"v7_v6_v5_^6_v5_v4_^5_^6_v5",2
"356",31141,574,"sol","sol",1,9,"v7_v6_v5_^6_v5_v4_^5_^6_v5",3
"357",31141,550,"fa","la",0,9,"v7_v6_v5_^6_v5_v4_^5_^6_v5",4
"358",31141,472,"sol","sol",1,9,"v7_v6_v5_^6_v5_v4_^5_^6_v5",5
"359",31141,539,"fa","fa",1,9,"v7_v6_v5_^6_v5_v4_^5_^6_v5",6
"360",31141,472,"sol","sol",1,9,"v7_v6_v5_^6_v5_v4_^5_^6_v5",7
"361",31141,515,"la","la",1,9,"v7_v6_v5_^6_v5_v4_^5_^6_v5",8
"362",31141,428,"sol","sol",1,9,"v7_v6_v5_^6_v5_v4_^5_^6_v5",9
"363",31141,1191,"sol","sol",1,9,"^5_^6_v5_v4_v3_v2_v1_^2_^3",1
"364",31141,595,"la","la",1,9,"^5_^6_v5_v4_v3_v2_v1_^2_^3",2
"365",31141,617,"sol","sol",1,9,"^5_^6_v5_v4_v3_v2_v1_^2_^3",3
"366",31141,461,"fa","fa",1,9,"^5_^6_v5_v4_v3_v2_v1_^2_^3",4
"367",31141,742,"mi","mi",1,9,"^5_^6_v5_v4_v3_v2_v1_^2_^3",5
"368",31141,460,"re","re",1,9,"^5_^6_v5_v4_v3_v2_v1_^2_^3",6
"369",31141,551,"do","do",1,9,"^5_^6_v5_v4_v3_v2_v1_^2_^3",7
"370",31141,539,"re","re",1,9,"^5_^6_v5_v4_v3_v2_v1_^2_^3",8
"371",31141,528,"mi","mi",1,9,"^5_^6_v5_v4_v3_v2_v1_^2_^3",9
"372",31141,1536,"mi","mi",1,9,"^3_^4_v2_v7_^1_^2_^3_3_^4",1
"373",31141,494,"fa","fa",1,9,"^3_^4_v2_v7_^1_^2_^3_3_^4",2
"374",31141,505,"re","re",1,9,"^3_^4_v2_v7_^1_^2_^3_3_^4",3
"375",31141,787,"ti","ti",1,9,"^3_^4_v2_v7_^1_^2_^3_3_^4",4
"376",31141,877,"do","do",1,9,"^3_^4_v2_v7_^1_^2_^3_3_^4",5
"377",31141,967,"re","re",1,9,"^3_^4_v2_v7_^1_^2_^3_3_^4",6
"378",31141,461,"mi","mi",1,9,"^3_^4_v2_v7_^1_^2_^3_3_^4",7
"379",31141,506,"fa","mi",0,9,"^3_^4_v2_v7_^1_^2_^3_3_^4",8
"380",31141,1788,"mi","fa",0,9,"^3_^4_v2_v7_^1_^2_^3_3_^4",9
"381",31141,6830,"sol","sol",1,9,"v5_v4_v6+_^7_^3+_v3_v2_v5_^4",1
"382",31141,483,"fi","fa",0,9,"v5_v4_v6+_^7_^3+_v3_v2_v5_^4",2
"383",31141,595,"fa","te",0,9,"v5_v4_v6+_^7_^3+_v3_v2_v5_^4",3
"384",31141,809,"sol","ti",0,9,"v5_v4_v6+_^7_^3+_v3_v2_v5_^4",4
"385",31141,1687,"me","3+",0,9,"v5_v4_v6+_^7_^3+_v3_v2_v5_^4",5
"386",31141,2327,"me","mi",0,9,"v5_v4_v6+_^7_^3+_v3_v2_v5_^4",6
"387",31141,606,"re","re",1,9,"v5_v4_v6+_^7_^3+_v3_v2_v5_^4",7
"388",31141,2237,"mi","sol",0,9,"v5_v4_v6+_^7_^3+_v3_v2_v5_^4",8
"389",31141,2395,"re","fa",0,9,"v5_v4_v6+_^7_^3+_v3_v2_v5_^4",9
"390",31141,4317,"mi","re",0,9,"^2_^4_v3_v2_v1_v3_v2+_^3_^5+",1
"391",31141,844,"sol","fa",0,9,"^2_^4_v3_v2_v1_v3_v2+_^3_^5+",2
"392",31141,483,"fa","mi",0,9,"^2_^4_v3_v2_v1_v3_v2+_^3_^5+",3
"393",31141,516,"mi","re",0,9,"^2_^4_v3_v2_v1_v3_v2+_^3_^5+",4
"394",31141,529,"me","do",0,9,"^2_^4_v3_v2_v1_v3_v2+_^3_^5+",5
"395",31141,1147,"mi","mi",1,9,"^2_^4_v3_v2_v1_v3_v2+_^3_^5+",6
"396",31141,28678,"ra","me",0,9,"^2_^4_v3_v2_v1_v3_v2+_^3_^5+",7
"397",31141,4218,"fi","mi",0,9,"^2_^4_v3_v2_v1_v3_v2+_^3_^5+",8
"398",31141,189,"fi","le",0,9,"^2_^4_v3_v2_v1_v3_v2+_^3_^5+",9
"399",43104,5712.88500074297,"re","re",1,2,"^2_v7-",1
"400",43104,918.270000256598,"te","te",1,2,"^2_v7-",2
"401",43104,3165.26000015438,"sol","sol",1,2,"v5_v1+",1
"402",43104,7839.39999993891,"ra","ra",1,2,"v5_v1+",2
"403",43104,4238.02000004798,"ti","ti",1,2,"v7_v3",1
"404",43104,998.970000073314,"mi","mi",1,2,"v7_v3",2
"405",43104,1376.58499926329,"fa","fa",1,2,"v4_v3",1
"406",43104,334.459999576211,"mi","mi",1,2,"v4_v3",2
"407",43104,3678.07499971241,"mi","mi",1,2,"^3_v4+",1
"408",43104,574.829999357462,"fi","fi",1,2,"^3_v4+",2
"409",43104,1015.97500033677,"do","do",1,2,"^1_^2+",1
"410",43104,967.024999670684,"me","me",1,2,"^1_^2+",2
"411",43104,3311.7800001055,"me","mi",0,2,"3_^6",1
"412",43104,1886.95499952883,"la","la",1,2,"3_^6",2
"413",43104,2372.63499945402,"sol","sol",1,2,"^5_^1+",1
"414",43104,7734.43999979645,"do","ra",0,2,"^5_^1+",2
"415",43104,1729.63999956846,"mi","mi",1,2,"v3_v2",1
"416",43104,630.785000510514,"re","re",1,2,"v3_v2",2
"417",43104,1271.82499971241,"re","re",1,2,"v2_v1",1
"418",43104,565.840000286698,"do","do",1,2,"v2_v1",2
"419",43104,1856.22000042349,"sol","sol",1,3,"v5_v4_v3",1
"420",43104,582.755000330508,"fa","fa",1,3,"v5_v4_v3",2
"421",43104,1134.99499950558,"mi","mi",1,3,"v5_v4_v3",3
"422",43104,754.025000147521,"do","do",1,3,"v1_v7-_^7",1
"423",43104,542.999999597669,"te","te",1,3,"v1_v7-_^7",2
"424",43104,287.045000120997,"ti","ti",1,3,"v1_v7-_^7",3
"425",43104,1158.01999997348,"do","do",1,3,"v1_v7-_7-",1
"426",43104,662.995000369847,"te","te",1,3,"v1_v7-_7-",2
"427",43104,423.174999654293,"te","te",1,3,"v1_v7-_7-",3
"428",43104,958.265000022948,"do","do",1,3,"1_v1+_^2",1
"429",43104,390.94499964267,"ra","ra",1,3,"1_v1+_^2",2
"430",43104,479.209999553859,"re","re",1,3,"1_v1+_^2",3
"431",43104,2112.46500071138,"la","la",1,3,"6_^1_v5",1
"432",43104,670.904999598861,"do","do",1,3,"6_^1_v5",2
"433",43104,1031.05000033975,"sol","sol",1,3,"6_^1_v5",3
"434",43104,1048.30499924719,"do","do",1,3,"^1_v6_v5+",1
"435",43104,878.825000487268,"la","la",1,3,"^1_v6_v5+",2
"436",43104,342.69000031054,"le","le",1,3,"^1_v6_v5+",3
"437",43104,1432.06999916583,"mi","mi",1,3,"v3_v2_v1",1
"438",43104,526.829999871552,"re","re",1,3,"v3_v2_v1",2
"439",43104,494.934999383986,"do","do",1,3,"v3_v2_v1",3
"440",43104,1832.03999977559,"fa","fa",1,3,"v4_v3_v2",1
"441",43104,623.010000213981,"mi","mi",1,3,"v4_v3_v2",2
"442",43104,566.894999705255,"re","re",1,3,"v4_v3_v2",3
"443",43104,1713.50499987602,"re","re",1,3,"v2_v5_^3",1
"444",43104,1086.75500005484,"sol","sol",1,3,"v2_v5_^3",2
"445",43104,758.909999392927,"mi","mi",1,3,"v2_v5_^3",3
"446",43104,1560.06999965757,"la","la",1,5,"^6_v5_v4_v3_v2",1
"447",43104,470.729999244213,"sol","sol",1,5,"^6_v5_v4_v3_v2",2
"448",43104,630.939999595284,"fa","fa",1,5,"^6_v5_v4_v3_v2",3
"449",43104,1079.09500040114,"mi","mi",1,5,"^6_v5_v4_v3_v2",4
"450",43104,502.489999867976,"re","re",1,5,"^6_v5_v4_v3_v2",5
"451",43104,1938.80999926478,"fi","fi",1,5,"v5-_v3_3_^4+_v3",1
"452",43104,951.054999604821,"mi","mi",1,5,"v5-_v3_3_^4+_v3",2
"453",43104,455.064999870956,"mi","mi",1,5,"v5-_v3_3_^4+_v3",3
"454",43104,591.105000115931,"fi","fi",1,5,"v5-_v3_3_^4+_v3",4
"455",43104,462.975000031292,"mi","mi",1,5,"v5-_v3_3_^4+_v3",5
"456",43104,1392.76500046253,"la","la",1,5,"^6_v4_v3_^4_^5",1
"457",43104,1006.83999992907,"fa","fa",1,5,"^6_v4_v3_^4_^5",2
"458",43104,606.864999979734,"mi","mi",1,5,"^6_v4_v3_^4_^5",3
"459",43104,399.469999596477,"fa","fa",1,5,"^6_v4_v3_^4_^5",4
"460",43104,526.689999736845,"sol","sol",1,5,"^6_v4_v3_^4_^5",5
"461",43104,1592.16499980539,"re","re",1,5,"v2_2_^3_^4_v2",1
"462",43104,494.974999688566,"re","re",1,5,"v2_2_^3_^4_v2",2
"463",43104,815.065000206232,"mi","mi",1,5,"v2_2_^3_^4_v2",3
"464",43104,463.105000555515,"fa","fa",1,5,"v2_2_^3_^4_v2",4
"465",43104,614.819999784231,"re","re",1,5,"v2_2_^3_^4_v2",5
"466",43104,1589.78000003844,"sol","sol",1,5,"v5_^6+_^7_^1_5",1
"467",43104,574.420000426471,"la","te",0,5,"v5_^6+_^7_^1_5",2
"468",43104,743.07500012219,"ti","ti",1,5,"v5_^6+_^7_^1_5",3
"469",43104,447.064999490976,"do","do",1,5,"v5_^6+_^7_^1_5",4
"470",43104,670.664999634027,"sol","sol",1,5,"v5_^6+_^7_^1_5",5
"471",43104,1312.40000016987,"sol","sol",1,5,"v5_v4_v3_v2_v1",1
"472",43104,478.674999438226,"fa","fa",1,5,"v5_v4_v3_v2_v1",2
"473",43104,487.075000070035,"me","mi",0,5,"v5_v4_v3_v2_v1",3
"474",43104,1807.1650005877,"re","re",1,5,"v5_v4_v3_v2_v1",4
"475",43104,495.009999722242,"do","do",1,5,"v5_v4_v3_v2_v1",5
"476",43104,1219.90500018001,"sol","sol",1,5,"v5_v4_v3_v2_v1 ",1
"477",43104,887.079999782145,"fa","fa",1,5,"v5_v4_v3_v2_v1 ",2
"478",43104,447.344999760389,"mi","mi",1,5,"v5_v4_v3_v2_v1 ",3
"479",43104,678.740000352263,"re","re",1,5,"v5_v4_v3_v2_v1 ",4
"480",43104,767.505000345409,"do","1 ",0,5,"v5_v4_v3_v2_v1 ",5
"481",43104,1460.49000043422,"sol","sol",1,5,"^5_^6_v5_v4_v3",1
"482",43104,686.819999478757,"la","la",1,5,"^5_^6_v5_v4_v3",2
"483",43104,502.980000339448,"sol","sol",1,5,"^5_^6_v5_v4_v3",3
"484",43104,591.175000183284,"fa","fa",1,5,"^5_^6_v5_v4_v3",4
"485",43104,383.100000210106,"mi","mi",1,5,"^5_^6_v5_v4_v3",5
"486",43104,1684.10000018775,"la","la",1,7,"^6_v5+_v4_^5+_v3_v1_v7-",1
"487",43104,1862.89000045508,"fa","le",0,7,"^6_v5+_v4_^5+_v3_v1_v7-",2
"488",43104,703.014999628067,"mi","fa",0,7,"^6_v5+_v4_^5+_v3_v1_v7-",3
"489",43104,2551.10999941826,"fi","le",0,7,"^6_v5+_v4_^5+_v3_v1_v7-",4
"490",43104,1359.36500038952,"mi","mi",1,7,"^6_v5+_v4_^5+_v3_v1_v7-",5
"491",43104,1372.39999976009,"do","do",1,7,"^6_v5+_v4_^5+_v3_v1_v7-",6
"492",43104,2447.1950000152,"te","te",1,7,"^6_v5+_v4_^5+_v3_v1_v7-",7
"493",43104,1798.11500012875,"do","do",1,7,"v1_^2_v1_v7_^1_^3_v2",1
"494",43104,663.145000115037,"re","re",1,7,"v1_^2_v1_v7_^1_^3_v2",2
"495",43104,519.074999727309,"do","do",1,7,"v1_^2_v1_v7_^1_^3_v2",3
"496",43104,1094.98499985784,"ti","ti",1,7,"v1_^2_v1_v7_^1_^3_v2",4
"497",43104,1094.96499970555,"do","do",1,7,"v1_^2_v1_v7_^1_^3_v2",5
"498",43104,1327.23000086844,"mi","mi",1,7,"v1_^2_v1_v7_^1_^3_v2",6
"499",43104,646.954999305308,"re","re",1,7,"v1_^2_v1_v7_^1_^3_v2",7
"500",43104,1386.50499936193,"fa","fa",1,7,"^4_^5_^6_v5_v4_v3_v2",1
"501",43104,598.939999938011,"sol","sol",1,7,"^4_^5_^6_v5_v4_v3_v2",2
"502",43104,646.339999511838,"la","la",1,7,"^4_^5_^6_v5_v4_v3_v2",3
"503",43104,527.025000192225,"sol","sol",1,7,"^4_^5_^6_v5_v4_v3_v2",4
"504",43104,623.234999366105,"fa","fa",1,7,"^4_^5_^6_v5_v4_v3_v2",5
"505",43104,750.99499989301,"mi","mi",1,7,"^4_^5_^6_v5_v4_v3_v2",6
"506",43104,550.830000080168,"re","re",1,7,"^4_^5_^6_v5_v4_v3_v2",7
"507",43104,4624.07999951392,"fa","fa",1,7,"^4_v6-_v5-_^6-_^4_v2-_2-",1
"508",43104,6854.67500053346,"le","le",1,7,"^4_v6-_v5-_^6-_^4_v2-_2-",2
"509",43104,1053.99500019848,"fi","fi",1,7,"^4_v6-_v5-_^6-_^4_v2-_2-",3
"510",43104,903.005000203848,"le","le",1,7,"^4_v6-_v5-_^6-_^4_v2-_2-",4
"511",43104,2245.88500056416,"fa","fa",1,7,"^4_v6-_v5-_^6-_^4_v2-_2-",5
"512",43104,3350.36499984562,"ra","ra",1,7,"^4_v6-_v5-_^6-_^4_v2-_2-",6
"513",43104,455.114999786019,"ra","ra",1,7,"^4_v6-_v5-_^6-_^4_v2-_2-",7
"514",43104,1248.29499982297,"sol","sol",1,7,"^5_^6_v5_v4_v3_v2_v1",1
"515",43104,583.034999668598,"la","la",1,7,"^5_^6_v5_v4_v3_v2_v1",2
"516",43104,575.015000067651,"sol","sol",1,7,"^5_^6_v5_v4_v3_v2_v1",3
"517",43104,559.155000373721,"fa","fa",1,7,"^5_^6_v5_v4_v3_v2_v1",4
"518",43104,591.025000438094,"mi","mi",1,7,"^5_^6_v5_v4_v3_v2_v1",5
"519",43104,486.899999901652,"re","re",1,7,"^5_^6_v5_v4_v3_v2_v1",6
"520",43104,751.07999984175,"do","do",1,7,"^5_^6_v5_v4_v3_v2_v1",7
"521",43104,1112.79499996454,"do","do",1,7,"1_^3_v1_^5_v3_v2_^3",1
"522",43104,1559.09499991685,"mi","mi",1,7,"1_^3_v1_^5_v3_v2_^3",2
"523",43104,615.135000087321,"do","do",1,7,"1_^3_v1_^5_v3_v2_^3",3
"524",43104,1007.11499992758,"sol","sol",1,7,"1_^3_v1_^5_v3_v2_^3",4
"525",43104,1599.19499978423,"mi","mi",1,7,"1_^3_v1_^5_v3_v2_^3",5
"526",43104,502.925000153482,"re","re",1,7,"1_^3_v1_^5_v3_v2_^3",6
"527",43104,455.044999718666,"mi","mi",1,7,"1_^3_v1_^5_v3_v2_^3",7
"528",43104,1401.2050004676,"do","do",1,7,"^1_v7_v6_v5_v4_v3_v2",1
"529",43104,766.93999953568,"ti","ti",1,7,"^1_v7_v6_v5_v4_v3_v2",2
"530",43104,1303.07999998331,"la","la",1,7,"^1_v7_v6_v5_v4_v3_v2",3
"531",43104,574.874999932945,"sol","sol",1,7,"^1_v7_v6_v5_v4_v3_v2",4
"532",43104,638.985000550747,"fa","fa",1,7,"^1_v7_v6_v5_v4_v3_v2",5
"533",43104,559.025000780821,"mi","mi",1,7,"^1_v7_v6_v5_v4_v3_v2",6
"534",43104,1183.00500046462,"re","re",1,7,"^1_v7_v6_v5_v4_v3_v2",7
"535",43104,1412.28500008583,"sol","sol",1,9,"v5_v4_v6+_^7_^3+_v3_v2_v5_^4",1
"536",43104,478.885000571609,"fa","fa",1,9,"v5_v4_v6+_^7_^3+_v3_v2_v5_^4",2
"537",43104,1071.15999981761,"la","te",0,9,"v5_v4_v6+_^7_^3+_v3_v2_v5_^4",3
"538",43104,822.885000146925,"ti","ti",1,9,"v5_v4_v6+_^7_^3+_v3_v2_v5_^4",4
"539",43104,2134.89499967545,"mi","3+",0,9,"v5_v4_v6+_^7_^3+_v3_v2_v5_^4",5
"540",43104,743.095000274479,"re","mi",0,9,"v5_v4_v6+_^7_^3+_v3_v2_v5_^4",6
"541",43104,2223.26499968767,"sol","re",0,9,"v5_v4_v6+_^7_^3+_v3_v2_v5_^4",7
"542",43104,1430.8449998498,"fa","sol",0,9,"v5_v4_v6+_^7_^3+_v3_v2_v5_^4",8
"543",43104,1311.14500015974,"re","fa",0,9,"v5_v4_v6+_^7_^3+_v3_v2_v5_^4",9
"544",43104,1826.13500021398,"mi","mi",1,9,"^3_^4_^5 _^6_v5_v4_v3_v2_v1",1
"545",43104,510.815000161529,"fa","fa",1,9,"^3_^4_^5 _^6_v5_v4_v3_v2_v1",2
"546",43104,647.150000557303,"sol","5 ",0,9,"^3_^4_^5 _^6_v5_v4_v3_v2_v1",3
"547",43104,471.005000174046,"la","la",1,9,"^3_^4_^5 _^6_v5_v4_v3_v2_v1",4
"548",43104,519.094999879599,"sol","sol",1,9,"^3_^4_^5 _^6_v5_v4_v3_v2_v1",5
"549",43104,543.000000528991,"fa","fa",1,9,"^3_^4_^5 _^6_v5_v4_v3_v2_v1",6
"550",43104,463.034999556839,"mi","mi",1,9,"^3_^4_^5 _^6_v5_v4_v3_v2_v1",7
"551",43104,678.919999860227,"re","re",1,9,"^3_^4_^5 _^6_v5_v4_v3_v2_v1",8
"552",43104,615.114999935031,"do","do",1,9,"^3_^4_^5 _^6_v5_v4_v3_v2_v1",9
"553",43104,2201.9499996677,"mi","mi",1,9,"^3_^4_v2_v7_^1_^2_^3_3_^4",1
"554",43104,556.734999641776,"fa","fa",1,9,"^3_^4_v2_v7_^1_^2_^3_3_^4",2
"555",43104,1302.99500003457,"re","re",1,9,"^3_^4_v2_v7_^1_^2_^3_3_^4",3
"556",43104,799.180000089109,"ti","ti",1,9,"^3_^4_v2_v7_^1_^2_^3_3_^4",4
"557",43104,942.514999769628,"do","do",1,9,"^3_^4_v2_v7_^1_^2_^3_3_^4",5
"558",43104,687.01499979943,"re","re",1,9,"^3_^4_v2_v7_^1_^2_^3_3_^4",6
"559",43104,542.255000211298,"mi","mi",1,9,"^3_^4_v2_v7_^1_^2_^3_3_^4",7
"560",43104,439.180000685155,"mi","mi",1,9,"^3_^4_v2_v7_^1_^2_^3_3_^4",8
"561",43104,479.035000316799,"fa","fa",1,9,"^3_^4_v2_v7_^1_^2_^3_3_^4",9
"562",43104,2188.28999996185,"mi","re",0,9,"^2_^4_v3_v2_v1_v3_v2+_^3_^5+",1
"563",43104,398.954999633133,"fa","fa",1,9,"^2_^4_v3_v2_v1_v3_v2+_^3_^5+",2
"564",43104,1079.15499992669,"re","mi",0,9,"^2_^4_v3_v2_v1_v3_v2+_^3_^5+",3
"565",43104,1583.1649992615,"ti","re",0,9,"^2_^4_v3_v2_v1_v3_v2+_^3_^5+",4
"566",43104,638.829999603331,"do","do",1,9,"^2_^4_v3_v2_v1_v3_v2+_^3_^5+",5
"567",43104,2046.65500018746,"mi","mi",1,9,"^2_^4_v3_v2_v1_v3_v2+_^3_^5+",6
"568",43104,2695.12999989092,"re","me",0,9,"^2_^4_v3_v2_v1_v3_v2+_^3_^5+",7
"569",43104,3819.58500016481,"mi","mi",1,9,"^2_^4_v3_v2_v1_v3_v2+_^3_^5+",8
"570",43104,639.144999906421,"fi","le",0,9,"^2_^4_v3_v2_v1_v3_v2+_^3_^5+",9
"571",43104,1482.54500050098,"re","re",1,9,"^2_^3_^4_^5_^6_v5_v4_v3_v2",1
"572",43104,646.95500023663,"mi","mi",1,9,"^2_^3_^4_^5_^6_v5_v4_v3_v2",2
"573",43104,463.059999980032,"fa","fa",1,9,"^2_^3_^4_^5_^6_v5_v4_v3_v2",3
"574",43104,615.004999563098,"sol","sol",1,9,"^2_^3_^4_^5_^6_v5_v4_v3_v2",4
"575",43104,735.085000284016,"la","la",1,9,"^2_^3_^4_^5_^6_v5_v4_v3_v2",5
"576",43104,686.940000392497,"sol","sol",1,9,"^2_^3_^4_^5_^6_v5_v4_v3_v2",6
"577",43104,551.075000315905,"fa","fa",1,9,"^2_^3_^4_^5_^6_v5_v4_v3_v2",7
"578",43104,462.939999997616,"mi","mi",1,9,"^2_^3_^4_^5_^6_v5_v4_v3_v2",8
"579",43104,470.900000073016,"re","re",1,9,"^2_^3_^4_^5_^6_v5_v4_v3_v2",9
"580",43104,1384.02500003576,"ti","ti",1,9,"v7_v6_v5_^6_v5_v4_^5_^6_v5",1
"581",43104,542.995000258088,"la","la",1,9,"v7_v6_v5_^6_v5_v4_^5_^6_v5",2
"582",43104,478.254999965429,"sol","sol",1,9,"v7_v6_v5_^6_v5_v4_^5_^6_v5",3
"583",43104,575.060000643134,"la","la",1,9,"v7_v6_v5_^6_v5_v4_^5_^6_v5",4
"584",43104,471.060000360012,"sol","sol",1,9,"v7_v6_v5_^6_v5_v4_^5_^6_v5",5
"585",43104,567.374999634922,"fa","fa",1,9,"v7_v6_v5_^6_v5_v4_^5_^6_v5",6
"586",43104,614.225000143051,"mi","sol",0,9,"v7_v6_v5_^6_v5_v4_^5_^6_v5",7
"587",43104,639.024999924004,"fa","la",0,9,"v7_v6_v5_^6_v5_v4_^5_^6_v5",8
"588",43104,471.080000512302,"sol","sol",1,9,"v7_v6_v5_^6_v5_v4_^5_^6_v5",9
"589",43104,1297.70499933511,"sol","sol",1,9,"^5_^6_v5_v4_v3_v2_v1_^2_^3",1
"590",43104,543.189999647439,"la","la",1,9,"^5_^6_v5_v4_v3_v2_v1_^2_^3",2
"591",43104,566.964999772608,"sol","sol",1,9,"^5_^6_v5_v4_v3_v2_v1_^2_^3",3
"592",43104,470.844999887049,"fa","fa",1,9,"^5_^6_v5_v4_v3_v2_v1_^2_^3",4
"593",43104,1351.51000041515,"mi","mi",1,9,"^5_^6_v5_v4_v3_v2_v1_^2_^3",5
"594",43104,526.335000060499,"re","re",1,9,"^5_^6_v5_v4_v3_v2_v1_^2_^3",6
"595",43104,575.059999711812,"do","do",1,9,"^5_^6_v5_v4_v3_v2_v1_^2_^3",7
"596",43104,487.255000509322,"re","re",1,9,"^5_^6_v5_v4_v3_v2_v1_^2_^3",8
"597",43104,495.110000483692,"mi","mi",1,9,"^5_^6_v5_v4_v3_v2_v1_^2_^3",9
"598",4559,1525.08499997202,"do","do",1,2,"^1_^2+",1
"599",4559,1505.28500007931,"me","me",1,2,"^1_^2+",2
"600",4559,1293.95500000101,"re","re",1,2,"^2_v7-",1
"601",4559,1066.51500007138,"te","te",1,2,"^2_v7-",2
"602",4559,967.049999977462,"re","re",1,2,"v2_v1",1
"603",4559,864.844999974594,"do","do",1,2,"v2_v1",2
"604",4559,1218.5649999883,"mi","mi",1,2,"^3_v4+",1
"605",4559,673.640000051819,"fi","fi",1,2,"^3_v4+",2
"606",4559,1165.29999999329,"fa","fa",1,2,"v4_v3",1
"607",4559,426.184999989346,"mi","mi",1,2,"v4_v3",2
"608",4559,1169.24000007566,"sol","sol",1,2,"v5_v1+",1
"609",4559,628.625000012107,"ra","ra",1,2,"v5_v1+",2
"610",4559,996.820000000298,"mi","mi",1,2,"v3_v2",1
"611",4559,482.480000006035,"re","re",1,2,"v3_v2",2
"612",4559,938.090000068769,"mi","mi",1,2,"3_^6",1
"613",4559,988.664999953471,"la","la",1,2,"3_^6",2
"614",4559,998.660000041127,"sol","sol",1,2,"^5_^1+",1
"615",4559,718.394999974407,"ra","ra",1,2,"^5_^1+",2
"616",4559,792.589999968186,"ti","ti",1,2,"v7_v3",1
"617",4559,840.94499994535,"mi","mi",1,2,"v7_v3",2
"618",4559,1039.77500007022,"fa","fa",1,3,"v4_v3_v2",1
"619",4559,470.865000039339,"mi","mi",1,3,"v4_v3_v2",2
"620",4559,730.054999934509,"re","re",1,3,"v4_v3_v2",3
"621",4559,757.734999991953,"do","do",1,3,"v1_v7-_^7",1
"622",4559,504.935000091791,"te","te",1,3,"v1_v7-_^7",2
"623",4559,369.485000032,"ti","ti",1,3,"v1_v7-_^7",3
"624",4559,770.985000068322,"do","do",1,3,"^1_v6_v5+",1
"625",4559,776.190000004135,"la","la",1,3,"^1_v6_v5+",2
"626",4559,435.949999955483,"le","le",1,3,"^1_v6_v5+",3
"627",4559,1282.44999994058,"la","la",1,3,"6_^1_v5",1
"628",4559,808.365000062622,"do","do",1,3,"6_^1_v5",2
"629",4559,831.450000056066,"sol","sol",1,3,"6_^1_v5",3
"630",4559,1045.69499997888,"sol","sol",1,3,"v5_v4_v3",1
"631",4559,540.55499995593,"fa","fa",1,3,"v5_v4_v3",2
"632",4559,357.135000056587,"mi","mi",1,3,"v5_v4_v3",3
"633",4559,527.590000070632,"do","do",1,3,"1_v1+_^2",1
"634",4559,1011.18999999017,"re","ra",0,3,"1_v1+_^2",2
"635",4559,2563.33999999333,"re","re",1,3,"1_v1+_^2",3
"636",4559,1397.23000000231,"mi","mi",1,3,"v3_v2_v1",1
"637",4559,875.239999964833,"re","re",1,3,"v3_v2_v1",2
"638",4559,629.164999932982,"do","do",1,3,"v3_v2_v1",3
"639",4559,1302.51999991015,"do","do",1,3,"v1_v7-_7-",1
"640",4559,640.064999926835,"te","te",1,3,"v1_v7-_7-",2
"641",4559,302.374999970198,"te","te",1,3,"v1_v7-_7-",3
"642",4559,1035.55000002962,"re","re",1,3,"v2_v5_^3",1
"643",4559,1056.42000003718,"sol","sol",1,3,"v2_v5_^3",2
"644",4559,662.144999951124,"mi","mi",1,3,"v2_v5_^3",3
"645",4559,1042.3750000773,"sol","sol",1,5,"v5_^6+_^7_^1_5",1
"646",4559,584.140000049956,"la","te",0,5,"v5_^6+_^7_^1_5",2
"647",4559,594.859999953769,"ti","ti",1,5,"v5_^6+_^7_^1_5",3
"648",4559,472.964999964461,"do","do",1,5,"v5_^6+_^7_^1_5",4
"649",4559,807.144999969751,"sol","sol",1,5,"v5_^6+_^7_^1_5",5
"650",4559,1494.2850000225,"fi","fi",1,5,"v5-_v3_3_^4+_v3",1
"651",4559,471.55500005465,"mi","mi",1,5,"v5-_v3_3_^4+_v3",2
"652",4559,201.079999911599,"mi","mi",1,5,"v5-_v3_3_^4+_v3",3
"653",4559,887.970000039786,"fi","fi",1,5,"v5-_v3_3_^4+_v3",4
"654",4559,582.480000099167,"mi","mi",1,5,"v5-_v3_3_^4+_v3",5
"655",4559,1069.85500000883,"sol","sol",1,5,"^5_^6_v5_v4_v3",1
"656",4559,752.345000044443,"la","la",1,5,"^5_^6_v5_v4_v3",2
"657",4559,505.030000000261,"sol","sol",1,5,"^5_^6_v5_v4_v3",3
"658",4559,504.904999979772,"fa","fa",1,5,"^5_^6_v5_v4_v3",4
"659",4559,437.740000081249,"mi","mi",1,5,"^5_^6_v5_v4_v3",5
"660",4559,1050.84499996156,"sol","sol",1,5,"v5_v4_v3_v2_v1",1
"661",4559,504.914999939501,"fa","fa",1,5,"v5_v4_v3_v2_v1",2
"662",4559,527.780000003986,"mi","mi",1,5,"v5_v4_v3_v2_v1",3
"663",4559,1125.06999995094,"re","re",1,5,"v5_v4_v3_v2_v1",4
"664",4559,627.500000060536,"do","do",1,5,"v5_v4_v3_v2_v1",5
"665",4559,890.100000076927,"re","re",1,5,"v2_2_^3_^4_v2",1
"666",4559,302.585000055842,"re","re",1,5,"v2_2_^3_^4_v2",2
"667",4559,617.654999950901,"mi","mi",1,5,"v2_2_^3_^4_v2",3
"668",4559,572.200000053272,"fa","fa",1,5,"v2_2_^3_^4_v2",4
"669",4559,1011.5700000897,"re","re",1,5,"v2_2_^3_^4_v2",5
"670",4559,1338.38500001002,"la","la",1,5,"^6_v4_v3_^4_^5",1
"671",4559,1292.40999999456,"fa","fa",1,5,"^6_v4_v3_^4_^5",2
"672",4559,640.030000009574,"mi","mi",1,5,"^6_v4_v3_^4_^5",3
"673",4559,448.689999990165,"fa","fa",1,5,"^6_v4_v3_^4_^5",4
"674",4559,549.759999965318,"sol","sol",1,5,"^6_v4_v3_^4_^5",5
"675",4559,1368.26500005554,"sol","sol",1,5,"v5_v4_v3_v2_v1 ",1
"676",4559,863.610000000335,"fa","fa",1,5,"v5_v4_v3_v2_v1 ",2
"677",4559,447.825000039302,"mi","mi",1,5,"v5_v4_v3_v2_v1 ",3
"678",4559,527.484999969602,"re","re",1,5,"v5_v4_v3_v2_v1 ",4
"679",4559,786.699999938719,"do","1 ",0,5,"v5_v4_v3_v2_v1 ",5
"680",4559,966.634999960661,"la","la",1,5,"^6_v5_v4_v3_v2",1
"681",4559,730.23500002455,"sol","sol",1,5,"^6_v5_v4_v3_v2",2
"682",4559,572.299999999814,"fa","fa",1,5,"^6_v5_v4_v3_v2",3
"683",4559,527.790000080131,"mi","mi",1,5,"^6_v5_v4_v3_v2",4
"684",4559,527.560000075027,"re","re",1,5,"^6_v5_v4_v3_v2",5
"685",4559,903.060000040568,"sol","sol",1,7,"^5_^6_v5_v4_v3_v2_v1",1
"686",4559,672.414999920875,"la","la",1,7,"^5_^6_v5_v4_v3_v2_v1",2
"687",4559,707.915000035428,"sol","sol",1,7,"^5_^6_v5_v4_v3_v2_v1",3
"688",4559,572.624999913387,"fa","fa",1,7,"^5_^6_v5_v4_v3_v2_v1",4
"689",4559,448.500000056811,"mi","mi",1,7,"^5_^6_v5_v4_v3_v2_v1",5
"690",4559,527.559999958612,"re","re",1,7,"^5_^6_v5_v4_v3_v2_v1",6
"691",4559,673.83499990683,"do","do",1,7,"^5_^6_v5_v4_v3_v2_v1",7
"692",4559,883.694999967702,"fa","fa",1,7,"^4_^5_^6_v5_v4_v3_v2",1
"693",4559,595.229999977164,"sol","sol",1,7,"^4_^5_^6_v5_v4_v3_v2",2
"694",4559,775.979999918491,"la","la",1,7,"^4_^5_^6_v5_v4_v3_v2",3
"695",4559,728.899999987334,"sol","sol",1,7,"^4_^5_^6_v5_v4_v3_v2",4
"696",4559,808.539999998175,"fa","fa",1,7,"^4_^5_^6_v5_v4_v3_v2",5
"697",4559,482.649999903515,"mi","mi",1,7,"^4_^5_^6_v5_v4_v3_v2",6
"698",4559,730.04499997478,"re","re",1,7,"^4_^5_^6_v5_v4_v3_v2",7
"699",4559,3775.67499992438,"la","la",1,7,"^6_v5+_v4_^5+_v3_v1_v7-",1
"700",4559,1753.84000001941,"le","le",1,7,"^6_v5+_v4_^5+_v3_v1_v7-",2
"701",4559,1719.8549999157,"fa","fa",1,7,"^6_v5+_v4_^5+_v3_v1_v7-",3
"702",4559,2451.24499988742,"le","le",1,7,"^6_v5+_v4_^5+_v3_v1_v7-",4
"703",4559,1348.46500004642,"fa","mi",0,7,"^6_v5+_v4_^5+_v3_v1_v7-",5
"704",4559,471.474999911152,"mi","do",0,7,"^6_v5+_v4_^5+_v3_v1_v7-",6
"705",4559,786.069999914616,"te","te",1,7,"^6_v5+_v4_^5+_v3_v1_v7-",7
"706",4559,1067.80499999877,"do","do",1,7,"v1_^2_v1_v7_^1_^3_v2",1
"707",4559,902.170000015758,"ti","re",0,7,"v1_^2_v1_v7_^1_^3_v2",2
"708",4559,1602.93000005186,"do","do",1,7,"v1_^2_v1_v7_^1_^3_v2",3
"709",4559,595.35999991931,"re","ti",0,7,"v1_^2_v1_v7_^1_^3_v2",4
"710",4559,707.599999965169,"do","do",1,7,"v1_^2_v1_v7_^1_^3_v2",5
"711",4559,932.159999967553,"mi","mi",1,7,"v1_^2_v1_v7_^1_^3_v2",6
"712",4559,493.725000065751,"re","re",1,7,"v1_^2_v1_v7_^1_^3_v2",7
"713",4559,986.900000018068,"do","do",1,7,"^1_v7_v6_v5_v4_v3_v2",1
"714",4559,460.675000096671,"ti","ti",1,7,"^1_v7_v6_v5_v4_v3_v2",2
"715",4559,516.660000081174,"la","la",1,7,"^1_v7_v6_v5_v4_v3_v2",3
"716",4559,683.720000088215,"sol","sol",1,7,"^1_v7_v6_v5_v4_v3_v2",4
"717",4559,1066.53000006918,"fa","fa",1,7,"^1_v7_v6_v5_v4_v3_v2",5
"718",4559,595.165000064299,"mi","mi",1,7,"^1_v7_v6_v5_v4_v3_v2",6
"719",4559,606.230000033975,"re","re",1,7,"^1_v7_v6_v5_v4_v3_v2",7
"720",4559,1661.59999999218,"do","do",1,7,"1_^3_v1_^5_v3_v2_^3",1
"721",4559,752.545000053942,"mi","mi",1,7,"1_^3_v1_^5_v3_v2_^3",2
"722",4559,853.980000014417,"do","do",1,7,"1_^3_v1_^5_v3_v2_^3",3
"723",4559,1258.99000000209,"sol","sol",1,7,"1_^3_v1_^5_v3_v2_^3",4
"724",4559,966.295000049286,"mi","mi",1,7,"1_^3_v1_^5_v3_v2_^3",5
"725",4559,482.604999910109,"re","re",1,7,"1_^3_v1_^5_v3_v2_^3",6
"726",4559,696.209999965504,"mi","mi",1,7,"1_^3_v1_^5_v3_v2_^3",7
"727",4559,5603.14000002109,"fa","fa",1,7,"^4_v6-_v5-_^6-_^4_v2-_2-",1
"728",4559,1258.64000001457,"le","le",1,7,"^4_v6-_v5-_^6-_^4_v2-_2-",2
"729",4559,561.320000095293,"sol","fi",0,7,"^4_v6-_v5-_^6-_^4_v2-_2-",3
"730",4559,448.730000061914,"le","le",1,7,"^4_v6-_v5-_^6-_^4_v2-_2-",4
"731",4559,3508.82999994792,"fa","fa",1,7,"^4_v6-_v5-_^6-_^4_v2-_2-",5
"732",4559,1078.7400000263,"do","ra",0,7,"^4_v6-_v5-_^6-_^4_v2-_2-",6
"733",4559,212.640000041574,"do","ra",0,7,"^4_v6-_v5-_^6-_^4_v2-_2-",7
"734",4559,1356.73999995925,"sol","sol",1,9,"^5_^6_v5_v4_v3_v2_v1_^2_^3",1
"735",4559,761.83500001207,"la","la",1,9,"^5_^6_v5_v4_v3_v2_v1_^2_^3",2
"736",4559,605.630000005476,"sol","sol",1,9,"^5_^6_v5_v4_v3_v2_v1_^2_^3",3
"737",4559,628.370000049472,"fa","fa",1,9,"^5_^6_v5_v4_v3_v2_v1_^2_^3",4
"738",4559,674.054999952205,"mi","mi",1,9,"^5_^6_v5_v4_v3_v2_v1_^2_^3",5
"739",4559,876.329999999143,"re","re",1,9,"^5_^6_v5_v4_v3_v2_v1_^2_^3",6
"740",4559,583.650000044145,"do","do",1,9,"^5_^6_v5_v4_v3_v2_v1_^2_^3",7
"741",4559,707.724999985658,"re","re",1,9,"^5_^6_v5_v4_v3_v2_v1_^2_^3",8
"742",4559,617.450000019744,"mi","mi",1,9,"^5_^6_v5_v4_v3_v2_v1_^2_^3",9
"743",4559,1479.2900000466,"re","re",1,9,"^2_^4_v3_v2_v1_v3_v2+_^3_^5+",1
"744",4559,977.064999984577,"fa","fa",1,9,"^2_^4_v3_v2_v1_v3_v2+_^3_^5+",2
"745",4559,786.495000007562,"mi","mi",1,9,"^2_^4_v3_v2_v1_v3_v2+_^3_^5+",3
"746",4559,1032.850000076,"do","re",0,9,"^2_^4_v3_v2_v1_v3_v2+_^3_^5+",4
"747",4559,1967.8600000916,"re","do",0,9,"^2_^4_v3_v2_v1_v3_v2+_^3_^5+",5
"748",4559,1224.97500001919,"do","mi",0,9,"^2_^4_v3_v2_v1_v3_v2+_^3_^5+",6
"749",4559,2305.26499997359,"mi","me",0,9,"^2_^4_v3_v2_v1_v3_v2+_^3_^5+",7
"750",4559,966.220000060275,"sol","mi",0,9,"^2_^4_v3_v2_v1_v3_v2+_^3_^5+",8
"751",4559,437.314999988303,"le","le",1,9,"^2_^4_v3_v2_v1_v3_v2+_^3_^5+",9
"752",4559,1312.09000002127,"re","re",1,9,"^2_^3_^4_^5_^6_v5_v4_v3_v2",1
"753",4559,730.175000033341,"mi","mi",1,9,"^2_^3_^4_^5_^6_v5_v4_v3_v2",2
"754",4559,504.979999968782,"fa","fa",1,9,"^2_^3_^4_^5_^6_v5_v4_v3_v2",3
"755",4559,549.804999958724,"sol","sol",1,9,"^2_^3_^4_^5_^6_v5_v4_v3_v2",4
"756",4559,696.564999991097,"la","la",1,9,"^2_^3_^4_^5_^6_v5_v4_v3_v2",5
"757",4559,685.060000047088,"sol","sol",1,9,"^2_^3_^4_^5_^6_v5_v4_v3_v2",6
"758",4559,582.500000018626,"fa","fa",1,9,"^2_^3_^4_^5_^6_v5_v4_v3_v2",7
"759",4559,573.790000053123,"mi","mi",1,9,"^2_^3_^4_^5_^6_v5_v4_v3_v2",8
"760",4559,595.515000051819,"re","re",1,9,"^2_^3_^4_^5_^6_v5_v4_v3_v2",9
"761",4559,1113.9049999183,"ti","ti",1,9,"v7_v6_v5_^6_v5_v4_^5_^6_v5",1
"762",4559,572.33500003349,"la","la",1,9,"v7_v6_v5_^6_v5_v4_^5_^6_v5",2
"763",4559,865.044999984093,"sol","sol",1,9,"v7_v6_v5_^6_v5_v4_^5_^6_v5",3
"764",4559,741.310000070371,"la","la",1,9,"v7_v6_v5_^6_v5_v4_^5_^6_v5",4
"765",4559,606.350000016391,"sol","sol",1,9,"v7_v6_v5_^6_v5_v4_^5_^6_v5",5
"766",4559,526.895000017248,"fa","fa",1,9,"v7_v6_v5_^6_v5_v4_^5_^6_v5",6
"767",4559,696.32999994792,"sol","sol",1,9,"v7_v6_v5_^6_v5_v4_^5_^6_v5",7
"768",4559,707.345000002533,"la","la",1,9,"v7_v6_v5_^6_v5_v4_^5_^6_v5",8
"769",4559,572.294999961741,"sol","sol",1,9,"v7_v6_v5_^6_v5_v4_^5_^6_v5",9
"770",4559,4545.09499995038,"sol","sol",1,9,"v5_v4_v6+_^7_^3+_v3_v2_v5_^4",1
"771",4559,605.874999891967,"fi","fa",0,9,"v5_v4_v6+_^7_^3+_v3_v2_v5_^4",2
"772",4559,493.900000001304,"fa","te",0,9,"v5_v4_v6+_^7_^3+_v3_v2_v5_^4",3
"773",4559,1348.29500003252,"la","ti",0,9,"v5_v4_v6+_^7_^3+_v3_v2_v5_^4",4
"774",4559,875.579999992624,"mi","3+",0,9,"v5_v4_v6+_^7_^3+_v3_v2_v5_^4",5
"775",4559,1371.16000009701,"me","mi",0,9,"v5_v4_v6+_^7_^3+_v3_v2_v5_^4",6
"776",4559,729.954999987967,"re","re",1,9,"v5_v4_v6+_^7_^3+_v3_v2_v5_^4",7
"777",4559,1393.71999993455,"le","sol",0,9,"v5_v4_v6+_^7_^3+_v3_v2_v5_^4",8
"778",4559,887.180000077933,"fa","fa",1,9,"v5_v4_v6+_^7_^3+_v3_v2_v5_^4",9
"779",4559,1395.35999996588,"mi","mi",1,9,"^3_^4_^5 _^6_v5_v4_v3_v2_v1",1
"780",4559,617.8549999604,"fa","fa",1,9,"^3_^4_^5 _^6_v5_v4_v3_v2_v1",2
"781",4559,538.575000013225,"sol","5 ",0,9,"^3_^4_^5 _^6_v5_v4_v3_v2_v1",3
"782",4559,550.329999998212,"la","la",1,9,"^3_^4_^5 _^6_v5_v4_v3_v2_v1",4
"783",4559,1078.46499991138,"sol","sol",1,9,"^3_^4_^5 _^6_v5_v4_v3_v2_v1",5
"784",4559,707.614999962971,"fa","fa",1,9,"^3_^4_^5 _^6_v5_v4_v3_v2_v1",6
"785",4559,809.024999965914,"mi","mi",1,9,"^3_^4_^5 _^6_v5_v4_v3_v2_v1",7
"786",4559,572.539999964647,"re","re",1,9,"^3_^4_^5 _^6_v5_v4_v3_v2_v1",8
"787",4559,752.399999997579,"do","do",1,9,"^3_^4_^5 _^6_v5_v4_v3_v2_v1",9
"788",4559,1161.88999998849,"mi","mi",1,9,"^3_^4_v2_v7_^1_^2_^3_3_^4",1
"789",4559,471.235000062734,"fa","fa",1,9,"^3_^4_v2_v7_^1_^2_^3_3_^4",2
"790",4559,617.804999928921,"re","re",1,9,"^3_^4_v2_v7_^1_^2_^3_3_^4",3
"791",4559,944.115000078455,"ti","ti",1,9,"^3_^4_v2_v7_^1_^2_^3_3_^4",4
"792",4559,1022.46499992907,"do","do",1,9,"^3_^4_v2_v7_^1_^2_^3_3_^4",5
"793",4559,741.380000021309,"re","re",1,9,"^3_^4_v2_v7_^1_^2_^3_3_^4",6
"794",4559,775.124999927357,"mi","mi",1,9,"^3_^4_v2_v7_^1_^2_^3_3_^4",7
"795",4559,403.595000039786,"mi","mi",1,9,"^3_^4_v2_v7_^1_^2_^3_3_^4",8
"796",4559,426.474999985658,"fa","fa",1,9,"^3_^4_v2_v7_^1_^2_^3_3_^4",9
"797",48542,8012.01500000025,"mi","re",0,2,"^2_v7-",1
"798",48542,8951.56499999936,"re","te",0,2,"^2_v7-",2
"799",48542,9027.95500000136,"fa","mi",0,2,"v3_v2",1
"800",48542,1426.4049999984,"me","re",0,2,"v3_v2",2
"801",48542,8467.74000000011,"re","re",1,2,"v2_v1",1
"802",48542,842.120000001159,"do","do",1,2,"v2_v1",2
"803",48542,5601.93500000238,"sol","mi",0,2,"^3_v4+",1
"804",48542,752.764999997453,"la","fi",0,2,"^3_v4+",2
"805",48542,7825.4649999981,"ti","ti",1,2,"v7_v3",1
"806",48542,1858.54499999911,"sol","mi",0,2,"v7_v3",2
"807",48542,4795.97999999905,"do","do",1,2,"^1_^2+",1
"808",48542,2000.36499999987,"me","me",1,2,"^1_^2+",2
"809",48542,7772.03000000014,"te","sol",0,2,"^5_^1+",1
"810",48542,1125.75500000082,"do","ra",0,2,"^5_^1+",2
"811",48542,3396.90499999782,"sol","sol",1,2,"v5_v1+",1
"812",48542,4875.43999999983,"ra","ra",1,2,"v5_v1+",2
"813",48542,14341.6400000023,"fa","mi",0,2,"3_^6",1
"814",48542,1835.33499999973,"la","la",1,2,"3_^6",2
"815",48542,10932.6149999979,"fa","fa",1,2,"v4_v3",1
"816",48542,2295.4299999983,"me","mi",0,2,"v4_v3",2
"817",48542,2144.5299999977,"sol","sol",1,3,"v5_v4_v3",1
"818",48542,680.745000001509,"fa","fa",1,3,"v5_v4_v3",2
"819",48542,1268.35999999824,"mi","mi",1,3,"v5_v4_v3",3
"820",48542,2387.91000000131,"mi","mi",1,3,"v3_v2_v1",1
"821",48542,638.699999999604,"re","re",1,3,"v3_v2_v1",2
"822",48542,842.609999999637,"do","do",1,3,"v3_v2_v1",3
"823",48542,7716.41499999899,"ti","do",0,3,"v1_v7-_^7",1
"824",48542,1450.33999999939,"sol","te",0,3,"v1_v7-_^7",2
"825",48542,1074.86000000068,"la","ti",0,3,"v1_v7-_^7",3
"826",48542,6936.2849999998,"mi","re",0,3,"v2_v5_^3",1
"827",48542,1618.01999999804,"la","sol",0,3,"v2_v5_^3",2
"828",48542,760.865000000107,"sol","mi",0,3,"v2_v5_^3",3
"829",48542,5630.17999999644,"la","la",1,3,"6_^1_v5",1
"830",48542,4035.84000000043,"do","do",1,3,"6_^1_v5",2
"831",48542,2216.71000000054,"ti","sol",0,3,"6_^1_v5",3
"832",48542,6736.41999999748,"do","do",1,3,"^1_v6_v5+",1
"833",48542,4160.59500000125,"le","la",0,3,"^1_v6_v5+",2
"834",48542,3169.33500000229,"sol","le",0,3,"^1_v6_v5+",3
"835",48542,4782.00500000105,"fa","fa",1,3,"v4_v3_v2",1
"836",48542,984.294999998296,"mi","mi",1,3,"v4_v3_v2",2
"837",48542,4388.3850000021,"re","re",1,3,"v4_v3_v2",3
"838",48542,1100.83500000113,"do","do",1,3,"1_v1+_^2",1
"839",48542,510.409999998985,"ra","ra",1,3,"1_v1+_^2",2
"840",48542,644.370000001742,"re","re",1,3,"1_v1+_^2",3
"841",48542,12246.4000000001,"mi","do",0,3,"v1_v7-_7-",1
"842",48542,403.935000002151,"me","te",0,3,"v1_v7-_7-",2
"843",48542,216.39499999932,"me","te",0,3,"v1_v7-_7-",3
"844",48542,4022.50999999885,"ra","re",0,5,"v2_2_^3_^4_v2",1
"845",48542,672.20499999891,"ra","re",0,5,"v2_2_^3_^4_v2",2
"846",48542,2056.91999999923,"mi","mi",1,5,"v2_2_^3_^4_v2",3
"847",48542,974.494999998482,"fa","fa",1,5,"v2_2_^3_^4_v2",4
"848",48542,1524.52500000084,"ra","re",0,5,"v2_2_^3_^4_v2",5
"849",48542,3364.13499999978,"la","la",1,5,"^6_v5_v4_v3_v2",1
"850",48542,1070.9300000018,"sol","sol",1,5,"^6_v5_v4_v3_v2",2
"851",48542,606.475000000559,"fa","fa",1,5,"^6_v5_v4_v3_v2",3
"852",48542,4996.7099999995,"mi","mi",1,5,"^6_v5_v4_v3_v2",4
"853",48542,2776.35999999987,"re","re",1,5,"^6_v5_v4_v3_v2",5
"854",48542,6867.92000000062,"me","fi",0,5,"v5-_v3_3_^4+_v3",1
"855",48542,543.46499999892,"re","mi",0,5,"v5-_v3_3_^4+_v3",2
"856",48542,492.409999998985,"re","mi",0,5,"v5-_v3_3_^4+_v3",3
"857",48542,632.804999997607,"me","fi",0,5,"v5-_v3_3_^4+_v3",4
"858",48542,1110.66500000027,"re","mi",0,5,"v5-_v3_3_^4+_v3",5
"859",48542,2020.12000000104,"sol","sol",1,5,"v5_v4_v3_v2_v1 ",1
"860",48542,695.74500000081,"fa","fa",1,5,"v5_v4_v3_v2_v1 ",2
"861",48542,680.70499999891,"me","mi",0,5,"v5_v4_v3_v2_v1 ",3
"862",48542,1795.20499999844,"re","re",1,5,"v5_v4_v3_v2_v1 ",4
"863",48542,778.975000001024,"do","1 ",0,5,"v5_v4_v3_v2_v1 ",5
"864",48542,11400.9650000008,"re","sol",0,5,"v5_^6+_^7_^1_5",1
"865",48542,1426.59999999893,"mi","te",0,5,"v5_^6+_^7_^1_5",2
"866",48542,1132.19500000193,"fa","ti",0,5,"v5_^6+_^7_^1_5",3
"867",48542,1102.71999999904,"sol","do",0,5,"v5_^6+_^7_^1_5",4
"868",48542,3642.57499999809,"fa","sol",0,5,"v5_^6+_^7_^1_5",5
"869",48542,5044.64499999816,"sol","sol",1,5,"^5_^6_v5_v4_v3",1
"870",48542,1322.13500000234,"la","la",1,5,"^5_^6_v5_v4_v3",2
"871",48542,705.405000000726,"sol","sol",1,5,"^5_^6_v5_v4_v3",3
"872",48542,932.440000000643,"fa","fa",1,5,"^5_^6_v5_v4_v3",4
"873",48542,4660.46999999881,"mi","mi",1,5,"^5_^6_v5_v4_v3",5
"874",48542,3594.39500000002,"sol","sol",1,5,"v5_v4_v3_v2_v1",1
"875",48542,957.115000001155,"fa","fa",1,5,"v5_v4_v3_v2_v1",2
"876",48542,875.840000000549,"mi","mi",1,5,"v5_v4_v3_v2_v1",3
"877",48542,930.580000000075,"re","re",1,5,"v5_v4_v3_v2_v1",4
"878",48542,1716.92000000272,"do","do",1,5,"v5_v4_v3_v2_v1",5
"879",48542,4501.91500000074,"la","la",1,5,"^6_v4_v3_^4_^5",1
"880",48542,696.664999999572,"sol","fa",0,5,"^6_v4_v3_^4_^5",2
"881",48542,1484.28999999654,"fa","mi",0,5,"^6_v4_v3_^4_^5",3
"882",48542,1622.64000000153,"mi","fa",0,5,"^6_v4_v3_^4_^5",4
"883",48542,8313.05499999877,"la","sol",0,5,"^6_v4_v3_^4_^5",5
"884",48542,11875.8699999999,"do","do",1,7,"^1_v7_v6_v5_v4_v3_v2",1
"885",48542,2420.37500000163,"ti","ti",1,7,"^1_v7_v6_v5_v4_v3_v2",2
"886",48542,698.270000000717,"la","la",1,7,"^1_v7_v6_v5_v4_v3_v2",3
"887",48542,784.674999998882,"sol","sol",1,7,"^1_v7_v6_v5_v4_v3_v2",4
"888",48542,1400.96000000276,"fa","fa",1,7,"^1_v7_v6_v5_v4_v3_v2",5
"889",48542,2602.9600000002,"mi","mi",1,7,"^1_v7_v6_v5_v4_v3_v2",6
"890",48542,1018.6699999976,"re","re",1,7,"^1_v7_v6_v5_v4_v3_v2",7
"891",48542,7126.79500000016,"sol","sol",1,7,"^5_^6_v5_v4_v3_v2_v1",1
"892",48542,795.600000001257,"la","la",1,7,"^5_^6_v5_v4_v3_v2_v1",2
"893",48542,688.945000001695,"sol","sol",1,7,"^5_^6_v5_v4_v3_v2_v1",3
"894",48542,656.759999997914,"fa","fa",1,7,"^5_^6_v5_v4_v3_v2_v1",4
"895",48542,846.495000001509,"mi","mi",1,7,"^5_^6_v5_v4_v3_v2_v1",5
"896",48542,566.674999998184,"re","re",1,7,"^5_^6_v5_v4_v3_v2_v1",6
"897",48542,827.034999998286,"do","do",1,7,"^5_^6_v5_v4_v3_v2_v1",7
"898",48542,2594.88000000059,"fa","fa",1,7,"^4_^5_^6_v5_v4_v3_v2",1
"899",48542,1038.96499999985,"sol","sol",1,7,"^4_^5_^6_v5_v4_v3_v2",2
"900",48542,696.410000000615,"la","la",1,7,"^4_^5_^6_v5_v4_v3_v2",3
"901",48542,688.554999997141,"sol","sol",1,7,"^4_^5_^6_v5_v4_v3_v2",4
"902",48542,770.725000002189,"fa","fa",1,7,"^4_^5_^6_v5_v4_v3_v2",5
"903",48542,654.790000000503,"me","mi",0,7,"^4_^5_^6_v5_v4_v3_v2",6
"904",48542,1732.69000000064,"re","re",1,7,"^4_^5_^6_v5_v4_v3_v2",7
"905",48542,1053.38000000105,"do","do",1,7,"1_^3_v1_^5_v3_v2_^3",1
"906",48542,6648.71000000136,"mi","mi",1,7,"1_^3_v1_^5_v3_v2_^3",2
"907",48542,637.859999998705,"do","do",1,7,"1_^3_v1_^5_v3_v2_^3",3
"908",48542,4071.724999998,"sol","sol",1,7,"1_^3_v1_^5_v3_v2_^3",4
"909",48542,3886.88500000001,"do","mi",0,7,"1_^3_v1_^5_v3_v2_^3",5
"910",48542,5018.22499999986,"fa","re",0,7,"1_^3_v1_^5_v3_v2_^3",6
"911",48542,712.774999999907,"mi","mi",1,7,"1_^3_v1_^5_v3_v2_^3",7
"912",48542,8728.76999999792,"ti","fa",0,7,"^4_v6-_v5-_^6-_^4_v2-_2-",1
"913",48542,1694.6399999978,"la","le",0,7,"^4_v6-_v5-_^6-_^4_v2-_2-",2
"914",48542,518.350000001956,"sol","fi",0,7,"^4_v6-_v5-_^6-_^4_v2-_2-",3
"915",48542,558.809999998659,"la","le",0,7,"^4_v6-_v5-_^6-_^4_v2-_2-",4
"916",48542,632.574999999721,"ti","fa",0,7,"^4_v6-_v5-_^6-_^4_v2-_2-",5
"917",48542,680.829999997513,"la","ra",0,7,"^4_v6-_v5-_^6-_^4_v2-_2-",6
"918",48542,2240.35499999789,"la","ra",0,7,"^4_v6-_v5-_^6-_^4_v2-_2-",7
"919",48542,8248.4150000019,"te","la",0,7,"^6_v5+_v4_^5+_v3_v1_v7-",1
"920",48542,2709.80499999854,"le","le",1,7,"^6_v5+_v4_^5+_v3_v1_v7-",2
"921",48542,590.660000001779,"sol","fa",0,7,"^6_v5+_v4_^5+_v3_v1_v7-",3
"922",48542,568.749999998603,"fi","le",0,7,"^6_v5+_v4_^5+_v3_v1_v7-",4
"923",48542,530.885000000009,"fa","mi",0,7,"^6_v5+_v4_^5+_v3_v1_v7-",5
"924",48542,2068.82499999856,"mi","do",0,7,"^6_v5+_v4_^5+_v3_v1_v7-",6
"925",48542,4070.3600000015,"me","te",0,7,"^6_v5+_v4_^5+_v3_v1_v7-",7
"926",48542,1403.45999999763,"do","do",1,7,"v1_^2_v1_v7_^1_^3_v2",1
"927",48542,1152.66500000143,"re","re",1,7,"v1_^2_v1_v7_^1_^3_v2",2
"928",48542,736.300000000279,"do","do",1,7,"v1_^2_v1_v7_^1_^3_v2",3
"929",48542,1834.30999999843,"ti","ti",1,7,"v1_^2_v1_v7_^1_^3_v2",4
"930",48542,10240.5099999995,"do","do",1,7,"v1_^2_v1_v7_^1_^3_v2",5
"931",48542,976.320000001695,"mi","mi",1,7,"v1_^2_v1_v7_^1_^3_v2",6
"932",48542,876.664999999804,"re","re",1,7,"v1_^2_v1_v7_^1_^3_v2",7
"933",48542,4161.09499999951,"re","re",1,9,"^2_^3_^4_^5_^6_v5_v4_v3_v2",1
"934",48542,963.980000000447,"mi","mi",1,9,"^2_^3_^4_^5_^6_v5_v4_v3_v2",2
"935",48542,1618.75499999942,"fa","fa",1,9,"^2_^3_^4_^5_^6_v5_v4_v3_v2",3
"936",48542,648.525000000605,"sol","sol",1,9,"^2_^3_^4_^5_^6_v5_v4_v3_v2",4
"937",48542,720.88500000257,"la","la",1,9,"^2_^3_^4_^5_^6_v5_v4_v3_v2",5
"938",48542,836.584999997169,"sol","sol",1,9,"^2_^3_^4_^5_^6_v5_v4_v3_v2",6
"939",48542,818.520000000717,"fa","fa",1,9,"^2_^3_^4_^5_^6_v5_v4_v3_v2",7
"940",48542,713.175000000745,"mi","mi",1,9,"^2_^3_^4_^5_^6_v5_v4_v3_v2",8
"941",48542,869.01500000013,"re","re",1,9,"^2_^3_^4_^5_^6_v5_v4_v3_v2",9
"942",48542,5324.51500000013,"sol","sol",1,9,"v5_v4_v6+_^7_^3+_v3_v2_v5_^4",1
"943",48542,3193.1100000001,"mi","fa",0,9,"v5_v4_v6+_^7_^3+_v3_v2_v5_^4",2
"944",48542,891.69000000041,"re","te",0,9,"v5_v4_v6+_^7_^3+_v3_v2_v5_^4",3
"945",48542,2230.71999999951,"do","ti",0,9,"v5_v4_v6+_^7_^3+_v3_v2_v5_^4",4
"946",48542,2186.92499999795,"ti","3+",0,9,"v5_v4_v6+_^7_^3+_v3_v2_v5_^4",5
"947",48542,2314.80000000028,"le","mi",0,9,"v5_v4_v6+_^7_^3+_v3_v2_v5_^4",6
"948",48542,610.029999999795,"sol","re",0,9,"v5_v4_v6+_^7_^3+_v3_v2_v5_^4",7
"949",48542,901.109999998938,"le","sol",0,9,"v5_v4_v6+_^7_^3+_v3_v2_v5_^4",8
"950",48542,1130.69499999983,"la","fa",0,9,"v5_v4_v6+_^7_^3+_v3_v2_v5_^4",9
"951",48542,5314.11999999918,"re","re",1,9,"^2_^4_v3_v2_v1_v3_v2+_^3_^5+",1
"952",48542,3730.445000001,"mi","fa",0,9,"^2_^4_v3_v2_v1_v3_v2+_^3_^5+",2
"953",48542,834.655000002356,"fa","mi",0,9,"^2_^4_v3_v2_v1_v3_v2+_^3_^5+",3
"954",48542,470.734999998938,"mi","re",0,9,"^2_^4_v3_v2_v1_v3_v2+_^3_^5+",4
"955",48542,1361.96500000008,"re","do",0,9,"^2_^4_v3_v2_v1_v3_v2+_^3_^5+",5
"956",48542,726.749999997905,"do","mi",0,9,"^2_^4_v3_v2_v1_v3_v2+_^3_^5+",6
"957",48542,1004.82999999798,"te","me",0,9,"^2_^4_v3_v2_v1_v3_v2+_^3_^5+",7
"958",48542,640.72999999905,"ti","mi",0,9,"^2_^4_v3_v2_v1_v3_v2+_^3_^5+",8
"959",48542,534.749999999069,"do","le",0,9,"^2_^4_v3_v2_v1_v3_v2+_^3_^5+",9
"960",48542,8795.1399999985,"mi","mi",1,9,"^3_^4_v2_v7_^1_^2_^3_3_^4",1
"961",48542,798.399999999674,"fa","fa",1,9,"^3_^4_v2_v7_^1_^2_^3_3_^4",2
"962",48542,460.730000002543,"mi","re",0,9,"^3_^4_v2_v7_^1_^2_^3_3_^4",3
"963",48542,720.849999997998,"re","ti",0,9,"^3_^4_v2_v7_^1_^2_^3_3_^4",4
"964",48542,2746.68499999819,"mi","do",0,9,"^3_^4_v2_v7_^1_^2_^3_3_^4",5
"965",48542,568.149999999208,"fa","re",0,9,"^3_^4_v2_v7_^1_^2_^3_3_^4",6
"966",48542,1231.67500000261,"sol","mi",0,9,"^3_^4_v2_v7_^1_^2_^3_3_^4",7
"967",48542,3281.27999999933,"le","mi",0,9,"^3_^4_v2_v7_^1_^2_^3_3_^4",8
"968",48542,2955.9599999995,"la","fa",0,9,"^3_^4_v2_v7_^1_^2_^3_3_^4",9
"969",48542,6585.1799999983,"sol","mi",0,9,"^3_^4_^5 _^6_v5_v4_v3_v2_v1",1
"970",48542,640.374999999069,"la","fa",0,9,"^3_^4_^5 _^6_v5_v4_v3_v2_v1",2
"971",48542,574.62999999919,"sol","5 ",0,9,"^3_^4_^5 _^6_v5_v4_v3_v2_v1",3
"972",48542,550.634999999544,"fa","la",0,9,"^3_^4_^5 _^6_v5_v4_v3_v2_v1",4
"973",48542,566.64500000258,"me","sol",0,9,"^3_^4_^5 _^6_v5_v4_v3_v2_v1",5
"974",48542,1238.08500000089,"re","fa",0,9,"^3_^4_^5 _^6_v5_v4_v3_v2_v1",6
"975",48542,2126.52499999967,"do","mi",0,9,"^3_^4_^5 _^6_v5_v4_v3_v2_v1",7
"976",48542,680.66999999783,"re","re",1,9,"^3_^4_^5 _^6_v5_v4_v3_v2_v1",8
"977",48542,2568.41999999946,"mi","do",0,9,"^3_^4_^5 _^6_v5_v4_v3_v2_v1",9
"978",48542,4622.26999999979,"sol","sol",1,9,"^5_^6_v5_v4_v3_v2_v1_^2_^3",1
"979",48542,1236.72499999893,"la","la",1,9,"^5_^6_v5_v4_v3_v2_v1_^2_^3",2
"980",48542,526.14000000176,"sol","sol",1,9,"^5_^6_v5_v4_v3_v2_v1_^2_^3",3
"981",48542,802.664999999339,"fa","fa",1,9,"^5_^6_v5_v4_v3_v2_v1_^2_^3",4
"982",48542,1036.91999999876,"me","mi",0,9,"^5_^6_v5_v4_v3_v2_v1_^2_^3",5
"983",48542,810.684999996563,"re","re",1,9,"^5_^6_v5_v4_v3_v2_v1_^2_^3",6
"984",48542,928.249999997206,"do","do",1,9,"^5_^6_v5_v4_v3_v2_v1_^2_^3",7
"985",48542,576.50500000082,"re","re",1,9,"^5_^6_v5_v4_v3_v2_v1_^2_^3",8
"986",48542,534.945000003092,"me","mi",0,9,"^5_^6_v5_v4_v3_v2_v1_^2_^3",9
"987",48542,8434.2099999995,"la","ti",0,9,"v7_v6_v5_^6_v5_v4_^5_^6_v5",1
"988",48542,663.9599999981,"sol","la",0,9,"v7_v6_v5_^6_v5_v4_^5_^6_v5",2
"989",48542,519.175000001211,"fi","sol",0,9,"v7_v6_v5_^6_v5_v4_^5_^6_v5",3
"990",48542,451.855000003008,"fa","la",0,9,"v7_v6_v5_^6_v5_v4_^5_^6_v5",4
"991",48542,478.405000001658,"mi","sol",0,9,"v7_v6_v5_^6_v5_v4_^5_^6_v5",5
"992",48542,433.235000000568,"fa","fa",1,9,"v7_v6_v5_^6_v5_v4_^5_^6_v5",6
"993",48542,534.210000001593,"sol","sol",1,9,"v7_v6_v5_^6_v5_v4_^5_^6_v5",7
"994",48542,519.355000000447,"le","la",0,9,"v7_v6_v5_^6_v5_v4_^5_^6_v5",8
"995",48542,1961.85499999789,"ti","sol",0,9,"v7_v6_v5_^6_v5_v4_^5_^6_v5",9
"996",49229,8404.06999992952,"do","mi",0,2,"^3_v4+",1
"997",49229,764.740000009537,"re","fi",0,2,"^3_v4+",2
"998",49229,10674.5100000389,"do","ti",0,2,"v7_v3",1
"999",49229,682.784999955446,"la","mi",0,2,"v7_v3",2
"1000",49229,11332.625000041,"le","re",0,2,"^2_v7-",1
"1001",49229,584.285000104457,"fa","te",0,2,"^2_v7-",2
"1002",49229,1685.44499994814,"sol","sol",1,2,"v5_v1+",1
"1003",49229,666.530000045896,"ra","ra",1,2,"v5_v1+",2
"1004",49229,5998.84999985993,"re","re",1,2,"v2_v1",1
"1005",49229,634.675000097603,"do","do",1,2,"v2_v1",2
"1006",49229,3298.53499983251,"fa","mi",0,2,"v3_v2",1
"1007",49229,592.659999847412,"me","re",0,2,"v3_v2",2
"1008",49229,7293.49500010908,"mi","mi",1,2,"3_^6",1
"1009",49229,2539.20500003919,"la","la",1,2,"3_^6",2
"1010",49229,9845.76000016928,"fa","sol",0,2,"^5_^1+",1
"1011",49229,810.419999994338,"ti","ra",0,2,"^5_^1+",2
"1012",49229,17602.8650000207,"le","fa",0,2,"v4_v3",1
"1013",49229,368.209999985993,"sol","mi",0,2,"v4_v3",2
"1014",49229,3297.65000008047,"do","do",1,2,"^1_^2+",1
"1015",49229,624.145000007004,"me","me",1,2,"^1_^2+",2
"1016",49229,2292.61999996379,"mi","mi",1,3,"v3_v2_v1",1
"1017",49229,643.344999991357,"re","re",1,3,"v3_v2_v1",2
"1018",49229,617.85499984771,"do","do",1,3,"v3_v2_v1",3
"1019",49229,5638.07000010088,"do","do",1,3,"1_v1+_^2",1
"1020",49229,427.849999863654,"ra","ra",1,3,"1_v1+_^2",2
"1021",49229,353.069999955595,"re","re",1,3,"1_v1+_^2",3
"1022",49229,15253.9949999228,"do","do",1,3,"v1_v7-_7-",1
"1023",49229,1334.22999992222,"te","te",1,3,"v1_v7-_7-",2
"1024",49229,320.62999997288,"te","te",1,3,"v1_v7-_7-",3
"1025",49229,11769.5649999678,"la","la",1,3,"6_^1_v5",1
"1026",49229,2936.15500000119,"do","do",1,3,"6_^1_v5",2
"1027",49229,1168.54999982566,"fa","sol",0,3,"6_^1_v5",3
"1028",49229,3856.26500006765,"la","do",0,3,"v1_v7-_^7",1
"1029",49229,756.459999829531,"sol","te",0,3,"v1_v7-_^7",2
"1030",49229,328.495000023395,"le","ti",0,3,"v1_v7-_^7",3
"1031",49229,4373.91000008211,"fa","fa",1,3,"v4_v3_v2",1
"1032",49229,640.069999963045,"mi","mi",1,3,"v4_v3_v2",2
"1033",49229,592.779999833554,"re","re",1,3,"v4_v3_v2",3
"1034",49229,11272.9649997801,"re","re",1,3,"v2_v5_^3",1
"1035",49229,848.310000028461,"la","sol",0,3,"v2_v5_^3",2
"1036",49229,584.539999954402,"sol","mi",0,3,"v2_v5_^3",3
"1037",49229,3564.89500007406,"sol","sol",1,3,"v5_v4_v3",1
"1038",49229,591.030000008643,"fa","fa",1,3,"v5_v4_v3",2
"1039",49229,402.954999823123,"mi","mi",1,3,"v5_v4_v3",3
"1040",49229,3232.31500014663,"do","do",1,3,"^1_v6_v5+",1
"1041",49229,2374.74999995902,"la","la",1,3,"^1_v6_v5+",2
"1042",49229,468.75,"le","le",1,3,"^1_v6_v5+",3
"1043",49229,13897.9599999748,"la","la",1,5,"^6_v4_v3_^4_^5",1
"1044",49229,608.424999982119,"sol","fa",0,5,"^6_v4_v3_^4_^5",2
"1045",49229,526.25999995321,"fa","mi",0,5,"^6_v4_v3_^4_^5",3
"1046",49229,526.885000057518,"sol","fa",0,5,"^6_v4_v3_^4_^5",4
"1047",49229,461.115000072867,"le","sol",0,5,"^6_v4_v3_^4_^5",5
"1048",49229,2858.30500000343,"la","la",1,5,"^6_v5_v4_v3_v2",1
"1049",49229,616.734999932349,"sol","sol",1,5,"^6_v5_v4_v3_v2",2
"1050",49229,724.380000028759,"fa","fa",1,5,"^6_v5_v4_v3_v2",3
"1051",49229,526.899999938905,"mi","mi",1,5,"^6_v5_v4_v3_v2",4
"1052",49229,526.839999943972,"re","re",1,5,"^6_v5_v4_v3_v2",5
"1053",49229,8820.42000000179,"re","re",1,5,"v2_2_^3_^4_v2",1
"1054",49229,654.390000037849,"re","re",1,5,"v2_2_^3_^4_v2",2
"1055",49229,806.819999821484,"mi","mi",1,5,"v2_2_^3_^4_v2",3
"1056",49229,600.48999986425,"fa","fa",1,5,"v2_2_^3_^4_v2",4
"1057",49229,806.99500022456,"re","re",1,5,"v2_2_^3_^4_v2",5
"1058",49229,9450.71000000089,"sol","sol",1,5,"v5_^6+_^7_^1_5",1
"1059",49229,1119.94499992579,"la","te",0,5,"v5_^6+_^7_^1_5",2
"1060",49229,642.579999987036,"ti","ti",1,5,"v5_^6+_^7_^1_5",3
"1061",49229,452.605000000447,"do","do",1,5,"v5_^6+_^7_^1_5",4
"1062",49229,861.250000074506,"sol","sol",1,5,"v5_^6+_^7_^1_5",5
"1063",49229,7103.03999995813,"sol","sol",1,5,"^5_^6_v5_v4_v3",1
"1064",49229,708.18499987945,"la","la",1,5,"^5_^6_v5_v4_v3",2
"1065",49229,587.049999974668,"sol","sol",1,5,"^5_^6_v5_v4_v3",3
"1066",49229,556.504999987781,"fa","fa",1,5,"^5_^6_v5_v4_v3",4
"1067",49229,386.790000133216,"mi","mi",1,5,"^5_^6_v5_v4_v3",5
"1068",49229,14096.8750000484,"le","fi",0,5,"v5-_v3_3_^4+_v3",1
"1069",49229,790.530000116676,"fa","mi",0,5,"v5-_v3_3_^4+_v3",2
"1070",49229,732.519999843091,"fa","mi",0,5,"v5-_v3_3_^4+_v3",3
"1071",49229,1421.27000005171,"fa","fi",0,5,"v5-_v3_3_^4+_v3",4
"1072",49229,598.974999971688,"le","mi",0,5,"v5-_v3_3_^4+_v3",5
"1073",49229,889.339999996126,"sol","sol",1,5,"v5_v4_v3_v2_v1",1
"1074",49229,674.219999931753,"fa","fa",1,5,"v5_v4_v3_v2_v1",2
"1075",49229,521.459999956191,"mi","mi",1,5,"v5_v4_v3_v2_v1",3
"1076",49229,532.099999953061,"re","re",1,5,"v5_v4_v3_v2_v1",4
"1077",49229,544.830000028014,"do","do",1,5,"v5_v4_v3_v2_v1",5
"1078",49229,868.545000210404,"sol","sol",1,5,"v5_v4_v3_v2_v1 ",1
"1079",49229,593.899999976158,"fa","fa",1,5,"v5_v4_v3_v2_v1 ",2
"1080",49229,501.404999986291,"mi","mi",1,5,"v5_v4_v3_v2_v1 ",3
"1081",49229,584.88500001654,"re","re",1,5,"v5_v4_v3_v2_v1 ",4
"1082",49229,492.455000057817,"do","1 ",0,5,"v5_v4_v3_v2_v1 ",5
"1083",49229,7514.53500008211,"do","do",1,7,"1_^3_v1_^5_v3_v2_^3",1
"1084",49229,608.569999925792,"re","mi",0,7,"1_^3_v1_^5_v3_v2_^3",2
"1085",49229,824.550000019372,"do","do",1,7,"1_^3_v1_^5_v3_v2_^3",3
"1086",49229,2490.88499997556,"fa","sol",0,7,"1_^3_v1_^5_v3_v2_^3",4
"1087",49229,433.720000088215,"mi","mi",1,7,"1_^3_v1_^5_v3_v2_^3",5
"1088",49229,3669.15500000864,"re","re",1,7,"1_^3_v1_^5_v3_v2_^3",6
"1089",49229,555.11000007391,"mi","mi",1,7,"1_^3_v1_^5_v3_v2_^3",7
"1090",49229,9824.3599999696,"ti","la",0,7,"^6_v5+_v4_^5+_v3_v1_v7-",1
"1091",49229,1878.85500001907,"te","le",0,7,"^6_v5+_v4_^5+_v3_v1_v7-",2
"1092",49229,830.894999906421,"mi","fa",0,7,"^6_v5+_v4_^5+_v3_v1_v7-",3
"1093",49229,1103.75000001118,"te","le",0,7,"^6_v5+_v4_^5+_v3_v1_v7-",4
"1094",49229,5213.23499991372,"la","mi",0,7,"^6_v5+_v4_^5+_v3_v1_v7-",5
"1095",49229,500.635000176728,"le","do",0,7,"^6_v5+_v4_^5+_v3_v1_v7-",6
"1096",49229,600.289999973029,"mi","te",0,7,"^6_v5+_v4_^5+_v3_v1_v7-",7
"1097",49229,1552.14999988675,"do","do",1,7,"^1_v7_v6_v5_v4_v3_v2",1
"1098",49229,512.124999895692,"ti","ti",1,7,"^1_v7_v6_v5_v4_v3_v2",2
"1099",49229,716.914999995381,"la","la",1,7,"^1_v7_v6_v5_v4_v3_v2",3
"1100",49229,654.289999976754,"sol","sol",1,7,"^1_v7_v6_v5_v4_v3_v2",4
"1101",49229,627.454999834299,"fa","fa",1,7,"^1_v7_v6_v5_v4_v3_v2",5
"1102",49229,774.084999926388,"mi","mi",1,7,"^1_v7_v6_v5_v4_v3_v2",6
"1103",49229,724.854999918491,"re","re",1,7,"^1_v7_v6_v5_v4_v3_v2",7
"1104",49229,2718.52499991655,"do","fa",0,7,"^4_^5_^6_v5_v4_v3_v2",1
"1105",49229,708.159999921918,"re","sol",0,7,"^4_^5_^6_v5_v4_v3_v2",2
"1106",49229,573.730000063777,"mi","la",0,7,"^4_^5_^6_v5_v4_v3_v2",3
"1107",49229,592.890000201762,"re","sol",0,7,"^4_^5_^6_v5_v4_v3_v2",4
"1108",49229,539.074999976903,"do","fa",0,7,"^4_^5_^6_v5_v4_v3_v2",5
"1109",49229,825.209999922663,"ti","mi",0,7,"^4_^5_^6_v5_v4_v3_v2",6
"1110",49229,732.735000085086,"la","re",0,7,"^4_^5_^6_v5_v4_v3_v2",7
"1111",49229,11293.6450000852,"do","fa",0,7,"^4_v6-_v5-_^6-_^4_v2-_2-",1
"1112",49229,782.664999831468,"fi","le",0,7,"^4_v6-_v5-_^6-_^4_v2-_2-",2
"1113",49229,700.355000097305,"sol","fi",0,7,"^4_v6-_v5-_^6-_^4_v2-_2-",3
"1114",49229,561.474999878556,"fa","le",0,7,"^4_v6-_v5-_^6-_^4_v2-_2-",4
"1115",49229,746.460000053048,"do","fa",0,7,"^4_v6-_v5-_^6-_^4_v2-_2-",5
"1116",49229,650.815000060946,"sol","ra",0,7,"^4_v6-_v5-_^6-_^4_v2-_2-",6
"1117",49229,410.395000129938,"sol","ra",0,7,"^4_v6-_v5-_^6-_^4_v2-_2-",7
"1118",49229,1116.23000004515,"do","do",1,7,"v1_^2_v1_v7_^1_^3_v2",1
"1119",49229,698.859999887645,"re","re",1,7,"v1_^2_v1_v7_^1_^3_v2",2
"1120",49229,635.049999922514,"do","do",1,7,"v1_^2_v1_v7_^1_^3_v2",3
"1121",49229,1062.92499997467,"ti","ti",1,7,"v1_^2_v1_v7_^1_^3_v2",4
"1122",49229,732.279999881983,"do","do",1,7,"v1_^2_v1_v7_^1_^3_v2",5
"1123",49229,3769.00499989092,"mi","mi",1,7,"v1_^2_v1_v7_^1_^3_v2",6
"1124",49229,559.449999827892,"re","re",1,7,"v1_^2_v1_v7_^1_^3_v2",7
"1125",49229,1971.30000009388,"sol","sol",1,7,"^5_^6_v5_v4_v3_v2_v1",1
"1126",49229,676.394999958575,"la","la",1,7,"^5_^6_v5_v4_v3_v2_v1",2
"1127",49229,764.179999940097,"sol","sol",1,7,"^5_^6_v5_v4_v3_v2_v1",3
"1128",49229,799.205000050366,"fa","fa",1,7,"^5_^6_v5_v4_v3_v2_v1",4
"1129",49229,1480.73499999195,"mi","mi",1,7,"^5_^6_v5_v4_v3_v2_v1",5
"1130",49229,667.094999924302,"re","re",1,7,"^5_^6_v5_v4_v3_v2_v1",6
"1131",49229,526.735000077635,"do","do",1,7,"^5_^6_v5_v4_v3_v2_v1",7
"1132",49229,2122.88499996066,"sol","sol",1,9,"^5_^6_v5_v4_v3_v2_v1_^2_^3",1
"1133",49229,596.989999987185,"la","la",1,9,"^5_^6_v5_v4_v3_v2_v1_^2_^3",2
"1134",49229,576.154999900609,"sol","sol",1,9,"^5_^6_v5_v4_v3_v2_v1_^2_^3",3
"1135",49229,675.130000103265,"fa","fa",1,9,"^5_^6_v5_v4_v3_v2_v1_^2_^3",4
"1136",49229,566.670000091195,"mi","mi",1,9,"^5_^6_v5_v4_v3_v2_v1_^2_^3",5
"1137",49229,751.105000033975,"re","re",1,9,"^5_^6_v5_v4_v3_v2_v1_^2_^3",6
"1138",49229,946.675000015646,"do","do",1,9,"^5_^6_v5_v4_v3_v2_v1_^2_^3",7
"1139",49229,592.569999858737,"re","re",1,9,"^5_^6_v5_v4_v3_v2_v1_^2_^3",8
"1140",49229,667.249999940395,"mi","mi",1,9,"^5_^6_v5_v4_v3_v2_v1_^2_^3",9
"1141",49229,10157.2150001302,"fa","mi",0,9,"^3_^4_v2_v7_^1_^2_^3_3_^4",1
"1142",49229,1780.1000000909,"le","fa",0,9,"^3_^4_v2_v7_^1_^2_^3_3_^4",2
"1143",49229,841.639999996871,"fa","re",0,9,"^3_^4_v2_v7_^1_^2_^3_3_^4",3
"1144",49229,1103.23000001162,"mi","ti",0,9,"^3_^4_v2_v7_^1_^2_^3_3_^4",4
"1145",49229,3077.04499992356,"re","do",0,9,"^3_^4_v2_v7_^1_^2_^3_3_^4",5
"1146",49229,962.390000000596,"do","re",0,9,"^3_^4_v2_v7_^1_^2_^3_3_^4",6
"1147",49229,2613.11500007659,"re","mi",0,9,"^3_^4_v2_v7_^1_^2_^3_3_^4",7
"1148",49229,1342.59500005096,"mi","mi",1,9,"^3_^4_v2_v7_^1_^2_^3_3_^4",8
"1149",49229,141.084999777377,"mi","fa",0,9,"^3_^4_v2_v7_^1_^2_^3_3_^4",9
"1150",49229,4515.52000013366,"do","re",0,9,"^2_^4_v3_v2_v1_v3_v2+_^3_^5+",1
"1151",49229,912.884999997914,"me","fa",0,9,"^2_^4_v3_v2_v1_v3_v2+_^3_^5+",2
"1152",49229,2218.83000013977,"re","mi",0,9,"^2_^4_v3_v2_v1_v3_v2+_^3_^5+",3
"1153",49229,1368.6400000006,"do","re",0,9,"^2_^4_v3_v2_v1_v3_v2+_^3_^5+",4
"1154",49229,1912.71499986947,"me","do",0,9,"^2_^4_v3_v2_v1_v3_v2+_^3_^5+",5
"1155",49229,1960.50500008464,"fa","mi",0,9,"^2_^4_v3_v2_v1_v3_v2+_^3_^5+",6
"1156",49229,2103.36999990791,"le","me",0,9,"^2_^4_v3_v2_v1_v3_v2+_^3_^5+",7
"1157",49229,4156.80500003695,"sol","mi",0,9,"^2_^4_v3_v2_v1_v3_v2+_^3_^5+",8
"1158",49229,953.979999992996,"me","le",0,9,"^2_^4_v3_v2_v1_v3_v2+_^3_^5+",9
"1159",49229,9213.9449999705,"re","mi",0,9,"^3_^4_^5 _^6_v5_v4_v3_v2_v1",1
"1160",49229,758.399999931455,"mi","fa",0,9,"^3_^4_^5 _^6_v5_v4_v3_v2_v1",2
"1161",49229,1566.46999996156,"fa","5 ",0,9,"^3_^4_^5 _^6_v5_v4_v3_v2_v1",3
"1162",49229,524.455000180751,"mi","la",0,9,"^3_^4_^5 _^6_v5_v4_v3_v2_v1",4
"1163",49229,716.960000108927,"re","sol",0,9,"^3_^4_^5 _^6_v5_v4_v3_v2_v1",5
"1164",49229,1154.79499986768,"do","fa",0,9,"^3_^4_^5 _^6_v5_v4_v3_v2_v1",6
"1165",49229,2208.93500000238,"ti","mi",0,9,"^3_^4_^5 _^6_v5_v4_v3_v2_v1",7
"1166",49229,1376.4450000599,"do","re",0,9,"^3_^4_^5 _^6_v5_v4_v3_v2_v1",8
"1167",49229,584.435000084341,"re","do",0,9,"^3_^4_^5 _^6_v5_v4_v3_v2_v1",9
"1168",49229,3558.7349999696,"re","re",1,9,"^2_^3_^4_^5_^6_v5_v4_v3_v2",1
"1169",49229,772.880000062287,"mi","mi",1,9,"^2_^3_^4_^5_^6_v5_v4_v3_v2",2
"1170",49229,642.824999988079,"fa","fa",1,9,"^2_^3_^4_^5_^6_v5_v4_v3_v2",3
"1171",49229,832.895000003278,"sol","sol",1,9,"^2_^3_^4_^5_^6_v5_v4_v3_v2",4
"1172",49229,767.125000014901,"la","la",1,9,"^2_^3_^4_^5_^6_v5_v4_v3_v2",5
"1173",49229,598.759999968112,"sol","sol",1,9,"^2_^3_^4_^5_^6_v5_v4_v3_v2",6
"1174",49229,758.77499999851,"fa","fa",1,9,"^2_^3_^4_^5_^6_v5_v4_v3_v2",7
"1175",49229,600.859999891371,"mi","mi",1,9,"^2_^3_^4_^5_^6_v5_v4_v3_v2",8
"1176",49229,684.585000157356,"re","re",1,9,"^2_^3_^4_^5_^6_v5_v4_v3_v2",9
"1177",49229,1797.31500009075,"ti","ti",1,9,"v7_v6_v5_^6_v5_v4_^5_^6_v5",1
"1178",49229,839.110000059009,"la","la",1,9,"v7_v6_v5_^6_v5_v4_^5_^6_v5",2
"1179",49229,914.37999997288,"sol","sol",1,9,"v7_v6_v5_^6_v5_v4_^5_^6_v5",3
"1180",49229,840.940000023693,"la","la",1,9,"v7_v6_v5_^6_v5_v4_^5_^6_v5",4
"1181",49229,774.940000146627,"sol","sol",1,9,"v7_v6_v5_^6_v5_v4_^5_^6_v5",5
"1182",49229,1572.60000007227,"fa","fa",1,9,"v7_v6_v5_^6_v5_v4_^5_^6_v5",6
"1183",49229,6459.9349999316,"sol","sol",1,9,"v7_v6_v5_^6_v5_v4_^5_^6_v5",7
"1184",49229,1193.72000009939,"mi","la",0,9,"v7_v6_v5_^6_v5_v4_^5_^6_v5",8
"1185",49229,318.770000014454,"fa","sol",0,9,"v7_v6_v5_^6_v5_v4_^5_^6_v5",9
"1186",49229,5039.17999984324,"fa","sol",0,9,"v5_v4_v6+_^7_^3+_v3_v2_v5_^4",1
"1187",49229,690.674999963492,"mi","fa",0,9,"v5_v4_v6+_^7_^3+_v3_v2_v5_^4",2
"1188",49229,1764.31000000238,"ra","te",0,9,"v5_v4_v6+_^7_^3+_v3_v2_v5_^4",3
"1189",49229,3299.1750000529,"ti","ti",1,9,"v5_v4_v6+_^7_^3+_v3_v2_v5_^4",4
"1190",49229,980.045000091195,"do","3+",0,9,"v5_v4_v6+_^7_^3+_v3_v2_v5_^4",5
"1191",49229,2834.75999999791,"ra","mi",0,9,"v5_v4_v6+_^7_^3+_v3_v2_v5_^4",6
"1192",49229,6756.56000012904,"sol","re",0,9,"v5_v4_v6+_^7_^3+_v3_v2_v5_^4",7
"1193",49229,460.195000052452,"fa","sol",0,9,"v5_v4_v6+_^7_^3+_v3_v2_v5_^4",8
"1194",49229,268.815000075847,"mi","fa",0,9,"v5_v4_v6+_^7_^3+_v3_v2_v5_^4",9
"1195",4983,6001.21499993838,"mi","mi",1,2,"^3_v4+",1
"1196",4983,3012.94000004418,"fi","fi",1,2,"^3_v4+",2
"1197",4983,1512.40999996662,"mi","mi",1,2,"v3_v2",1
"1198",4983,1283.84499996901,"re","re",1,2,"v3_v2",2
"1199",4983,2200.46500000171,"sol","sol",1,2,"^5_^1+",1
"1200",4983,10894.464999903,"ra","ra",1,2,"^5_^1+",2
"1201",4983,3744.5000000298,"mi","mi",1,2,"3_^6",1
"1202",4983,5444.17000003159,"la","la",1,2,"3_^6",2
"1203",4983,851.869999896735,"re","re",1,2,"v2_v1",1
"1204",4983,799.700000090525,"do","do",1,2,"v2_v1",2
"1205",4983,1702.69000018016,"ti","ti",1,2,"v7_v3",1
"1206",4983,2584.21000000089,"mi","mi",1,2,"v7_v3",2
"1207",4983,1294.23499992117,"sol","sol",1,2,"v5_v1+",1
"1208",4983,3494.16999984533,"ra","ra",1,2,"v5_v1+",2
"1209",4983,2380.29000000097,"re","re",1,2,"^2_v7-",1
"1210",4983,3008.26000003144,"te","te",1,2,"^2_v7-",2
"1211",4983,2345.84999992512,"fa","fa",1,2,"v4_v3",1
"1212",4983,1464.3399999477,"mi","mi",1,2,"v4_v3",2
"1213",4983,2807.0500001777,"do","do",1,2,"^1_^2+",1
"1214",4983,1324.63000016287,"me","me",1,2,"^1_^2+",2
"1215",4983,1746.85500003397,"do","do",1,3,"^1_v6_v5+",1
"1216",4983,2999.0149999503,"la","la",1,3,"^1_v6_v5+",2
"1217",4983,1945.39500004612,"le","le",1,3,"^1_v6_v5+",3
"1218",4983,1322.84499984235,"do","do",1,3,"v1_v7-_^7",1
"1219",4983,1552.33499989845,"te","te",1,3,"v1_v7-_^7",2
"1220",4983,927.389999851584,"ti","ti",1,3,"v1_v7-_^7",3
"1221",4983,1450.95500000753,"do","do",1,3,"1_v1+_^2",1
"1222",4983,1940.78999990597,"ra","ra",1,3,"1_v1+_^2",2
"1223",4983,778.170000063255,"re","re",1,3,"1_v1+_^2",3
"1224",4983,2221.39000007883,"re","re",1,3,"v2_v5_^3",1
"1225",4983,5200.47000003979,"sol","sol",1,3,"v2_v5_^3",2
"1226",4983,1353.45999989659,"mi","mi",1,3,"v2_v5_^3",3
"1227",4983,2007.39499996416,"la","la",1,3,"6_^1_v5",1
"1228",4983,1710.94999997877,"do","do",1,3,"6_^1_v5",2
"1229",4983,1641.83999993838,"sol","sol",1,3,"6_^1_v5",3
"1230",4983,854.659999953583,"do","do",1,3,"v1_v7-_7-",1
"1231",4983,2019.73499986343,"te","te",1,3,"v1_v7-_7-",2
"1232",4983,554.850000189617,"te","te",1,3,"v1_v7-_7-",3
"1233",4983,892.025000182912,"sol","sol",1,3,"v5_v4_v3",1
"1234",4983,713.890000013635,"fa","fa",1,3,"v5_v4_v3",2
"1235",4983,1246.76499981433,"mi","mi",1,3,"v5_v4_v3",3
"1236",4983,983.699999982491,"fa","fa",1,3,"v4_v3_v2",1
"1237",4983,892.810000106692,"mi","mi",1,3,"v4_v3_v2",2
"1238",4983,1433.94499993883,"re","re",1,3,"v4_v3_v2",3
"1239",4983,1237.03499999829,"mi","mi",1,3,"v3_v2_v1",1
"1240",4983,666.620000032708,"re","re",1,3,"v3_v2_v1",2
"1241",4983,611.670000012964,"do","do",1,3,"v3_v2_v1",3
"1242",4983,3599.72000005655,"la","la",1,5,"^6_v5_v4_v3_v2",1
"1243",4983,751.619999995455,"sol","sol",1,5,"^6_v5_v4_v3_v2",2
"1244",4983,918.580000055954,"fa","fa",1,5,"^6_v5_v4_v3_v2",3
"1245",4983,2090.07999999449,"mi","mi",1,5,"^6_v5_v4_v3_v2",4
"1246",4983,895.944999996573,"re","re",1,5,"^6_v5_v4_v3_v2",5
"1247",4983,986.574999988079,"sol","sol",1,5,"v5_v4_v3_v2_v1 ",1
"1248",4983,681.379999965429,"fa","fa",1,5,"v5_v4_v3_v2_v1 ",2
"1249",4983,838.425000198185,"mi","mi",1,5,"v5_v4_v3_v2_v1 ",3
"1250",4983,599.495000205934,"re","re",1,5,"v5_v4_v3_v2_v1 ",4
"1251",4983,540.395000018179,"do","1 ",0,5,"v5_v4_v3_v2_v1 ",5
"1252",4983,3090.0950001087,"re","re",1,5,"v2_2_^3_^4_v2",1
"1253",4983,1052.65500000678,"re","re",1,5,"v2_2_^3_^4_v2",2
"1254",4983,900.245000142604,"mi","mi",1,5,"v2_2_^3_^4_v2",3
"1255",4983,603.880000067875,"fa","fa",1,5,"v2_2_^3_^4_v2",4
"1256",4983,698.199999984354,"re","re",1,5,"v2_2_^3_^4_v2",5
"1257",4983,1209.44000012241,"fi","fi",1,5,"v5-_v3_3_^4+_v3",1
"1258",4983,1228.17500005476,"mi","mi",1,5,"v5-_v3_3_^4+_v3",2
"1259",4983,632.354999892414,"mi","mi",1,5,"v5-_v3_3_^4+_v3",3
"1260",4983,870.19499996677,"fi","fi",1,5,"v5-_v3_3_^4+_v3",4
"1261",4983,720.059999963269,"mi","mi",1,5,"v5-_v3_3_^4+_v3",5
"1262",4983,834.375000093132,"sol","sol",1,5,"v5_^6+_^7_^1_5",1
"1263",4983,760.750000132248,"la","te",0,5,"v5_^6+_^7_^1_5",2
"1264",4983,789.564999984577,"ti","ti",1,5,"v5_^6+_^7_^1_5",3
"1265",4983,596.129999961704,"do","do",1,5,"v5_^6+_^7_^1_5",4
"1266",4983,682.280000066385,"sol","sol",1,5,"v5_^6+_^7_^1_5",5
"1267",4983,1135.25500008836,"la","la",1,5,"^6_v4_v3_^4_^5",1
"1268",4983,1145.86999989115,"fa","fa",1,5,"^6_v4_v3_^4_^5",2
"1269",4983,679.735000012442,"mi","mi",1,5,"^6_v4_v3_^4_^5",3
"1270",4983,524.379999842495,"fa","fa",1,5,"^6_v4_v3_^4_^5",4
"1271",4983,1536.08999983408,"sol","sol",1,5,"^6_v4_v3_^4_^5",5
"1272",4983,1321.04000006802,"sol","sol",1,5,"v5_v4_v3_v2_v1",1
"1273",4983,642.04499986954,"fa","fa",1,5,"v5_v4_v3_v2_v1",2
"1274",4983,1102.32000006363,"mi","mi",1,5,"v5_v4_v3_v2_v1",3
"1275",4983,636.189999990165,"re","re",1,5,"v5_v4_v3_v2_v1",4
"1276",4983,615.969999926165,"do","do",1,5,"v5_v4_v3_v2_v1",5
"1277",4983,1217.98000019044,"sol","sol",1,5,"^5_^6_v5_v4_v3",1
"1278",4983,810.270000016317,"la","la",1,5,"^5_^6_v5_v4_v3",2
"1279",4983,639.960000058636,"sol","sol",1,5,"^5_^6_v5_v4_v3",3
"1280",4983,620.525000151247,"fa","fa",1,5,"^5_^6_v5_v4_v3",4
"1281",4983,534.389999927953,"mi","mi",1,5,"^5_^6_v5_v4_v3",5
"1282",4983,1494.01500006206,"do","do",1,7,"^1_v7_v6_v5_v4_v3_v2",1
"1283",4983,950.294999871403,"ti","ti",1,7,"^1_v7_v6_v5_v4_v3_v2",2
"1284",4983,698.205000022426,"la","la",1,7,"^1_v7_v6_v5_v4_v3_v2",3
"1285",4983,980.020000133663,"sol","sol",1,7,"^1_v7_v6_v5_v4_v3_v2",4
"1286",4983,668.394999811426,"fa","fa",1,7,"^1_v7_v6_v5_v4_v3_v2",5
"1287",4983,523.985000094399,"mi","mi",1,7,"^1_v7_v6_v5_v4_v3_v2",6
"1288",4983,782.314999960363,"re","re",1,7,"^1_v7_v6_v5_v4_v3_v2",7
"1289",4983,1014.1050000675,"do","do",1,7,"1_^3_v1_^5_v3_v2_^3",1
"1290",4983,1238.29500004649,"mi","mi",1,7,"1_^3_v1_^5_v3_v2_^3",2
"1291",4983,822.970000095665,"do","do",1,7,"1_^3_v1_^5_v3_v2_^3",3
"1292",4983,1170.62500002794,"sol","sol",1,7,"1_^3_v1_^5_v3_v2_^3",4
"1293",4983,1527.50999992713,"mi","mi",1,7,"1_^3_v1_^5_v3_v2_^3",5
"1294",4983,625.844999914989,"re","re",1,7,"1_^3_v1_^5_v3_v2_^3",6
"1295",4983,538.36499992758,"mi","mi",1,7,"1_^3_v1_^5_v3_v2_^3",7
"1296",4983,5485.32500001602,"fa","fa",1,7,"^4_v6-_v5-_^6-_^4_v2-_2-",1
"1297",4983,5776.1200000532,"le","le",1,7,"^4_v6-_v5-_^6-_^4_v2-_2-",2
"1298",4983,1378.53000010364,"fi","fi",1,7,"^4_v6-_v5-_^6-_^4_v2-_2-",3
"1299",4983,1163.84499985725,"le","le",1,7,"^4_v6-_v5-_^6-_^4_v2-_2-",4
"1300",4983,1462.22500014119,"fa","fa",1,7,"^4_v6-_v5-_^6-_^4_v2-_2-",5
"1301",4983,12604.9450000282,"ra","ra",1,7,"^4_v6-_v5-_^6-_^4_v2-_2-",6
"1302",4983,507.609999971464,"ra","ra",1,7,"^4_v6-_v5-_^6-_^4_v2-_2-",7
"1303",4983,3008.8649999816,"la","la",1,7,"^6_v5+_v4_^5+_v3_v1_v7-",1
"1304",4983,4923.52499999106,"le","le",1,7,"^6_v5+_v4_^5+_v3_v1_v7-",2
"1305",4983,2203.02499993704,"fa","fa",1,7,"^6_v5+_v4_^5+_v3_v1_v7-",3
"1306",4983,2756.5150000155,"le","le",1,7,"^6_v5+_v4_^5+_v3_v1_v7-",4
"1307",4983,2272.79499988072,"mi","mi",1,7,"^6_v5+_v4_^5+_v3_v1_v7-",5
"1308",4983,610.09500012733,"do","do",1,7,"^6_v5+_v4_^5+_v3_v1_v7-",6
"1309",4983,312.734999926761,"do","te",0,7,"^6_v5+_v4_^5+_v3_v1_v7-",7
"1310",4983,1578.51500017568,"do","do",1,7,"v1_^2_v1_v7_^1_^3_v2",1
"1311",4983,879.995000082999,"re","re",1,7,"v1_^2_v1_v7_^1_^3_v2",2
"1312",4983,727.629999862984,"do","do",1,7,"v1_^2_v1_v7_^1_^3_v2",3
"1313",4983,1308.30999999307,"ti","ti",1,7,"v1_^2_v1_v7_^1_^3_v2",4
"1314",4983,1058.04000003263,"do","do",1,7,"v1_^2_v1_v7_^1_^3_v2",5
"1315",4983,1569.84000001103,"mi","mi",1,7,"v1_^2_v1_v7_^1_^3_v2",6
"1316",4983,586.519999895245,"re","re",1,7,"v1_^2_v1_v7_^1_^3_v2",7
"1317",4983,1446.55999983661,"fa","fa",1,7,"^4_^5_^6_v5_v4_v3_v2",1
"1318",4983,881.300000008196,"sol","sol",1,7,"^4_^5_^6_v5_v4_v3_v2",2
"1319",4983,790.255000116304,"la","la",1,7,"^4_^5_^6_v5_v4_v3_v2",3
"1320",4983,671.924999915063,"sol","sol",1,7,"^4_^5_^6_v5_v4_v3_v2",4
"1321",4983,674.329999834299,"fa","fa",1,7,"^4_^5_^6_v5_v4_v3_v2",5
"1322",4983,844.975000014529,"mi","mi",1,7,"^4_^5_^6_v5_v4_v3_v2",6
"1323",4983,633.879999862984,"re","re",1,7,"^4_^5_^6_v5_v4_v3_v2",7
"1324",4983,1149.86000000499,"sol","sol",1,7,"^5_^6_v5_v4_v3_v2_v1",1
"1325",4983,665.860000066459,"la","la",1,7,"^5_^6_v5_v4_v3_v2_v1",2
"1326",4983,682.814999949187,"sol","sol",1,7,"^5_^6_v5_v4_v3_v2_v1",3
"1327",4983,599.849999882281,"fa","fa",1,7,"^5_^6_v5_v4_v3_v2_v1",4
"1328",4983,632.419999921694,"mi","mi",1,7,"^5_^6_v5_v4_v3_v2_v1",5
"1329",4983,539.779999991879,"re","re",1,7,"^5_^6_v5_v4_v3_v2_v1",6
"1330",4983,484.319999814034,"do","do",1,7,"^5_^6_v5_v4_v3_v2_v1",7
"1331",4983,3409.63499993086,"sol","sol",1,9,"^5_^6_v5_v4_v3_v2_v1_^2_^3",1
"1332",4983,617.97000002116,"la","la",1,9,"^5_^6_v5_v4_v3_v2_v1_^2_^3",2
"1333",4983,572.230000048876,"sol","sol",1,9,"^5_^6_v5_v4_v3_v2_v1_^2_^3",3
"1334",4983,619.76999999024,"fa","fa",1,9,"^5_^6_v5_v4_v3_v2_v1_^2_^3",4
"1335",4983,616.604999871925,"mi","mi",1,9,"^5_^6_v5_v4_v3_v2_v1_^2_^3",5
"1336",4983,760.354999918491,"re","re",1,9,"^5_^6_v5_v4_v3_v2_v1_^2_^3",6
"1337",4983,650.464999955148,"do","do",1,9,"^5_^6_v5_v4_v3_v2_v1_^2_^3",7
"1338",4983,546.994999982417,"re","re",1,9,"^5_^6_v5_v4_v3_v2_v1_^2_^3",8
"1339",4983,508.004999952391,"mi","mi",1,9,"^5_^6_v5_v4_v3_v2_v1_^2_^3",9
"1340",4983,8895.62500012107,"ti","ti",1,9,"v7_v6_v5_^6_v5_v4_^5_^6_v5",1
"1341",4983,669.720000121742,"la","la",1,9,"v7_v6_v5_^6_v5_v4_^5_^6_v5",2
"1342",4983,962.474999949336,"sol","sol",1,9,"v7_v6_v5_^6_v5_v4_^5_^6_v5",3
"1343",4983,1626.30999996327,"fa","la",0,9,"v7_v6_v5_^6_v5_v4_^5_^6_v5",4
"1344",4983,842.794999945909,"sol","sol",1,9,"v7_v6_v5_^6_v5_v4_^5_^6_v5",5
"1345",4983,828.539999900386,"la","fa",0,9,"v7_v6_v5_^6_v5_v4_^5_^6_v5",6
"1346",4983,596.404999960214,"sol","sol",1,9,"v7_v6_v5_^6_v5_v4_^5_^6_v5",7
"1347",4983,527.830000035465,"fa","la",0,9,"v7_v6_v5_^6_v5_v4_^5_^6_v5",8
"1348",4983,523.144999984652,"sol","sol",1,9,"v7_v6_v5_^6_v5_v4_^5_^6_v5",9
"1349",4983,2530.96499992535,"re","re",1,9,"^2_^3_^4_^5_^6_v5_v4_v3_v2",1
"1350",4983,2204.48499987833,"mi","mi",1,9,"^2_^3_^4_^5_^6_v5_v4_v3_v2",2
"1351",4983,1090.39500006475,"fa","fa",1,9,"^2_^3_^4_^5_^6_v5_v4_v3_v2",3
"1352",4983,772.154999896884,"sol","sol",1,9,"^2_^3_^4_^5_^6_v5_v4_v3_v2",4
"1353",4983,706.375000067055,"la","la",1,9,"^2_^3_^4_^5_^6_v5_v4_v3_v2",5
"1354",4983,648.135000141338,"sol","sol",1,9,"^2_^3_^4_^5_^6_v5_v4_v3_v2",6
"1355",4983,656.659999862313,"fa","fa",1,9,"^2_^3_^4_^5_^6_v5_v4_v3_v2",7
"1356",4983,523.559999885038,"mi","mi",1,9,"^2_^3_^4_^5_^6_v5_v4_v3_v2",8
"1357",4983,1474.36499991454,"re","re",1,9,"^2_^3_^4_^5_^6_v5_v4_v3_v2",9
"1358",4983,1832.22500002012,"mi","mi",1,9,"^3_^4_v2_v7_^1_^2_^3_3_^4",1
"1359",4983,1525.88500012644,"fa","fa",1,9,"^3_^4_v2_v7_^1_^2_^3_3_^4",2
"1360",4983,1617.70999990404,"re","re",1,9,"^3_^4_v2_v7_^1_^2_^3_3_^4",3
"1361",4983,1108.51499997079,"ti","ti",1,9,"^3_^4_v2_v7_^1_^2_^3_3_^4",4
"1362",4983,6941.52999995276,"do","do",1,9,"^3_^4_v2_v7_^1_^2_^3_3_^4",5
"1363",4983,1241.47500004619,"re","re",1,9,"^3_^4_v2_v7_^1_^2_^3_3_^4",6
"1364",4983,928.365000057966,"mi","mi",1,9,"^3_^4_v2_v7_^1_^2_^3_3_^4",7
"1365",4983,881.909999996424,"mi","mi",1,9,"^3_^4_v2_v7_^1_^2_^3_3_^4",8
"1366",4983,592.355000087991,"fa","fa",1,9,"^3_^4_v2_v7_^1_^2_^3_3_^4",9
"1367",4983,1624.74999995902,"re","re",1,9,"^2_^4_v3_v2_v1_v3_v2+_^3_^5+",1
"1368",4983,944.750000024214,"fa","fa",1,9,"^2_^4_v3_v2_v1_v3_v2+_^3_^5+",2
"1369",4983,2020.39499999955,"mi","mi",1,9,"^2_^4_v3_v2_v1_v3_v2+_^3_^5+",3
"1370",4983,1094.8699999135,"re","re",1,9,"^2_^4_v3_v2_v1_v3_v2+_^3_^5+",4
"1371",4983,11697.5650000386,"ra","do",0,9,"^2_^4_v3_v2_v1_v3_v2+_^3_^5+",5
"1372",4983,1576.48500008509,"mi","mi",1,9,"^2_^4_v3_v2_v1_v3_v2+_^3_^5+",6
"1373",4983,475.910000037402,"me","me",1,9,"^2_^4_v3_v2_v1_v3_v2+_^3_^5+",7
"1374",4983,546.055000042543,"mi","mi",1,9,"^2_^4_v3_v2_v1_v3_v2+_^3_^5+",8
"1375",4983,2110.37499993108,"le","le",1,9,"^2_^4_v3_v2_v1_v3_v2+_^3_^5+",9
"1376",4983,3391.34999993257,"sol","sol",1,9,"v5_v4_v6+_^7_^3+_v3_v2_v5_^4",1
"1377",4983,687.845000065863,"fa","fa",1,9,"v5_v4_v6+_^7_^3+_v3_v2_v5_^4",2
"1378",4983,2528.64500018768,"la","te",0,9,"v5_v4_v6+_^7_^3+_v3_v2_v5_^4",3
"1379",4983,834.34999990277,"ti","ti",1,9,"v5_v4_v6+_^7_^3+_v3_v2_v5_^4",4
"1380",4983,1988.570000045,"mi","3+",0,9,"v5_v4_v6+_^7_^3+_v3_v2_v5_^4",5
"1381",4983,1634.2949999962,"re","mi",0,9,"v5_v4_v6+_^7_^3+_v3_v2_v5_^4",6
"1382",4983,1510.28500008397,"sol","re",0,9,"v5_v4_v6+_^7_^3+_v3_v2_v5_^4",7
"1383",4983,2588.44499988481,"la","sol",0,9,"v5_v4_v6+_^7_^3+_v3_v2_v5_^4",8
"1384",4983,2856.71500000171,"mi","fa",0,9,"v5_v4_v6+_^7_^3+_v3_v2_v5_^4",9
"1385",4983,1187.36499990337,"mi","mi",1,9,"^3_^4_^5 _^6_v5_v4_v3_v2_v1",1
"1386",4983,737.384999869391,"fa","fa",1,9,"^3_^4_^5 _^6_v5_v4_v3_v2_v1",2
"1387",4983,726.539999945089,"sol","5 ",0,9,"^3_^4_^5 _^6_v5_v4_v3_v2_v1",3
"1388",4983,1007.94999999925,"la","la",1,9,"^3_^4_^5 _^6_v5_v4_v3_v2_v1",4
"1389",4983,564.525000052527,"sol","sol",1,9,"^3_^4_^5 _^6_v5_v4_v3_v2_v1",5
"1390",4983,718.720000004396,"fa","fa",1,9,"^3_^4_^5 _^6_v5_v4_v3_v2_v1",6
"1391",4983,639.379999833182,"mi","mi",1,9,"^3_^4_^5 _^6_v5_v4_v3_v2_v1",7
"1392",4983,532.665000064299,"re","re",1,9,"^3_^4_^5 _^6_v5_v4_v3_v2_v1",8
"1393",4983,563.740000128746,"do","do",1,9,"^3_^4_^5 _^6_v5_v4_v3_v2_v1",9
"1394",50152,1809.91500000004,"mi","mi",1,2,"^3_v4+",1
"1395",50152,749.035000000033,"fi","fi",1,2,"^3_v4+",2
"1396",50152,3336.44000000006,"sol","sol",1,2,"v5_v1+",1
"1397",50152,1461.81999999995,"ra","ra",1,2,"v5_v1+",2
"1398",50152,1322.94999999995,"re","re",1,2,"v2_v1",1
"1399",50152,710.065000000177,"do","do",1,2,"v2_v1",2
"1400",50152,1399.11499999999,"ti","ti",1,2,"v7_v3",1
"1401",50152,1373.72500000021,"mi","mi",1,2,"v7_v3",2
"1402",50152,1820.69000000006,"mi","mi",1,2,"v3_v2",1
"1403",50152,630.699999999953,"re","re",1,2,"v3_v2",2
"1404",50152,4176.93499999994,"sol","sol",1,2,"^5_^1+",1
"1405",50152,2093.5,"ra","ra",1,2,"^5_^1+",2
"1406",50152,988.040000000037,"fa","fa",1,2,"v4_v3",1
"1407",50152,469.714999999967,"mi","mi",1,2,"v4_v3",2
"1408",50152,1732.98999999987,"re","re",1,2,"^2_v7-",1
"1409",50152,765.589999999967,"te","te",1,2,"^2_v7-",2
"1410",50152,1723.20499999996,"mi","mi",1,2,"3_^6",1
"1411",50152,590.964999999851,"la","la",1,2,"3_^6",2
"1412",50152,913.359999999986,"do","do",1,2,"^1_^2+",1
"1413",50152,699.47499999986,"me","me",1,2,"^1_^2+",2
"1414",50152,2270.495,"la","la",1,3,"6_^1_v5",1
"1415",50152,1605.13500000001,"do","do",1,3,"6_^1_v5",2
"1416",50152,2781.60499999998,"sol","sol",1,3,"6_^1_v5",3
"1417",50152,935.52500000014,"do","do",1,3,"v1_v7-_^7",1
"1418",50152,693.719999999972,"te","te",1,3,"v1_v7-_^7",2
"1419",50152,509.579999999958,"ti","ti",1,3,"v1_v7-_^7",3
"1420",50152,1230.89000000013,"fa","fa",1,3,"v4_v3_v2",1
"1421",50152,502.084999999846,"mi","mi",1,3,"v4_v3_v2",2
"1422",50152,525.275000000023,"re","re",1,3,"v4_v3_v2",3
"1423",50152,1243.03000000003,"sol","sol",1,3,"v5_v4_v3",1
"1424",50152,533.845000000205,"fa","fa",1,3,"v5_v4_v3",2
"1425",50152,445.870000000112,"mi","mi",1,3,"v5_v4_v3",3
"1426",50152,2080.94499999995,"re","re",1,3,"v2_v5_^3",1
"1427",50152,693.969999999972,"sol","sol",1,3,"v2_v5_^3",2
"1428",50152,877.864999999874,"mi","mi",1,3,"v2_v5_^3",3
"1429",50152,1336.05499999993,"do","do",1,3,"^1_v6_v5+",1
"1430",50152,749.180000000051,"la","la",1,3,"^1_v6_v5+",2
"1431",50152,557.755000000121,"le","le",1,3,"^1_v6_v5+",3
"1432",50152,657.370000000112,"do","do",1,3,"1_v1+_^2",1
"1433",50152,485.994999999995,"ra","ra",1,3,"1_v1+_^2",2
"1434",50152,454.140000000014,"re","re",1,3,"1_v1+_^2",3
"1435",50152,1450.63500000013,"do","do",1,3,"v1_v7-_7-",1
"1436",50152,470.420000000042,"te","te",1,3,"v1_v7-_7-",2
"1437",50152,390.635000000242,"te","te",1,3,"v1_v7-_7-",3
"1438",50152,1403.82000000007,"mi","mi",1,3,"v3_v2_v1",1
"1439",50152,1069.81500000006,"re","re",1,3,"v3_v2_v1",2
"1440",50152,566.630000000005,"do","do",1,3,"v3_v2_v1",3
"1441",50152,1434.71999999997,"sol","sol",1,5,"^5_^6_v5_v4_v3",1
"1442",50152,629.805000000051,"la","la",1,5,"^5_^6_v5_v4_v3",2
"1443",50152,510.015000000014,"sol","sol",1,5,"^5_^6_v5_v4_v3",3
"1444",50152,469.994999999995,"fa","fa",1,5,"^5_^6_v5_v4_v3",4
"1445",50152,749.594999999972,"mi","mi",1,5,"^5_^6_v5_v4_v3",5
"1446",50152,1074.90000000002,"la","la",1,5,"^6_v5_v4_v3_v2",1
"1447",50152,493.744999999995,"sol","sol",1,5,"^6_v5_v4_v3_v2",2
"1448",50152,550.27500000014,"fa","fa",1,5,"^6_v5_v4_v3_v2",3
"1449",50152,525.460000000079,"mi","mi",1,5,"^6_v5_v4_v3_v2",4
"1450",50152,549.915000000037,"re","re",1,5,"^6_v5_v4_v3_v2",5
"1451",50152,2205.10000000009,"fi","fi",1,5,"v5-_v3_3_^4+_v3",1
"1452",50152,582.030000000028,"mi","mi",1,5,"v5-_v3_3_^4+_v3",2
"1453",50152,2341.8550000001,"mi","mi",1,5,"v5-_v3_3_^4+_v3",3
"1454",50152,484.76500000013,"fi","fi",1,5,"v5-_v3_3_^4+_v3",4
"1455",50152,597.82500000007,"mi","mi",1,5,"v5-_v3_3_^4+_v3",5
"1456",50152,921.089999999851,"sol","sol",1,5,"v5_^6+_^7_^1_5",1
"1457",50152,517.969999999856,"la","te",0,5,"v5_^6+_^7_^1_5",2
"1458",50152,749.85000000021,"ti","ti",1,5,"v5_^6+_^7_^1_5",3
"1459",50152,525.395000000135,"do","do",1,5,"v5_^6+_^7_^1_5",4
"1460",50152,1037.87000000011,"sol","sol",1,5,"v5_^6+_^7_^1_5",5
"1461",50152,1344.41999999993,"la","la",1,5,"^6_v4_v3_^4_^5",1
"1462",50152,1013.82000000007,"fa","fa",1,5,"^6_v4_v3_^4_^5",2
"1463",50152,614.035000000033,"mi","mi",1,5,"^6_v4_v3_^4_^5",3
"1464",50152,541.82500000007,"fa","fa",1,5,"^6_v4_v3_^4_^5",4
"1465",50152,526.039999999921,"sol","sol",1,5,"^6_v4_v3_^4_^5",5
"1466",50152,1347.39500000002,"sol","sol",1,5,"v5_v4_v3_v2_v1",1
"1467",50152,454,"fa","fa",1,5,"v5_v4_v3_v2_v1",2
"1468",50152,517.579999999958,"mi","mi",1,5,"v5_v4_v3_v2_v1",3
"1469",50152,493.905000000028,"re","re",1,5,"v5_v4_v3_v2_v1",4
"1470",50152,534.139999999898,"do","do",1,5,"v5_v4_v3_v2_v1",5
"1471",50152,1144.64000000001,"sol","sol",1,5,"v5_v4_v3_v2_v1 ",1
"1472",50152,518.005000000121,"fa","fa",1,5,"v5_v4_v3_v2_v1 ",2
"1473",50152,485.744999999995,"mi","mi",1,5,"v5_v4_v3_v2_v1 ",3
"1474",50152,501.42499999993,"re","re",1,5,"v5_v4_v3_v2_v1 ",4
"1475",50152,565.564999999828,"do","1 ",0,5,"v5_v4_v3_v2_v1 ",5
"1476",50152,1448.9800000001,"re","re",1,5,"v2_2_^3_^4_v2",1
"1477",50152,470.440000000061,"re","re",1,5,"v2_2_^3_^4_v2",2
"1478",50152,613.624999999884,"mi","mi",1,5,"v2_2_^3_^4_v2",3
"1479",50152,837.79999999993,"fa","fa",1,5,"v2_2_^3_^4_v2",4
"1480",50152,645.875000000116,"re","re",1,5,"v2_2_^3_^4_v2",5
"1481",50152,1137.61500000011,"do","do",1,7,"^1_v7_v6_v5_v4_v3_v2",1
"1482",50152,549.465000000084,"ti","ti",1,7,"^1_v7_v6_v5_v4_v3_v2",2
"1483",50152,661.869999999879,"la","la",1,7,"^1_v7_v6_v5_v4_v3_v2",3
"1484",50152,605.469999999972,"sol","sol",1,7,"^1_v7_v6_v5_v4_v3_v2",4
"1485",50152,645.570000000182,"fa","fa",1,7,"^1_v7_v6_v5_v4_v3_v2",5
"1486",50152,524.284999999916,"mi","mi",1,7,"^1_v7_v6_v5_v4_v3_v2",6
"1487",50152,862.864999999991,"re","re",1,7,"^1_v7_v6_v5_v4_v3_v2",7
"1488",50152,916.905000000028,"sol","sol",1,7,"^5_^6_v5_v4_v3_v2_v1",1
"1489",50152,597.800000000047,"la","la",1,7,"^5_^6_v5_v4_v3_v2_v1",2
"1490",50152,605.469999999972,"sol","sol",1,7,"^5_^6_v5_v4_v3_v2_v1",3
"1491",50152,511.010000000126,"fa","fa",1,7,"^5_^6_v5_v4_v3_v2_v1",4
"1492",50152,581.630000000005,"mi","mi",1,7,"^5_^6_v5_v4_v3_v2_v1",5
"1493",50152,541.979999999981,"re","re",1,7,"^5_^6_v5_v4_v3_v2_v1",6
"1494",50152,478.07500000007,"do","do",1,7,"^5_^6_v5_v4_v3_v2_v1",7
"1495",50152,2042.60999999999,"la","la",1,7,"^6_v5+_v4_^5+_v3_v1_v7-",1
"1496",50152,550.819999999949,"le","le",1,7,"^6_v5+_v4_^5+_v3_v1_v7-",2
"1497",50152,2445.11499999999,"fa","fa",1,7,"^6_v5+_v4_^5+_v3_v1_v7-",3
"1498",50152,781.989999999991,"le","le",1,7,"^6_v5+_v4_^5+_v3_v1_v7-",4
"1499",50152,2453.84500000009,"fa","mi",0,7,"^6_v5+_v4_^5+_v3_v1_v7-",5
"1500",50152,837.214999999967,"me","do",0,7,"^6_v5+_v4_^5+_v3_v1_v7-",6
"1501",50152,6469.43499999994,"te","te",1,7,"^6_v5+_v4_^5+_v3_v1_v7-",7
"1502",50152,1242.82499999984,"do","do",1,7,"1_^3_v1_^5_v3_v2_^3",1
"1503",50152,3077.8400000002,"mi","mi",1,7,"1_^3_v1_^5_v3_v2_^3",2
"1504",50152,995.985000000102,"do","do",1,7,"1_^3_v1_^5_v3_v2_^3",3
"1505",50152,893.989999999991,"sol","sol",1,7,"1_^3_v1_^5_v3_v2_^3",4
"1506",50152,1045.91000000003,"mi","mi",1,7,"1_^3_v1_^5_v3_v2_^3",5
"1507",50152,2141.90500000003,"re","re",1,7,"1_^3_v1_^5_v3_v2_^3",6
"1508",50152,853.794999999925,"mi","mi",1,7,"1_^3_v1_^5_v3_v2_^3",7
"1509",50152,1302.36499999999,"do","do",1,7,"v1_^2_v1_v7_^1_^3_v2",1
"1510",50152,702.010000000242,"re","re",1,7,"v1_^2_v1_v7_^1_^3_v2",2
"1511",50152,622.030000000028,"do","do",1,7,"v1_^2_v1_v7_^1_^3_v2",3
"1512",50152,1126.21500000008,"ti","ti",1,7,"v1_^2_v1_v7_^1_^3_v2",4
"1513",50152,1020.6799999997,"do","do",1,7,"v1_^2_v1_v7_^1_^3_v2",5
"1514",50152,870.165000000037,"mi","mi",1,7,"v1_^2_v1_v7_^1_^3_v2",6
"1515",50152,1429.95999999996,"re","re",1,7,"v1_^2_v1_v7_^1_^3_v2",7
"1516",50152,1475.76500000013,"fa","fa",1,7,"^4_v6-_v5-_^6-_^4_v2-_2-",1
"1517",50152,5045.30999999982,"le","le",1,7,"^4_v6-_v5-_^6-_^4_v2-_2-",2
"1518",50152,3228.71499999985,"fi","fi",1,7,"^4_v6-_v5-_^6-_^4_v2-_2-",3
"1519",50152,773.684999999823,"le","le",1,7,"^4_v6-_v5-_^6-_^4_v2-_2-",4
"1520",50152,1430.0149999999,"fa","fa",1,7,"^4_v6-_v5-_^6-_^4_v2-_2-",5
"1521",50152,4485.7799999998,"ra","ra",1,7,"^4_v6-_v5-_^6-_^4_v2-_2-",6
"1522",50152,445.659999999916,"ra","ra",1,7,"^4_v6-_v5-_^6-_^4_v2-_2-",7
"1523",50152,2114.94000000018,"fa","fa",1,7,"^4_^5_^6_v5_v4_v3_v2",1
"1524",50152,678.290000000037,"sol","sol",1,7,"^4_^5_^6_v5_v4_v3_v2",2
"1525",50152,589.630000000121,"la","la",1,7,"^4_^5_^6_v5_v4_v3_v2",3
"1526",50152,542.080000000075,"sol","sol",1,7,"^4_^5_^6_v5_v4_v3_v2",4
"1527",50152,541.489999999991,"fa","fa",1,7,"^4_^5_^6_v5_v4_v3_v2",5
"1528",50152,909.895000000019,"mi","mi",1,7,"^4_^5_^6_v5_v4_v3_v2",6
"1529",50152,645.909999999916,"re","re",1,7,"^4_^5_^6_v5_v4_v3_v2",7
"1530",50152,2841.00000000023,"mi","mi",1,9,"^3_^4_v2_v7_^1_^2_^3_3_^4",1
"1531",50152,534.050000000047,"fa","fa",1,9,"^3_^4_v2_v7_^1_^2_^3_3_^4",2
"1532",50152,1485.94999999995,"re","re",1,9,"^3_^4_v2_v7_^1_^2_^3_3_^4",3
"1533",50152,582.299999999814,"do","ti",0,9,"^3_^4_v2_v7_^1_^2_^3_3_^4",4
"1534",50152,1093.94500000007,"ti","do",0,9,"^3_^4_v2_v7_^1_^2_^3_3_^4",5
"1535",50152,837.870000000112,"ti","re",0,9,"^3_^4_v2_v7_^1_^2_^3_3_^4",6
"1536",50152,1469.79000000004,"do","mi",0,9,"^3_^4_v2_v7_^1_^2_^3_3_^4",7
"1537",50152,3254.02499999991,"mi","mi",1,9,"^3_^4_v2_v7_^1_^2_^3_3_^4",8
"1538",50152,629.369999999879,"fa","fa",1,9,"^3_^4_v2_v7_^1_^2_^3_3_^4",9
"1539",50152,2162.62499999977,"sol","sol",1,9,"v5_v4_v6+_^7_^3+_v3_v2_v5_^4",1
"1540",50152,725.840000000084,"fa","fa",1,9,"v5_v4_v6+_^7_^3+_v3_v2_v5_^4",2
"1541",50152,3277.9149999998,"la","te",0,9,"v5_v4_v6+_^7_^3+_v3_v2_v5_^4",3
"1542",50152,565.319999999832,"ti","ti",1,9,"v5_v4_v6+_^7_^3+_v3_v2_v5_^4",4
"1543",50152,3157.375,"mi","3+",0,9,"v5_v4_v6+_^7_^3+_v3_v2_v5_^4",5
"1544",50152,613.994999999879,"me","mi",0,9,"v5_v4_v6+_^7_^3+_v3_v2_v5_^4",6
"1545",50152,11051.96,"la","re",0,9,"v5_v4_v6+_^7_^3+_v3_v2_v5_^4",7
"1546",50152,517.725000000093,"te","sol",0,9,"v5_v4_v6+_^7_^3+_v3_v2_v5_^4",8
"1547",50152,342.375,"ti","fa",0,9,"v5_v4_v6+_^7_^3+_v3_v2_v5_^4",9
"1548",50152,1365.89000000013,"sol","sol",1,9,"^5_^6_v5_v4_v3_v2_v1_^2_^3",1
"1549",50152,618.880000000121,"la","la",1,9,"^5_^6_v5_v4_v3_v2_v1_^2_^3",2
"1550",50152,557.149999999907,"sol","sol",1,9,"^5_^6_v5_v4_v3_v2_v1_^2_^3",3
"1551",50152,622.020000000019,"fa","fa",1,9,"^5_^6_v5_v4_v3_v2_v1_^2_^3",4
