"","subject","rt","button_pressed_vector_c","trial_answer","score","trial_length","stimulus","serial_order"
"1",13465,1327,"mi","mi",1,2,"3_^6",1
"2",13465,630,"la","la",1,2,"3_^6",2
"3",13465,970,"sol","sol",1,2,"v5_v1+",1
"4",13465,605,"ra","ra",1,2,"v5_v1+",2
"5",13465,1384,"ti","ti",1,2,"v7_v3",1
"6",13465,881,"mi","mi",1,2,"v7_v3",2
"7",13465,1186,"ra","re",0,2,"^2_v7-",1
"8",13465,1385,"te","te",1,2,"^2_v7-",2
"9",13465,848,"fa","fa",1,2,"v4_v3",1
"10",13465,429,"mi","mi",1,2,"v4_v3",2
"11",13465,1353,"do","do",1,2,"^1_^2+",1
"12",13465,1097,"me","me",1,2,"^1_^2+",2
"13",13465,1431,"me","mi",0,2,"v3_v2",1
"14",13465,1934,"re","re",1,2,"v3_v2",2
"15",13465,1550,"mi","mi",1,2,"^3_v4+",1
"16",13465,688,"fi","fi",1,2,"^3_v4+",2
"17",13465,1469,"sol","sol",1,2,"^5_^1+",1
"18",13465,9992,"ra","ra",1,2,"^5_^1+",2
"19",13465,997,"re","re",1,2,"v2_v1",1
"20",13465,599,"do","do",1,2,"v2_v1",2
"21",13465,1006,"sol","sol",1,3,"v5_v4_v3",1
"22",13465,825,"fa","fa",1,3,"v5_v4_v3",2
"23",13465,1010,"mi","mi",1,3,"v5_v4_v3",3
"24",13465,1157,"do","do",1,3,"1_v1+_^2",1
"25",13465,453,"ra","ra",1,3,"1_v1+_^2",2
"26",13465,470,"re","re",1,3,"1_v1+_^2",3
"27",13465,884,"re","re",1,3,"v2_v5_^3",1
"28",13465,910,"sol","sol",1,3,"v2_v5_^3",2
"29",13465,1388,"mi","mi",1,3,"v2_v5_^3",3
"30",13465,1366,"mi","mi",1,3,"v3_v2_v1",1
"31",13465,820,"re","re",1,3,"v3_v2_v1",2
"32",13465,1112,"do","do",1,3,"v3_v2_v1",3
"33",13465,1050,"do","do",1,3,"v1_v7-_^7",1
"34",13465,543,"te","te",1,3,"v1_v7-_^7",2
"35",13465,492,"ti","ti",1,3,"v1_v7-_^7",3
"36",13465,1392,"do","do",1,3,"^1_v6_v5+",1
"37",13465,933,"la","la",1,3,"^1_v6_v5+",2
"38",13465,452,"le","le",1,3,"^1_v6_v5+",3
"39",13465,1153,"la","la",1,3,"6_^1_v5",1
"40",13465,708,"do","do",1,3,"6_^1_v5",2
"41",13465,815,"sol","sol",1,3,"6_^1_v5",3
"42",13465,932,"fa","fa",1,3,"v4_v3_v2",1
"43",13465,1112,"mi","mi",1,3,"v4_v3_v2",2
"44",13465,1019,"re","re",1,3,"v4_v3_v2",3
"45",13465,782,"do","do",1,3,"v1_v7-_v7-",1
"46",13465,565,"te","te",1,3,"v1_v7-_v7-",2
"47",13465,452,"te","te",1,3,"v1_v7-_v7-",3
"48",13465,1353,"la","la",1,5,"^6_v4_v3_^4_^5",1
"49",13465,1246,"fa","fa",1,5,"^6_v4_v3_^4_^5",2
"50",13465,854,"mi","mi",1,5,"^6_v4_v3_^4_^5",3
"51",13465,464,"fa","fa",1,5,"^6_v4_v3_^4_^5",4
"52",13465,464,"sol","sol",1,5,"^6_v4_v3_^4_^5",5
"53",13465,801,"la","la",1,5,"^6_v5_v4_v3_v2",1
"54",13465,542,"sol","sol",1,5,"^6_v5_v4_v3_v2",2
"55",13465,615,"fa","fa",1,5,"^6_v5_v4_v3_v2",3
"56",13465,1038,"mi","mi",1,5,"^6_v5_v4_v3_v2",4
"57",13465,919,"re","re",1,5,"^6_v5_v4_v3_v2",5
"58",13465,1243,"fi","fi",1,5,"v5-_v3_3_^4+_v3",1
"59",13465,508,"mi","mi",1,5,"v5-_v3_3_^4+_v3",2
"60",13465,498,"mi","mi",1,5,"v5-_v3_3_^4+_v3",3
"61",13465,653,"fi","fi",1,5,"v5-_v3_3_^4+_v3",4
"62",13465,543,"mi","mi",1,5,"v5-_v3_3_^4+_v3",5
"63",13465,1057,"re","re",1,5,"v2_2_^3_^4_v2",1
"64",13465,575,"re","re",1,5,"v2_2_^3_^4_v2",2
"65",13465,477,"mi","mi",1,5,"v2_2_^3_^4_v2",3
"66",13465,409,"fa","fa",1,5,"v2_2_^3_^4_v2",4
"67",13465,448,"re","re",1,5,"v2_2_^3_^4_v2",5
"68",13465,933,"sol","sol",1,5,"v5_v4_v3_v2_v1",1
"69",13465,664,"fa","fa",1,5,"v5_v4_v3_v2_v1",2
"70",13465,661,"mi","mi",1,5,"v5_v4_v3_v2_v1",3
"71",13465,681,"re","re",1,5,"v5_v4_v3_v2_v1",4
"72",13465,637,"do","do",1,5,"v5_v4_v3_v2_v1",5
"73",13465,904,"sol","sol",1,5,"v5_^6+_^7_^1_5",1
"74",13465,589,"la","te",0,5,"v5_^6+_^7_^1_5",2
"75",13465,1156,"ti","ti",1,5,"v5_^6+_^7_^1_5",3
"76",13465,572,"do","do",1,5,"v5_^6+_^7_^1_5",4
"77",13465,850,"sol","sol",1,5,"v5_^6+_^7_^1_5",5
"78",13465,845,"sol","sol",1,5,"v5_v4_v3_v2_v1",6
"79",13465,504,"fa","fa",1,5,"v5_v4_v3_v2_v1",7
"80",13465,617,"mi","mi",1,5,"v5_v4_v3_v2_v1",8
"81",13465,591,"re","re",1,5,"v5_v4_v3_v2_v1",9
"82",13465,612,"do","do",1,5,"v5_v4_v3_v2_v1",10
"83",13465,1168,"sol","sol",1,5,"^5_^6_v5_v4_v3",1
"84",13465,473,"la","la",1,5,"^5_^6_v5_v4_v3",2
"85",13465,594,"sol","sol",1,5,"^5_^6_v5_v4_v3",3
"86",13465,625,"fa","fa",1,5,"^5_^6_v5_v4_v3",4
"87",13465,454,"mi","mi",1,5,"^5_^6_v5_v4_v3",5
"88",13465,8385,"fi","fa",0,7,"^4_v6-_v5-_^6-_^4_v2-_2-",1
"89",13465,893,"la","le",0,7,"^4_v6-_v5-_^6-_^4_v2-_2-",2
"90",13465,1624,"le","fi",0,7,"^4_v6-_v5-_^6-_^4_v2-_2-",3
"91",13465,521,"la","le",0,7,"^4_v6-_v5-_^6-_^4_v2-_2-",4
"92",13465,1733,"fi","fa",0,7,"^4_v6-_v5-_^6-_^4_v2-_2-",5
"93",13465,823,"re","ra",0,7,"^4_v6-_v5-_^6-_^4_v2-_2-",6
"94",13465,552,"re","ra",0,7,"^4_v6-_v5-_^6-_^4_v2-_2-",7
"95",13465,1012,"sol","sol",1,7,"^5_^6_v5_v4_v3_v2_v1",1
"96",13465,555,"la","la",1,7,"^5_^6_v5_v4_v3_v2_v1",2
"97",13465,537,"sol","sol",1,7,"^5_^6_v5_v4_v3_v2_v1",3
"98",13465,519,"fa","fa",1,7,"^5_^6_v5_v4_v3_v2_v1",4
"99",13465,516,"mi","mi",1,7,"^5_^6_v5_v4_v3_v2_v1",5
"100",13465,487,"re","re",1,7,"^5_^6_v5_v4_v3_v2_v1",6
"101",13465,534,"do","do",1,7,"^5_^6_v5_v4_v3_v2_v1",7
"102",13465,3674,"la","la",1,7,"^6_v5+_v4_^5+_v3_v1_v7-",1
"103",13465,877,"le","le",1,7,"^6_v5+_v4_^5+_v3_v1_v7-",2
"104",13465,2497,"fa","fa",1,7,"^6_v5+_v4_^5+_v3_v1_v7-",3
"105",13465,816,"le","le",1,7,"^6_v5+_v4_^5+_v3_v1_v7-",4
"106",13465,2041,"mi","mi",1,7,"^6_v5+_v4_^5+_v3_v1_v7-",5
"107",13465,725,"do","do",1,7,"^6_v5+_v4_^5+_v3_v1_v7-",6
"108",13465,763,"te","te",1,7,"^6_v5+_v4_^5+_v3_v1_v7-",7
"109",13465,1056,"do","do",1,7,"1_^3_v1_^5_v3_v2_^3",1
"110",13465,1544,"me","mi",0,7,"1_^3_v1_^5_v3_v2_^3",2
"111",13465,754,"do","do",1,7,"1_^3_v1_^5_v3_v2_^3",3
"112",13465,2615,"sol","sol",1,7,"1_^3_v1_^5_v3_v2_^3",4
"113",13465,888,"mi","mi",1,7,"1_^3_v1_^5_v3_v2_^3",5
"114",13465,563,"re","re",1,7,"1_^3_v1_^5_v3_v2_^3",6
"115",13465,818,"mi","mi",1,7,"1_^3_v1_^5_v3_v2_^3",7
"116",13465,646,"do","do",1,7,"^1_v7_v6_v5_v4_v3_v2",1
"117",13465,780,"ti","ti",1,7,"^1_v7_v6_v5_v4_v3_v2",2
"118",13465,722,"la","la",1,7,"^1_v7_v6_v5_v4_v3_v2",3
"119",13465,575,"sol","sol",1,7,"^1_v7_v6_v5_v4_v3_v2",4
"120",13465,548,"fa","fa",1,7,"^1_v7_v6_v5_v4_v3_v2",5
"121",13465,668,"mi","mi",1,7,"^1_v7_v6_v5_v4_v3_v2",6
"122",13465,785,"re","re",1,7,"^1_v7_v6_v5_v4_v3_v2",7
"123",13465,1516,"fa","fa",1,7,"^4_^5_^6_v5_v4_v3_v2",1
"124",13465,692,"sol","sol",1,7,"^4_^5_^6_v5_v4_v3_v2",2
"125",13465,596,"la","la",1,7,"^4_^5_^6_v5_v4_v3_v2",3
"126",13465,510,"sol","sol",1,7,"^4_^5_^6_v5_v4_v3_v2",4
"127",13465,724,"fa","fa",1,7,"^4_^5_^6_v5_v4_v3_v2",5
"128",13465,400,"mi","mi",1,7,"^4_^5_^6_v5_v4_v3_v2",6
"129",13465,440,"re","re",1,7,"^4_^5_^6_v5_v4_v3_v2",7
"130",13465,1221,"do","do",1,7,"v1_^2_v1_v7_^1_^3_v2",1
"131",13465,822,"re","re",1,7,"v1_^2_v1_v7_^1_^3_v2",2
"132",13465,536,"do","do",1,7,"v1_^2_v1_v7_^1_^3_v2",3
"133",13465,1095,"ti","ti",1,7,"v1_^2_v1_v7_^1_^3_v2",4
"134",13465,958,"do","do",1,7,"v1_^2_v1_v7_^1_^3_v2",5
"135",13465,872,"mi","mi",1,7,"v1_^2_v1_v7_^1_^3_v2",6
"136",13465,738,"re","re",1,7,"v1_^2_v1_v7_^1_^3_v2",7
"137",13465,1917,"ti","ti",1,9,"v7_v6_v5_^6_v5_v4_^5_^6_v5",1
"138",13465,498,"la","la",1,9,"v7_v6_v5_^6_v5_v4_^5_^6_v5",2
"139",13465,464,"sol","sol",1,9,"v7_v6_v5_^6_v5_v4_^5_^6_v5",3
"140",13465,874,"fa","la",0,9,"v7_v6_v5_^6_v5_v4_^5_^6_v5",4
"141",13465,525,"sol","sol",1,9,"v7_v6_v5_^6_v5_v4_^5_^6_v5",5
"142",13465,444,"fa","fa",1,9,"v7_v6_v5_^6_v5_v4_^5_^6_v5",6
"143",13465,686,"sol","sol",1,9,"v7_v6_v5_^6_v5_v4_^5_^6_v5",7
"144",13465,487,"la","la",1,9,"v7_v6_v5_^6_v5_v4_^5_^6_v5",8
"145",13465,495,"sol","sol",1,9,"v7_v6_v5_^6_v5_v4_^5_^6_v5",9
"146",13465,1032,"re","re",1,9,"^2_^3_^4_^5_^6_v5_v4_v3_v2",1
"147",13465,479,"mi","mi",1,9,"^2_^3_^4_^5_^6_v5_v4_v3_v2",2
"148",13465,705,"fa","fa",1,9,"^2_^3_^4_^5_^6_v5_v4_v3_v2",3
"149",13465,675,"sol","sol",1,9,"^2_^3_^4_^5_^6_v5_v4_v3_v2",4
"150",13465,508,"la","la",1,9,"^2_^3_^4_^5_^6_v5_v4_v3_v2",5
"151",13465,642,"sol","sol",1,9,"^2_^3_^4_^5_^6_v5_v4_v3_v2",6
"152",13465,616,"fa","fa",1,9,"^2_^3_^4_^5_^6_v5_v4_v3_v2",7
"153",13465,1794,"mi","mi",1,9,"^2_^3_^4_^5_^6_v5_v4_v3_v2",8
"154",13465,692,"re","re",1,9,"^2_^3_^4_^5_^6_v5_v4_v3_v2",9
"155",13465,1842,"mi","mi",1,9,"^3_^4_v2_v7_^1_^2_^3_3_^4",1
"156",13465,571,"fa","fa",1,9,"^3_^4_v2_v7_^1_^2_^3_3_^4",2
"157",13465,1147,"re","re",1,9,"^3_^4_v2_v7_^1_^2_^3_3_^4",3
"158",13465,983,"ti","ti",1,9,"^3_^4_v2_v7_^1_^2_^3_3_^4",4
"159",13465,861,"do","do",1,9,"^3_^4_v2_v7_^1_^2_^3_3_^4",5
"160",13465,583,"re","re",1,9,"^3_^4_v2_v7_^1_^2_^3_3_^4",6
"161",13465,2788,"mi","mi",1,9,"^3_^4_v2_v7_^1_^2_^3_3_^4",7
"162",13465,400,"fa","mi",0,9,"^3_^4_v2_v7_^1_^2_^3_3_^4",8
"163",13465,380,"fa","fa",1,9,"^3_^4_v2_v7_^1_^2_^3_3_^4",9
"164",13465,1014,"sol","sol",1,9,"^5_^6_v5_v4_v3_v2_v1_^2_^3",1
"165",13465,441,"la","la",1,9,"^5_^6_v5_v4_v3_v2_v1_^2_^3",2
"166",13465,451,"sol","sol",1,9,"^5_^6_v5_v4_v3_v2_v1_^2_^3",3
"167",13465,474,"fa","fa",1,9,"^5_^6_v5_v4_v3_v2_v1_^2_^3",4
"168",13465,450,"mi","mi",1,9,"^5_^6_v5_v4_v3_v2_v1_^2_^3",5
"169",13465,587,"re","re",1,9,"^5_^6_v5_v4_v3_v2_v1_^2_^3",6
"170",13465,469,"do","do",1,9,"^5_^6_v5_v4_v3_v2_v1_^2_^3",7
"171",13465,437,"re","re",1,9,"^5_^6_v5_v4_v3_v2_v1_^2_^3",8
"172",13465,645,"mi","mi",1,9,"^5_^6_v5_v4_v3_v2_v1_^2_^3",9
"173",13465,2870,"sol","sol",1,9,"v5_v4_v6+_^7_^3+_v3_v2_v5_^4",1
"174",13465,2033,"fa","fa",1,9,"v5_v4_v6+_^7_^3+_v3_v2_v5_^4",2
"175",13465,1107,"la","te",0,9,"v5_v4_v6+_^7_^3+_v3_v2_v5_^4",3
"176",13465,4021,"ti","ti",1,9,"v5_v4_v6+_^7_^3+_v3_v2_v5_^4",4
"177",13465,1345,"mi","mi",1,9,"v5_v4_v6+_^7_^3+_v3_v2_v5_^4",5
"178",13465,724,"me","mi",0,9,"v5_v4_v6+_^7_^3+_v3_v2_v5_^4",6
"179",13465,2099,"sol","re",0,9,"v5_v4_v6+_^7_^3+_v3_v2_v5_^4",7
"180",13465,489,"la","sol",0,9,"v5_v4_v6+_^7_^3+_v3_v2_v5_^4",8
"181",13465,487,"la","fa",0,9,"v5_v4_v6+_^7_^3+_v3_v2_v5_^4",9
"182",13465,1957,"re","re",1,9,"^2_^4_v3_v2_v1_v3_v2+_^3_^5+",1
"183",13465,784,"fa","fa",1,9,"^2_^4_v3_v2_v1_v3_v2+_^3_^5+",2
"184",13465,445,"mi","mi",1,9,"^2_^4_v3_v2_v1_v3_v2+_^3_^5+",3
"185",13465,1024,"re","re",1,9,"^2_^4_v3_v2_v1_v3_v2+_^3_^5+",4
"186",13465,545,"do","do",1,9,"^2_^4_v3_v2_v1_v3_v2+_^3_^5+",5
"187",13465,787,"mi","mi",1,9,"^2_^4_v3_v2_v1_v3_v2+_^3_^5+",6
"188",13465,411,"me","me",1,9,"^2_^4_v3_v2_v1_v3_v2+_^3_^5+",7
"189",13465,537,"sol","mi",0,9,"^2_^4_v3_v2_v1_v3_v2+_^3_^5+",8
"190",13465,818,"sol","le",0,9,"^2_^4_v3_v2_v1_v3_v2+_^3_^5+",9
"191",13465,938,"mi","mi",1,9,"^3_^4_^5_^6_v5_v4_v3_v2_v1",1
"192",13465,744,"fa","fa",1,9,"^3_^4_^5_^6_v5_v4_v3_v2_v1",2
"193",13465,636,"sol","sol",1,9,"^3_^4_^5_^6_v5_v4_v3_v2_v1",3
"194",13465,791,"la","la",1,9,"^3_^4_^5_^6_v5_v4_v3_v2_v1",4
"195",13465,562,"sol","sol",1,9,"^3_^4_^5_^6_v5_v4_v3_v2_v1",5
"196",13465,517,"fa","fa",1,9,"^3_^4_^5_^6_v5_v4_v3_v2_v1",6
"197",13465,411,"mi","mi",1,9,"^3_^4_^5_^6_v5_v4_v3_v2_v1",7
"198",13465,445,"re","re",1,9,"^3_^4_^5_^6_v5_v4_v3_v2_v1",8
"199",13465,514,"do","do",1,9,"^3_^4_^5_^6_v5_v4_v3_v2_v1",9
"200",13509,2692.88999999838,"ti","ti",1,2,"v7_v3",1
"201",13509,1545.81500000495,"mi","mi",1,2,"v7_v3",2
"202",13509,2837.98999999999,"re","re",1,2,"^2_v7-",1
"203",13509,1646.14499999874,"te","te",1,2,"^2_v7-",2
"204",13509,1473.93999999622,"mi","mi",1,2,"v3_v2",1
"205",13509,853.035000000033,"re","re",1,2,"v3_v2",2
"206",13509,1433.19000000344,"re","re",1,2,"v2_v1",1
"207",13509,936.175000002491,"do","do",1,2,"v2_v1",2
"208",13509,895.584999998449,"mi","mi",1,2,"^3_v4+",1
"209",13509,835.044999999693,"fi","fi",1,2,"^3_v4+",2
"210",13509,1665.19500000146,"sol","sol",1,2,"v5_v1+",1
"211",13509,1179.38000000152,"ra","ra",1,2,"v5_v1+",2
"212",13509,2017.33999999845,"sol","sol",1,2,"^5_^1+",1
"213",13509,1981.54999999679,"ra","ra",1,2,"^5_^1+",2
"214",13509,1187.14500000351,"mi","mi",1,2,"3_^6",1
"215",13509,999.569999999832,"la","la",1,2,"3_^6",2
"216",13509,1113.92999999959,"fa","fa",1,2,"v4_v3",1
"217",13509,672.704999997164,"mi","mi",1,2,"v4_v3",2
"218",13509,1017.05500000389,"do","do",1,2,"^1_^2+",1
"219",13509,862.769999999669,"me","me",1,2,"^1_^2+",2
"220",13509,1638.81000000401,"do","do",1,3,"v1_v7-_v7-",1
"221",13509,953.734999995562,"te","te",1,3,"v1_v7-_v7-",2
"222",13509,679.044999997132,"te","te",1,3,"v1_v7-_v7-",3
"223",13509,1171.11499999731,"do","do",1,3,"^1_v6_v5+",1
"224",13509,991.394999997341,"la","la",1,3,"^1_v6_v5+",2
"225",13509,784.179999995162,"le","le",1,3,"^1_v6_v5+",3
"226",13509,1294.75500000257,"fa","fa",1,3,"v4_v3_v2",1
"227",13509,822.495000000345,"mi","mi",1,3,"v4_v3_v2",2
"228",13509,969.055000001448,"re","re",1,3,"v4_v3_v2",3
"229",13509,1388.85000000312,"re","re",1,3,"v2_v5_^3",1
"230",13509,1153.51999999979,"sol","sol",1,3,"v2_v5_^3",2
"231",13509,936.499999996158,"mi","mi",1,3,"v2_v5_^3",3
"232",13509,1493.61499999953,"fa","do",0,3,"v1_v7-_^7",1
"233",13509,800.73999999871,"me","te",0,3,"v1_v7-_^7",2
"234",13509,936.119999998482,"mi","ti",0,3,"v1_v7-_^7",3
"235",13509,1073.17499999772,"sol","sol",1,3,"v5_v4_v3",1
"236",13509,864.015000006417,"fa","fa",1,3,"v5_v4_v3",2
"237",13509,616.445000006934,"mi","mi",1,3,"v5_v4_v3",3
"238",13509,1451.76499999803,"mi","mi",1,3,"v3_v2_v1",1
"239",13509,808.060000003083,"re","re",1,3,"v3_v2_v1",2
"240",13509,764.02499999688,"do","do",1,3,"v3_v2_v1",3
"241",13509,932.605000001728,"do","do",1,3,"1_v1+_^2",1
"242",13509,649.619999996503,"ra","ra",1,3,"1_v1+_^2",2
"243",13509,726.575000000536,"re","re",1,3,"1_v1+_^2",3
"244",13509,1464.8349999988,"la","la",1,3,"6_^1_v5",1
"245",13509,1041.32000000402,"do","do",1,3,"6_^1_v5",2
"246",13509,1093.02000000025,"sol","sol",1,3,"6_^1_v5",3
"247",13509,1793.60500000627,"fi","fi",1,5,"v5-_v3_3_^4+_v3",1
"248",13509,975.480000001029,"mi","mi",1,5,"v5-_v3_3_^4+_v3",2
"249",13509,503.920000002952,"mi","mi",1,5,"v5-_v3_3_^4+_v3",3
"250",13509,1926.25499999849,"fi","fi",1,5,"v5-_v3_3_^4+_v3",4
"251",13509,888.834999997984,"mi","mi",1,5,"v5-_v3_3_^4+_v3",5
"252",13509,1183.71499999927,"sol","sol",1,5,"v5_^6+_^7_^1_5",1
"253",13509,846.050000000163,"la","te",0,5,"v5_^6+_^7_^1_5",2
"254",13509,974.6599999998,"ti","ti",1,5,"v5_^6+_^7_^1_5",3
"255",13509,836.289999999339,"do","do",1,5,"v5_^6+_^7_^1_5",4
"256",13509,1276.50500000175,"sol","sol",1,5,"v5_^6+_^7_^1_5",5
"257",13509,1333.8000000004,"la","la",1,5,"^6_v4_v3_^4_^5",1
"258",13509,1112.75999999628,"fa","fa",1,5,"^6_v4_v3_^4_^5",2
"259",13509,743.034999999451,"mi","mi",1,5,"^6_v4_v3_^4_^5",3
"260",13509,820.410000000149,"fa","fa",1,5,"^6_v4_v3_^4_^5",4
"261",13509,1016.7849999998,"sol","sol",1,5,"^6_v4_v3_^4_^5",5
"262",13509,1445.85999999987,"sol","sol",1,5,"v5_v4_v3_v2_v1",1
"263",13509,937.270000002114,"fa","fa",1,5,"v5_v4_v3_v2_v1",2
"264",13509,768.564999998431,"mi","mi",1,5,"v5_v4_v3_v2_v1",3
"265",13509,751.300000003539,"re","re",1,5,"v5_v4_v3_v2_v1",4
"266",13509,900.489999999991,"do","do",1,5,"v5_v4_v3_v2_v1",5
"267",13509,1455.36999999604,"re","re",1,5,"v2_2_^3_^4_v2",1
"268",13509,481.974999995087,"re","re",1,5,"v2_2_^3_^4_v2",2
"269",13509,912.955000007059,"mi","mi",1,5,"v2_2_^3_^4_v2",3
"270",13509,936.204999998095,"fa","fa",1,5,"v2_2_^3_^4_v2",4
"271",13509,1229.11500000185,"re","re",1,5,"v2_2_^3_^4_v2",5
"272",13509,1571.57999999612,"sol","sol",1,5,"v5_v4_v3_v2_v1",6
"273",13509,807.500000002561,"fa","fa",1,5,"v5_v4_v3_v2_v1",7
"274",13509,754.235000000335,"mi","mi",1,5,"v5_v4_v3_v2_v1",8
"275",13509,1057.63999999908,"re","re",1,5,"v5_v4_v3_v2_v1",9
"276",13509,1081.10999999917,"do","do",1,5,"v5_v4_v3_v2_v1",10
"277",13509,1443.63000000152,"la","la",1,5,"^6_v5_v4_v3_v2",1
"278",13509,795.129999998491,"sol","sol",1,5,"^6_v5_v4_v3_v2",2
"279",13509,884.024999999441,"fa","fa",1,5,"^6_v5_v4_v3_v2",3
"280",13509,685.994999999763,"mi","mi",1,5,"^6_v5_v4_v3_v2",4
"281",13509,1137.34000000113,"re","re",1,5,"^6_v5_v4_v3_v2",5
"282",13509,1136.68000000331,"sol","sol",1,5,"^5_^6_v5_v4_v3",1
"283",13509,1040.89999999991,"la","la",1,5,"^5_^6_v5_v4_v3",2
"284",13509,983.27500000596,"sol","sol",1,5,"^5_^6_v5_v4_v3",3
"285",13509,828.580000001239,"fa","fa",1,5,"^5_^6_v5_v4_v3",4
"286",13509,794.435000003548,"mi","mi",1,5,"^5_^6_v5_v4_v3",5
"287",13509,1822.45500000136,"fa","fa",1,7,"^4_v6-_v5-_^6-_^4_v2-_2-",1
"288",13509,1790.24999999814,"le","le",1,7,"^4_v6-_v5-_^6-_^4_v2-_2-",2
"289",13509,799.659999997006,"fi","fi",1,7,"^4_v6-_v5-_^6-_^4_v2-_2-",3
"290",13509,760.349999996834,"le","le",1,7,"^4_v6-_v5-_^6-_^4_v2-_2-",4
"291",13509,881.910000003641,"fa","fa",1,7,"^4_v6-_v5-_^6-_^4_v2-_2-",5
"292",13509,910.2600000042,"re","ra",0,7,"^4_v6-_v5-_^6-_^4_v2-_2-",6
"293",13509,479.769999998156,"re","ra",0,7,"^4_v6-_v5-_^6-_^4_v2-_2-",7
"294",13509,7972.06999999622,"sol","la",0,7,"^6_v5+_v4_^5+_v3_v1_v7-",1
"295",13509,952.019999996992,"mi","le",0,7,"^6_v5+_v4_^5+_v3_v1_v7-",2
"296",13509,622.810000000754,"me","fa",0,7,"^6_v5+_v4_^5+_v3_v1_v7-",3
"297",13509,643.759999998962,"mi","le",0,7,"^6_v5+_v4_^5+_v3_v1_v7-",4
"298",13509,1770.30500000552,"ra","mi",0,7,"^6_v5+_v4_^5+_v3_v1_v7-",5
"299",13509,2510.9850000008,"te","do",0,7,"^6_v5+_v4_^5+_v3_v1_v7-",6
"300",13509,1455.4300000018,"le","te",0,7,"^6_v5+_v4_^5+_v3_v1_v7-",7
"301",13509,1262.21000000089,"sol","sol",1,7,"^5_^6_v5_v4_v3_v2_v1",1
"302",13509,935.924999997951,"la","la",1,7,"^5_^6_v5_v4_v3_v2_v1",2
"303",13509,747.520000004442,"sol","sol",1,7,"^5_^6_v5_v4_v3_v2_v1",3
"304",13509,752.224999996484,"fa","fa",1,7,"^5_^6_v5_v4_v3_v2_v1",4
"305",13509,657.110000000102,"mi","mi",1,7,"^5_^6_v5_v4_v3_v2_v1",5
"306",13509,784.420000003534,"re","re",1,7,"^5_^6_v5_v4_v3_v2_v1",6
"307",13509,726.730000002193,"do","do",1,7,"^5_^6_v5_v4_v3_v2_v1",7
"308",13509,1607.94000000181,"fa","fa",1,7,"^4_^5_^6_v5_v4_v3_v2",1
"309",13509,850.075000002049,"sol","sol",1,7,"^4_^5_^6_v5_v4_v3_v2",2
"310",13509,1017.25000000442,"la","la",1,7,"^4_^5_^6_v5_v4_v3_v2",3
"311",13509,1070.99500000197,"sol","sol",1,7,"^4_^5_^6_v5_v4_v3_v2",4
"312",13509,748.100000004284,"fa","fa",1,7,"^4_^5_^6_v5_v4_v3_v2",5
"313",13509,639.795000002719,"mi","mi",1,7,"^4_^5_^6_v5_v4_v3_v2",6
"314",13509,888.76500000339,"re","re",1,7,"^4_^5_^6_v5_v4_v3_v2",7
"315",13509,1084.21499999543,"do","do",1,7,"1_^3_v1_^5_v3_v2_^3",1
"316",13509,1426.57499999763,"mi","mi",1,7,"1_^3_v1_^5_v3_v2_^3",2
"317",13509,955.289999997942,"do","do",1,7,"1_^3_v1_^5_v3_v2_^3",3
"318",13509,1007.64499999769,"sol","sol",1,7,"1_^3_v1_^5_v3_v2_^3",4
"319",13509,1090.98000000091,"mi","mi",1,7,"1_^3_v1_^5_v3_v2_^3",5
"320",13509,1046.57000000589,"re","re",1,7,"1_^3_v1_^5_v3_v2_^3",6
"321",13509,965.040000002831,"mi","mi",1,7,"1_^3_v1_^5_v3_v2_^3",7
"322",13509,1478.52499999851,"do","do",1,7,"^1_v7_v6_v5_v4_v3_v2",1
"323",13509,827.514999997336,"ti","ti",1,7,"^1_v7_v6_v5_v4_v3_v2",2
"324",13509,1032.38499999861,"la","la",1,7,"^1_v7_v6_v5_v4_v3_v2",3
"325",13509,932.079999998678,"sol","sol",1,7,"^1_v7_v6_v5_v4_v3_v2",4
"326",13509,1048.35999999358,"fa","fa",1,7,"^1_v7_v6_v5_v4_v3_v2",5
"327",13509,1040.74000000395,"mi","mi",1,7,"^1_v7_v6_v5_v4_v3_v2",6
"328",13509,1106.9199999983,"re","re",1,7,"^1_v7_v6_v5_v4_v3_v2",7
"329",13509,1092.89500000142,"do","do",1,7,"v1_^2_v1_v7_^1_^3_v2",1
"330",13509,754.93500000448,"re","re",1,7,"v1_^2_v1_v7_^1_^3_v2",2
"331",13509,776.960000002757,"do","do",1,7,"v1_^2_v1_v7_^1_^3_v2",3
"332",13509,1561.84500000393,"ti","ti",1,7,"v1_^2_v1_v7_^1_^3_v2",4
"333",13509,731.574999998091,"do","do",1,7,"v1_^2_v1_v7_^1_^3_v2",5
"334",13509,1804.02999999933,"mi","mi",1,7,"v1_^2_v1_v7_^1_^3_v2",6
"335",13509,1585.99999999581,"re","re",1,7,"v1_^2_v1_v7_^1_^3_v2",7
"336",13509,1871.10499999858,"sol","sol",1,9,"^5_^6_v5_v4_v3_v2_v1_^2_^3",1
"337",13509,775.620000000345,"la","la",1,9,"^5_^6_v5_v4_v3_v2_v1_^2_^3",2
"338",13509,960.800000000745,"sol","sol",1,9,"^5_^6_v5_v4_v3_v2_v1_^2_^3",3
"339",13509,1180.88500000141,"fa","fa",1,9,"^5_^6_v5_v4_v3_v2_v1_^2_^3",4
"340",13509,991.764999998733,"mi","mi",1,9,"^5_^6_v5_v4_v3_v2_v1_^2_^3",5
"341",13509,1065.33499999926,"re","re",1,9,"^5_^6_v5_v4_v3_v2_v1_^2_^3",6
"342",13509,1099.19000000088,"do","do",1,9,"^5_^6_v5_v4_v3_v2_v1_^2_^3",7
"343",13509,1410.93499999982,"re","re",1,9,"^5_^6_v5_v4_v3_v2_v1_^2_^3",8
"344",13509,1634.24999999558,"mi","mi",1,9,"^5_^6_v5_v4_v3_v2_v1_^2_^3",9
"345",13509,1181.62500000466,"mi","mi",1,9,"^3_^4_^5_^6_v5_v4_v3_v2_v1",1
"346",13509,639.990000003483,"fa","fa",1,9,"^3_^4_^5_^6_v5_v4_v3_v2_v1",2
"347",13509,764.519999996992,"sol","sol",1,9,"^3_^4_^5_^6_v5_v4_v3_v2_v1",3
"348",13509,864.000000001397,"la","la",1,9,"^3_^4_^5_^6_v5_v4_v3_v2_v1",4
"349",13509,856.50499999593,"sol","sol",1,9,"^3_^4_^5_^6_v5_v4_v3_v2_v1",5
"350",13509,960.859999999404,"fa","fa",1,9,"^3_^4_^5_^6_v5_v4_v3_v2_v1",6
"351",13509,916.420000001322,"mi","mi",1,9,"^3_^4_^5_^6_v5_v4_v3_v2_v1",7
"352",13509,1135.38499999419,"re","re",1,9,"^3_^4_^5_^6_v5_v4_v3_v2_v1",8
"353",13509,1067.64500000281,"do","do",1,9,"^3_^4_^5_^6_v5_v4_v3_v2_v1",9
"354",13509,2275.18499999866,"re","re",1,9,"^2_^3_^4_^5_^6_v5_v4_v3_v2",1
"355",13509,1537.53499999596,"mi","mi",1,9,"^2_^3_^4_^5_^6_v5_v4_v3_v2",2
"356",13509,607.364999996265,"fa","fa",1,9,"^2_^3_^4_^5_^6_v5_v4_v3_v2",3
"357",13509,767.980000004172,"sol","sol",1,9,"^2_^3_^4_^5_^6_v5_v4_v3_v2",4
"358",13509,924.720000002766,"la","la",1,9,"^2_^3_^4_^5_^6_v5_v4_v3_v2",5
"359",13509,927.945000003092,"sol","sol",1,9,"^2_^3_^4_^5_^6_v5_v4_v3_v2",6
"360",13509,920.770000004442,"fa","fa",1,9,"^2_^3_^4_^5_^6_v5_v4_v3_v2",7
"361",13509,811.095000004629,"mi","mi",1,9,"^2_^3_^4_^5_^6_v5_v4_v3_v2",8
"362",13509,1020.70500000264,"re","re",1,9,"^2_^3_^4_^5_^6_v5_v4_v3_v2",9
"363",13509,1759.08499999787,"re","re",1,9,"^2_^4_v3_v2_v1_v3_v2+_^3_^5+",1
"364",13509,944.410000003874,"fa","fa",1,9,"^2_^4_v3_v2_v1_v3_v2+_^3_^5+",2
"365",13509,683.494999997551,"mi","mi",1,9,"^2_^4_v3_v2_v1_v3_v2+_^3_^5+",3
"366",13509,809.009999996983,"re","re",1,9,"^2_^4_v3_v2_v1_v3_v2+_^3_^5+",4
"367",13509,1112.5549999997,"do","do",1,9,"^2_^4_v3_v2_v1_v3_v2+_^3_^5+",5
"368",13509,1288.65500000399,"mi","mi",1,9,"^2_^4_v3_v2_v1_v3_v2+_^3_^5+",6
"369",13509,695.285000001546,"me","me",1,9,"^2_^4_v3_v2_v1_v3_v2+_^3_^5+",7
"370",13509,744.790000004228,"mi","mi",1,9,"^2_^4_v3_v2_v1_v3_v2+_^3_^5+",8
"371",13509,4186.34999999637,"le","le",1,9,"^2_^4_v3_v2_v1_v3_v2+_^3_^5+",9
"372",13509,1365.5,"ti","ti",1,9,"v7_v6_v5_^6_v5_v4_^5_^6_v5",1
"373",13509,1552.36999999755,"la","la",1,9,"v7_v6_v5_^6_v5_v4_^5_^6_v5",2
"374",13509,744.474999999627,"sol","sol",1,9,"v7_v6_v5_^6_v5_v4_^5_^6_v5",3
"375",13509,715.915000000736,"fa","la",0,9,"v7_v6_v5_^6_v5_v4_^5_^6_v5",4
"376",13509,947.489999998594,"sol","sol",1,9,"v7_v6_v5_^6_v5_v4_^5_^6_v5",5
"377",13509,1462.69500000216,"la","fa",0,9,"v7_v6_v5_^6_v5_v4_^5_^6_v5",6
"378",13509,1108.91000000248,"sol","sol",1,9,"v7_v6_v5_^6_v5_v4_^5_^6_v5",7
"379",13509,1160.46999999508,"fa","la",0,9,"v7_v6_v5_^6_v5_v4_^5_^6_v5",8
"380",13509,1714.21499999985,"sol","sol",1,9,"v7_v6_v5_^6_v5_v4_^5_^6_v5",9
"381",13509,3633.93999999971,"sol","sol",1,9,"v5_v4_v6+_^7_^3+_v3_v2_v5_^4",1
"382",13509,995.224999998696,"fa","fa",1,9,"v5_v4_v6+_^7_^3+_v3_v2_v5_^4",2
"383",13509,1402.67500000494,"la","te",0,9,"v5_v4_v6+_^7_^3+_v3_v2_v5_^4",3
"384",13509,920.339999997057,"ti","ti",1,9,"v5_v4_v6+_^7_^3+_v3_v2_v5_^4",4
"385",13509,1098.61500000255,"mi","mi",1,9,"v5_v4_v6+_^7_^3+_v3_v2_v5_^4",5
"386",13509,750.670000001322,"me","mi",0,9,"v5_v4_v6+_^7_^3+_v3_v2_v5_^4",6
"387",13509,841.404999999329,"re","re",1,9,"v5_v4_v6+_^7_^3+_v3_v2_v5_^4",7
"388",13509,4228.05499999947,"le","sol",0,9,"v5_v4_v6+_^7_^3+_v3_v2_v5_^4",8
"389",13509,1220.74499999871,"re","fa",0,9,"v5_v4_v6+_^7_^3+_v3_v2_v5_^4",9
"390",13509,1466.21500000032,"mi","mi",1,9,"^3_^4_v2_v7_^1_^2_^3_3_^4",1
"391",13509,690.529999999795,"fa","fa",1,9,"^3_^4_v2_v7_^1_^2_^3_3_^4",2
"392",13509,992.56500000041,"re","re",1,9,"^3_^4_v2_v7_^1_^2_^3_3_^4",3
"393",13509,1156.55500000133,"ti","ti",1,9,"^3_^4_v2_v7_^1_^2_^3_3_^4",4
"394",13509,737.329999996349,"do","do",1,9,"^3_^4_v2_v7_^1_^2_^3_3_^4",5
"395",13509,1628.2850000062,"re","re",1,9,"^3_^4_v2_v7_^1_^2_^3_3_^4",6
"396",13509,844.629999999423,"mi","mi",1,9,"^3_^4_v2_v7_^1_^2_^3_3_^4",7
"397",13509,399.45499999891,"mi","mi",1,9,"^3_^4_v2_v7_^1_^2_^3_3_^4",8
"398",13509,774.769999996293,"fa","fa",1,9,"^3_^4_v2_v7_^1_^2_^3_3_^4",9
"399",14193,7184.77500003204,"me","re",0,2,"^2_v7-",1
"400",14193,3140.4849999845,"do","te",0,2,"^2_v7-",2
"401",14193,1020.97999997064,"sol","mi",0,2,"v3_v2",1
"402",14193,829.259999971837,"fa","re",0,2,"v3_v2",2
"403",14193,999.730000041425,"re","re",1,2,"v2_v1",1
"404",14193,673.110000032932,"do","do",1,2,"v2_v1",2
"405",14193,10779.5000000037,"ti","fa",0,2,"v4_v3",1
"406",14193,672.925000019372,"la","mi",0,2,"v4_v3",2
"407",14193,9618.32000000775,"fi","mi",0,2,"^3_v4+",1
"408",14193,713.244999989867,"sol","fi",0,2,"^3_v4+",2
"409",14193,4775.41499998048,"me","mi",0,2,"3_^6",1
"410",14193,754.249999996275,"sol","la",0,2,"3_^6",2
"411",14193,2727.94999997318,"do","do",1,2,"^1_^2+",1
"412",14193,3436.6600000076,"me","me",1,2,"^1_^2+",2
"413",14193,5712.99000002816,"fi","sol",0,2,"v5_v1+",1
"414",14193,4931.57499999553,"ra","ra",1,2,"v5_v1+",2
"415",14193,1158.88000000268,"ti","ti",1,2,"v7_v3",1
"416",14193,4006.71500002593,"me","mi",0,2,"v7_v3",2
"417",14193,5561.50000001118,"sol","sol",1,2,"^5_^1+",1
"418",14193,4155.84000001848,"ra","ra",1,2,"^5_^1+",2
"419",14193,2651.19999996573,"fa","fa",1,3,"v4_v3_v2",1
"420",14193,427.629999991506,"mi","mi",1,3,"v4_v3_v2",2
"421",14193,585.505000025034,"re","re",1,3,"v4_v3_v2",3
"422",14193,11423.0599999987,"la","la",1,3,"6_^1_v5",1
"423",14193,914.84500002116,"fa","do",0,3,"6_^1_v5",2
"424",14193,1313.47499997541,"mi","sol",0,3,"6_^1_v5",3
"425",14193,1459.45999998227,"re","re",1,3,"v2_v5_^3",1
"426",14193,3598.31499994919,"fa","sol",0,3,"v2_v5_^3",2
"427",14193,760.295000042766,"mi","mi",1,3,"v2_v5_^3",3
"428",14193,10109.6200000048,"sol","sol",1,3,"v5_v4_v3",1
"429",14193,476.350000012666,"fa","fa",1,3,"v5_v4_v3",2
"430",14193,326.960000034422,"mi","mi",1,3,"v5_v4_v3",3
"431",14193,1173.63999999315,"do","do",1,3,"1_v1+_^2",1
"432",14193,351.244999967515,"ra","ra",1,3,"1_v1+_^2",2
"433",14193,382.720000050962,"re","re",1,3,"1_v1+_^2",3
"434",14193,16409.1650000177,"te","do",0,3,"v1_v7-_^7",1
"435",14193,476.495000012219,"la","te",0,3,"v1_v7-_^7",2
"436",14193,515.494999997318,"ti","ti",1,3,"v1_v7-_^7",3
"437",14193,1469.26499996334,"mi","mi",1,3,"v3_v2_v1",1
"438",14193,654.745000008494,"re","re",1,3,"v3_v2_v1",2
"439",14193,579.42500000447,"do","do",1,3,"v3_v2_v1",3
"440",14193,22765.1800000481,"do","do",1,3,"^1_v6_v5+",1
"441",14193,2150.64000000805,"la","la",1,3,"^1_v6_v5+",2
"442",14193,3657.57999999821,"fa","le",0,3,"^1_v6_v5+",3
"443",14193,1651.00500004739,"do","do",1,3,"v1_v7-_v7-",1
"444",14193,719.409999959171,"te","te",1,3,"v1_v7-_v7-",2
"445",14193,358.07499999553,"te","te",1,3,"v1_v7-_v7-",3
"446",14193,1124.3549999781,"sol","sol",1,5,"v5_v4_v3_v2_v1",1
"447",14193,892.514999955893,"fa","fa",1,5,"v5_v4_v3_v2_v1",2
"448",14193,907.255000028759,"mi","mi",1,5,"v5_v4_v3_v2_v1",3
"449",14193,703.414999999106,"re","re",1,5,"v5_v4_v3_v2_v1",4
"450",14193,701.890000026673,"do","do",1,5,"v5_v4_v3_v2_v1",5
"451",14193,3793.89000002667,"sol","sol",1,5,"v5_^6+_^7_^1_5",1
"452",14193,633.635000031441,"la","te",0,5,"v5_^6+_^7_^1_5",2
"453",14193,737.109999988228,"ti","ti",1,5,"v5_^6+_^7_^1_5",3
"454",14193,372.22500000149,"do","do",1,5,"v5_^6+_^7_^1_5",4
"455",14193,797.384999983013,"sol","sol",1,5,"v5_^6+_^7_^1_5",5
"456",14193,1862.01999999955,"fi","fi",1,5,"v5-_v3_3_^4+_v3",1
"457",14193,2246.54500000179,"fa","mi",0,5,"v5-_v3_3_^4+_v3",2
"458",14193,445.160000003874,"fa","mi",0,5,"v5-_v3_3_^4+_v3",3
"459",14193,498.825000017881,"fi","fi",1,5,"v5-_v3_3_^4+_v3",4
"460",14193,562.78500001505,"fa","mi",0,5,"v5-_v3_3_^4+_v3",5
"461",14193,47014.0450000167,"sol","la",0,5,"^6_v4_v3_^4_^5",1
"462",14193,508.834999985993,"fa","fa",1,5,"^6_v4_v3_^4_^5",2
"463",14193,412.63000003621,"mi","mi",1,5,"^6_v4_v3_^4_^5",3
"464",14193,367.384999990463,"fa","fa",1,5,"^6_v4_v3_^4_^5",4
"465",14193,477.35000000149,"sol","sol",1,5,"^6_v4_v3_^4_^5",5
"466",14193,5171.33500001952,"la","la",1,5,"^6_v5_v4_v3_v2",1
"467",14193,516.430000018328,"sol","sol",1,5,"^6_v5_v4_v3_v2",2
"468",14193,898.690000001341,"fa","fa",1,5,"^6_v5_v4_v3_v2",3
"469",14193,1079.28000000492,"mi","mi",1,5,"^6_v5_v4_v3_v2",4
"470",14193,530.804999988526,"re","re",1,5,"^6_v5_v4_v3_v2",5
"471",14193,1262.74999999255,"sol","sol",1,5,"^5_^6_v5_v4_v3",1
"472",14193,500.195000026375,"la","la",1,5,"^5_^6_v5_v4_v3",2
"473",14193,461.015000008047,"sol","sol",1,5,"^5_^6_v5_v4_v3",3
"474",14193,703.735000044107,"fa","fa",1,5,"^5_^6_v5_v4_v3",4
"475",14193,610.46999995783,"mi","mi",1,5,"^5_^6_v5_v4_v3",5
"476",14193,13585.1700000353,"re","re",1,5,"v2_2_^3_^4_v2",1
"477",14193,610.324999958277,"re","re",1,5,"v2_2_^3_^4_v2",2
"478",14193,633.42500000447,"mi","mi",1,5,"v2_2_^3_^4_v2",3
"479",14193,404.634999983013,"fa","fa",1,5,"v2_2_^3_^4_v2",4
"480",14193,563.189999960363,"re","re",1,5,"v2_2_^3_^4_v2",5
"481",14193,924.54999999702,"sol","sol",1,5,"v5_v4_v3_v2_v1",6
"482",14193,641.160000000149,"fa","fa",1,5,"v5_v4_v3_v2_v1",7
"483",14193,406.81000001356,"mi","mi",1,5,"v5_v4_v3_v2_v1",8
"484",14193,485.654999967664,"re","re",1,5,"v5_v4_v3_v2_v1",9
"485",14193,506.934999953955,"do","do",1,5,"v5_v4_v3_v2_v1",10
"486",14193,12294.75,"le","la",0,7,"^6_v5+_v4_^5+_v3_v1_v7-",1
"487",14193,6230.90999998525,"sol","le",0,7,"^6_v5+_v4_^5+_v3_v1_v7-",2
"488",14193,3435.94499997422,"mi","fa",0,7,"^6_v5+_v4_^5+_v3_v1_v7-",3
"489",14193,867.510000012815,"sol","le",0,7,"^6_v5+_v4_^5+_v3_v1_v7-",4
"490",14193,1518.76999996603,"le","mi",0,7,"^6_v5+_v4_^5+_v3_v1_v7-",5
"491",14193,2002.76999996603,"la","do",0,7,"^6_v5+_v4_^5+_v3_v1_v7-",6
"492",14193,335.094999991357,"le","te",0,7,"^6_v5+_v4_^5+_v3_v1_v7-",7
"493",14193,1300.51499995217,"do","do",1,7,"v1_^2_v1_v7_^1_^3_v2",1
"494",14193,641.124999966472,"re","re",1,7,"v1_^2_v1_v7_^1_^3_v2",2
"495",14193,601.035000000149,"do","do",1,7,"v1_^2_v1_v7_^1_^3_v2",3
"496",14193,774.940000031143,"ti","ti",1,7,"v1_^2_v1_v7_^1_^3_v2",4
"497",14193,781.004999998957,"do","do",1,7,"v1_^2_v1_v7_^1_^3_v2",5
"498",14193,1643.31000001356,"me","mi",0,7,"v1_^2_v1_v7_^1_^3_v2",6
"499",14193,742.619999974966,"re","re",1,7,"v1_^2_v1_v7_^1_^3_v2",7
"500",14193,6315.17999997735,"fa","fa",1,7,"^4_^5_^6_v5_v4_v3_v2",1
"501",14193,779.879999984056,"sol","sol",1,7,"^4_^5_^6_v5_v4_v3_v2",2
"502",14193,1041.36500001326,"la","la",1,7,"^4_^5_^6_v5_v4_v3_v2",3
"503",14193,530.830000005662,"sol","sol",1,7,"^4_^5_^6_v5_v4_v3_v2",4
"504",14193,608.729999978095,"fa","fa",1,7,"^4_^5_^6_v5_v4_v3_v2",5
"505",14193,2043.09500002861,"mi","mi",1,7,"^4_^5_^6_v5_v4_v3_v2",6
"506",14193,1156.91000001878,"fa","re",0,7,"^4_^5_^6_v5_v4_v3_v2",7
"507",14193,962.560000017285,"ti","do",0,7,"^1_v7_v6_v5_v4_v3_v2",1
"508",14193,555.389999993145,"la","ti",0,7,"^1_v7_v6_v5_v4_v3_v2",2
"509",14193,687.009999994189,"sol","la",0,7,"^1_v7_v6_v5_v4_v3_v2",3
"510",14193,624.949999965727,"fa","sol",0,7,"^1_v7_v6_v5_v4_v3_v2",4
"511",14193,697.645000007004,"mi","fa",0,7,"^1_v7_v6_v5_v4_v3_v2",5
"512",14193,678.040000025183,"re","mi",0,7,"^1_v7_v6_v5_v4_v3_v2",6
"513",14193,7955.51000000164,"re","re",1,7,"^1_v7_v6_v5_v4_v3_v2",7
"514",14193,11855.7099999748,"sol","fa",0,7,"^4_v6-_v5-_^6-_^4_v2-_2-",1
"515",14193,1241.63999996334,"mi","le",0,7,"^4_v6-_v5-_^6-_^4_v2-_2-",2
"516",14193,1040.81500001624,"re","fi",0,7,"^4_v6-_v5-_^6-_^4_v2-_2-",3
"517",14193,1047.00499999896,"mi","le",0,7,"^4_v6-_v5-_^6-_^4_v2-_2-",4
"518",14193,3342.28000004217,"sol","fa",0,7,"^4_v6-_v5-_^6-_^4_v2-_2-",5
"519",14193,648.564999982715,"mi","ra",0,7,"^4_v6-_v5-_^6-_^4_v2-_2-",6
"520",14193,203.364999964833,"mi","ra",0,7,"^4_v6-_v5-_^6-_^4_v2-_2-",7
"521",14193,11777.7650000043,"sol","sol",1,7,"^5_^6_v5_v4_v3_v2_v1",1
"522",14193,452.56499998644,"la","la",1,7,"^5_^6_v5_v4_v3_v2_v1",2
"523",14193,436.690000001341,"sol","sol",1,7,"^5_^6_v5_v4_v3_v2_v1",3
"524",14193,602.814999990165,"fa","fa",1,7,"^5_^6_v5_v4_v3_v2_v1",4
"525",14193,406.034999992698,"mi","mi",1,7,"^5_^6_v5_v4_v3_v2_v1",5
"526",14193,796.365000016987,"re","re",1,7,"^5_^6_v5_v4_v3_v2_v1",6
"527",14193,562.925000034273,"do","do",1,7,"^5_^6_v5_v4_v3_v2_v1",7
"528",14193,1513.12999997661,"do","do",1,7,"1_^3_v1_^5_v3_v2_^3",1
"529",14193,3082.66499999538,"mi","mi",1,7,"1_^3_v1_^5_v3_v2_^3",2
"530",14193,931.340000011027,"do","do",1,7,"1_^3_v1_^5_v3_v2_^3",3
"531",14193,2410.6799999699,"sol","sol",1,7,"1_^3_v1_^5_v3_v2_^3",4
"532",14193,2315.854999993,"mi","mi",1,7,"1_^3_v1_^5_v3_v2_^3",5
"533",14193,508.620000038296,"re","re",1,7,"1_^3_v1_^5_v3_v2_^3",6
"534",14193,476.924999967217,"mi","mi",1,7,"1_^3_v1_^5_v3_v2_^3",7
"535",14193,10137.6650000438,"fa","ti",0,9,"v7_v6_v5_^6_v5_v4_^5_^6_v5",1
"536",14193,696,"mi","la",0,9,"v7_v6_v5_^6_v5_v4_^5_^6_v5",2
"537",14193,609.399999961257,"re","sol",0,9,"v7_v6_v5_^6_v5_v4_^5_^6_v5",3
"538",14193,649.2349999547,"mi","la",0,9,"v7_v6_v5_^6_v5_v4_^5_^6_v5",4
"539",14193,673.240000031888,"re","sol",0,9,"v7_v6_v5_^6_v5_v4_^5_^6_v5",5
"540",14193,1157.04999998212,"mi","fa",0,9,"v7_v6_v5_^6_v5_v4_^5_^6_v5",6
"541",14193,562.22000002116,"fa","sol",0,9,"v7_v6_v5_^6_v5_v4_^5_^6_v5",7
"542",14193,804.92500000447,"sol","la",0,9,"v7_v6_v5_^6_v5_v4_^5_^6_v5",8
"543",14193,506.960000030696,"fa","sol",0,9,"v7_v6_v5_^6_v5_v4_^5_^6_v5",9
"544",14193,4107.75999998301,"re","mi",0,9,"^3_^4_v2_v7_^1_^2_^3_3_^4",1
"545",14193,641.144999995828,"mi","fa",0,9,"^3_^4_v2_v7_^1_^2_^3_3_^4",2
"546",14193,6506.3199999854,"re","re",1,9,"^3_^4_v2_v7_^1_^2_^3_3_^4",3
"547",14193,1501.69500003755,"ti","ti",1,9,"^3_^4_v2_v7_^1_^2_^3_3_^4",4
"548",14193,656.125000037253,"do","do",1,9,"^3_^4_v2_v7_^1_^2_^3_3_^4",5
"549",14193,1409.24000000954,"mi","re",0,9,"^3_^4_v2_v7_^1_^2_^3_3_^4",6
"550",14193,609.315000012517,"re","mi",0,9,"^3_^4_v2_v7_^1_^2_^3_3_^4",7
"551",14193,1697.17499998212,"do","mi",0,9,"^3_^4_v2_v7_^1_^2_^3_3_^4",8
"552",14193,610.835000000894,"re","fa",0,9,"^3_^4_v2_v7_^1_^2_^3_3_^4",9
"553",14193,3145.32499998808,"re","re",1,9,"^2_^3_^4_^5_^6_v5_v4_v3_v2",1
"554",14193,656.955000013113,"mi","mi",1,9,"^2_^3_^4_^5_^6_v5_v4_v3_v2",2
"555",14193,741.535000041127,"fa","fa",1,9,"^2_^3_^4_^5_^6_v5_v4_v3_v2",3
"556",14193,530.924999967217,"sol","sol",1,9,"^2_^3_^4_^5_^6_v5_v4_v3_v2",4
"557",14193,993.34500002861,"la","la",1,9,"^2_^3_^4_^5_^6_v5_v4_v3_v2",5
"558",14193,530.875000052154,"sol","sol",1,9,"^2_^3_^4_^5_^6_v5_v4_v3_v2",6
"559",14193,680.975000023842,"fa","fa",1,9,"^2_^3_^4_^5_^6_v5_v4_v3_v2",7
"560",14193,1227.14500001073,"mi","mi",1,9,"^2_^3_^4_^5_^6_v5_v4_v3_v2",8
"561",14193,1893.02499999851,"re","re",1,9,"^2_^3_^4_^5_^6_v5_v4_v3_v2",9
"562",14193,2957.97000005096,"sol","sol",1,9,"^5_^6_v5_v4_v3_v2_v1_^2_^3",1
"563",14193,656.580000013113,"la","la",1,9,"^5_^6_v5_v4_v3_v2_v1_^2_^3",2
"564",14193,547.420000016689,"sol","sol",1,9,"^5_^6_v5_v4_v3_v2_v1_^2_^3",3
"565",14193,648.790000006557,"fa","fa",1,9,"^5_^6_v5_v4_v3_v2_v1_^2_^3",4
"566",14193,608.925000011921,"mi","mi",1,9,"^5_^6_v5_v4_v3_v2_v1_^2_^3",5
"567",14193,640.789999976754,"re","re",1,9,"^5_^6_v5_v4_v3_v2_v1_^2_^3",6
"568",14193,494.040000021458,"do","do",1,9,"^5_^6_v5_v4_v3_v2_v1_^2_^3",7
"569",14193,820.44999999553,"re","re",1,9,"^5_^6_v5_v4_v3_v2_v1_^2_^3",8
"570",14193,625.520000003278,"mi","mi",1,9,"^5_^6_v5_v4_v3_v2_v1_^2_^3",9
"571",14193,8140.01999999583,"mi","re",0,9,"^2_^4_v3_v2_v1_v3_v2+_^3_^5+",1
"572",14193,525.380000002682,"fa","fa",1,9,"^2_^4_v3_v2_v1_v3_v2+_^3_^5+",2
"573",14193,530.005000010133,"mi","mi",1,9,"^2_^4_v3_v2_v1_v3_v2+_^3_^5+",3
"574",14193,608.469999976456,"re","re",1,9,"^2_^4_v3_v2_v1_v3_v2+_^3_^5+",4
"575",14193,1813.91000002623,"do","do",1,9,"^2_^4_v3_v2_v1_v3_v2+_^3_^5+",5
"576",14193,1307.05000000447,"te","mi",0,9,"^2_^4_v3_v2_v1_v3_v2+_^3_^5+",6
"577",14193,985.079999953508,"ti","me",0,9,"^2_^4_v3_v2_v1_v3_v2+_^3_^5+",7
"578",14193,743.035000048578,"la","mi",0,9,"^2_^4_v3_v2_v1_v3_v2+_^3_^5+",8
"579",14193,390.92000003159,"do","le",0,9,"^2_^4_v3_v2_v1_v3_v2+_^3_^5+",9
"580",14193,2800.96500000358,"mi","mi",1,9,"^3_^4_^5_^6_v5_v4_v3_v2_v1",1
"581",14193,633.114999979734,"fa","fa",1,9,"^3_^4_^5_^6_v5_v4_v3_v2_v1",2
"582",14193,689.534999959171,"sol","sol",1,9,"^3_^4_^5_^6_v5_v4_v3_v2_v1",3
"583",14193,1502.24499998242,"la","la",1,9,"^3_^4_^5_^6_v5_v4_v3_v2_v1",4
"584",14193,553.24500001967,"sol","sol",1,9,"^3_^4_^5_^6_v5_v4_v3_v2_v1",5
"585",14193,1047.53499996662,"fa","fa",1,9,"^3_^4_^5_^6_v5_v4_v3_v2_v1",6
"586",14193,476.844999998808,"mi","mi",1,9,"^3_^4_^5_^6_v5_v4_v3_v2_v1",7
"587",14193,719.974999956787,"re","re",1,9,"^3_^4_^5_^6_v5_v4_v3_v2_v1",8
"588",14193,602.119999989867,"do","do",1,9,"^3_^4_^5_^6_v5_v4_v3_v2_v1",9
"589",14193,6322.61000002921,"sol","sol",1,9,"v5_v4_v6+_^7_^3+_v3_v2_v5_^4",1
"590",14193,1274.40500003099,"la","fa",0,9,"v5_v4_v6+_^7_^3+_v3_v2_v5_^4",2
"591",14193,570.880000017583,"sol","te",0,9,"v5_v4_v6+_^7_^3+_v3_v2_v5_^4",3
"592",14193,860.760000012815,"fa","ti",0,9,"v5_v4_v6+_^7_^3+_v3_v2_v5_^4",4
"593",14193,1353.59499999136,"me","mi",0,9,"v5_v4_v6+_^7_^3+_v3_v2_v5_^4",5
"594",14193,1204.65000002831,"re","mi",0,9,"v5_v4_v6+_^7_^3+_v3_v2_v5_^4",6
"595",14193,1831.31999999285,"la","re",0,9,"v5_v4_v6+_^7_^3+_v3_v2_v5_^4",7
"596",14193,2175.34499999881,"ti","sol",0,9,"v5_v4_v6+_^7_^3+_v3_v2_v5_^4",8
"597",14193,4860.68499996513,"mi","fa",0,9,"v5_v4_v6+_^7_^3+_v3_v2_v5_^4",9
"598",22189,8895.46499995049,"re","mi",0,2,"3_^6",1
"599",22189,5564.97000006493,"sol","la",0,2,"3_^6",2
"600",22189,14950.9799999651,"mi","mi",1,2,"v3_v2",1
"601",22189,903.240000014193,"re","re",1,2,"v3_v2",2
"602",22189,3822.56999996025,"do","re",0,2,"^2_v7-",1
"603",22189,17797.6100000087,"sol","te",0,2,"^2_v7-",2
"604",22189,11954.9549999647,"la","sol",0,2,"v5_v1+",1
"605",22189,19848.2749999966,"re","ra",0,2,"v5_v1+",2
"606",22189,11023.0549999978,"re","sol",0,2,"^5_^1+",1
"607",22189,3861.91500001587,"le","ra",0,2,"^5_^1+",2
"608",22189,34501.569999964,"le","mi",0,2,"^3_v4+",1
"609",22189,840.169999981299,"la","fi",0,2,"^3_v4+",2
"610",22189,27795.8050000016,"fa","fa",1,2,"v4_v3",1
"611",22189,5164.21499999706,"mi","mi",1,2,"v4_v3",2
"612",22189,14180.534999934,"fi","ti",0,2,"v7_v3",1
"613",22189,1671.36999999639,"ra","mi",0,2,"v7_v3",2
"614",22189,1553.31499991007,"do","do",1,2,"^1_^2+",1
"615",22189,5882.40000000224,"me","me",1,2,"^1_^2+",2
"616",22189,3452.98499998171,"ra","re",0,2,"v2_v1",1
"617",22189,2218.28999998979,"ti","do",0,2,"v2_v1",2
"618",22189,11433.480000007,"do","do",1,3,"^1_v6_v5+",1
"619",22189,8025.44999995735,"te","la",0,3,"^1_v6_v5+",2
"620",22189,1239.09500008449,"la","le",0,3,"^1_v6_v5+",3
"621",22189,13680.8650000021,"do","do",1,3,"v1_v7-_^7",1
"622",22189,2585.59999999125,"la","te",0,3,"v1_v7-_^7",2
"623",22189,605.045000091195,"te","ti",0,3,"v1_v7-_^7",3
"624",22189,8118.00999997649,"re","do",0,3,"1_v1+_^2",1
"625",22189,520.549999899231,"me","ra",0,3,"1_v1+_^2",2
"626",22189,540.440000011586,"mi","re",0,3,"1_v1+_^2",3
"627",22189,22899.3300000438,"do","la",0,3,"6_^1_v5",1
"628",22189,4531.33999998681,"mi","do",0,3,"6_^1_v5",2
"629",22189,563.419999903999,"fa","sol",0,3,"6_^1_v5",3
"630",22189,19301.7100000288,"do","re",0,3,"v2_v5_^3",1
"631",22189,1512.86500005517,"sol","sol",1,3,"v2_v5_^3",2
"632",22189,1262.89999997243,"mi","mi",1,3,"v2_v5_^3",3
"633",22189,21087.5450000167,"fa","fa",1,3,"v4_v3_v2",1
"634",22189,738.060000003316,"mi","mi",1,3,"v4_v3_v2",2
"635",22189,711.24500001315,"re","re",1,3,"v4_v3_v2",3
"636",22189,2030.03999998327,"mi","mi",1,3,"v3_v2_v1",1
"637",22189,660.885000019334,"re","re",1,3,"v3_v2_v1",2
"638",22189,767.529999953695,"do","do",1,3,"v3_v2_v1",3
"639",22189,11262.1250000084,"sol","sol",1,3,"v5_v4_v3",1
"640",22189,1684.44499990437,"fa","fa",1,3,"v5_v4_v3",2
"641",22189,1593.24000007473,"mi","mi",1,3,"v5_v4_v3",3
"642",22189,27495.0749999844,"me","do",0,3,"v1_v7-_v7-",1
"643",22189,1305.92499999329,"do","te",0,3,"v1_v7-_v7-",2
"644",22189,611.890000058338,"do","te",0,3,"v1_v7-_v7-",3
"645",22189,17878.7399999565,"me","fi",0,5,"v5-_v3_3_^4+_v3",1
"646",22189,1011.6299999645,"re","mi",0,5,"v5-_v3_3_^4+_v3",2
"647",22189,454.524999950081,"re","mi",0,5,"v5-_v3_3_^4+_v3",3
"648",22189,561.744999955408,"me","fi",0,5,"v5-_v3_3_^4+_v3",4
"649",22189,575.454999925569,"re","mi",0,5,"v5-_v3_3_^4+_v3",5
"650",22189,2341.86500008218,"sol","sol",1,5,"v5_v4_v3_v2_v1",1
"651",22189,941.684999968857,"fa","fa",1,5,"v5_v4_v3_v2_v1",2
"652",22189,940.760000026785,"mi","mi",1,5,"v5_v4_v3_v2_v1",3
"653",22189,833.059999975376,"re","re",1,5,"v5_v4_v3_v2_v1",4
"654",22189,928.550000069663,"do","do",1,5,"v5_v4_v3_v2_v1",5
"655",22189,14346.8700000085,"sol","sol",1,5,"^5_^6_v5_v4_v3",1
"656",22189,1563.44000005629,"fa","la",0,5,"^5_^6_v5_v4_v3",2
"657",22189,3259.84499999322,"sol","sol",1,5,"^5_^6_v5_v4_v3",3
"658",22189,952.129999990575,"fa","fa",1,5,"^5_^6_v5_v4_v3",4
"659",22189,540.670000016689,"mi","mi",1,5,"^5_^6_v5_v4_v3",5
"660",22189,2231.68000008445,"sol","sol",1,5,"v5_v4_v3_v2_v1",6
"661",22189,1026.91000001505,"fa","fa",1,5,"v5_v4_v3_v2_v1",7
"662",22189,561.814999906346,"mi","mi",1,5,"v5_v4_v3_v2_v1",8
"663",22189,661.784999887459,"re","re",1,5,"v5_v4_v3_v2_v1",9
"664",22189,755.284999962896,"do","do",1,5,"v5_v4_v3_v2_v1",10
"665",22189,6107.90999990422,"ra","re",0,5,"v2_2_^3_^4_v2",1
"666",22189,765.485000098124,"ra","re",0,5,"v2_2_^3_^4_v2",2
"667",22189,5651.37500001583,"me","mi",0,5,"v2_2_^3_^4_v2",3
"668",22189,6587.65999996103,"mi","fa",0,5,"v2_2_^3_^4_v2",4
"669",22189,5072.71000009496,"ra","re",0,5,"v2_2_^3_^4_v2",5
"670",22189,22689.1900000628,"la","la",1,5,"^6_v4_v3_^4_^5",1
"671",22189,1649.5049999794,"sol","fa",0,5,"^6_v4_v3_^4_^5",2
"672",22189,1248.54499998037,"fa","mi",0,5,"^6_v4_v3_^4_^5",3
"673",22189,1097.84000006039,"mi","fa",0,5,"^6_v4_v3_^4_^5",4
"674",22189,1564.49500005692,"me","sol",0,5,"^6_v4_v3_^4_^5",5
"675",22189,23778.5999999614,"la","la",1,5,"^6_v5_v4_v3_v2",1
"676",22189,832.554999971762,"sol","sol",1,5,"^6_v5_v4_v3_v2",2
"677",22189,740.044999984093,"fa","fa",1,5,"^6_v5_v4_v3_v2",3
"678",22189,1665.06999998819,"mi","mi",1,5,"^6_v5_v4_v3_v2",4
"679",22189,948.949999990873,"re","re",1,5,"^6_v5_v4_v3_v2",5
"680",22189,16619.2049999954,"fa","sol",0,5,"v5_^6+_^7_^1_5",1
"681",22189,346.209999988787,"fa","te",0,5,"v5_^6+_^7_^1_5",2
"682",22189,1399.92499991786,"sol","ti",0,5,"v5_^6+_^7_^1_5",3
"683",22189,5701.2050000485,"le","do",0,5,"v5_^6+_^7_^1_5",4
"684",22189,810.749999945983,"fa","sol",0,5,"v5_^6+_^7_^1_5",5
"685",22189,18177.7800000273,"fa","la",0,7,"^6_v5+_v4_^5+_v3_v1_v7-",1
"686",22189,1141.13000000361,"me","le",0,7,"^6_v5+_v4_^5+_v3_v1_v7-",2
"687",22189,2771.7699999921,"re","fa",0,7,"^6_v5+_v4_^5+_v3_v1_v7-",3
"688",22189,927.219999954104,"do","le",0,7,"^6_v5+_v4_^5+_v3_v1_v7-",4
"689",22189,2352.04500006512,"la","mi",0,7,"^6_v5+_v4_^5+_v3_v1_v7-",5
"690",22189,694.825000013225,"ti","do",0,7,"^6_v5+_v4_^5+_v3_v1_v7-",6
"691",22189,1105.01499997918,"la","te",0,7,"^6_v5+_v4_^5+_v3_v1_v7-",7
"692",22189,5405.69000004325,"re","fa",0,7,"^4_^5_^6_v5_v4_v3_v2",1
"693",22189,838.909999933094,"mi","sol",0,7,"^4_^5_^6_v5_v4_v3_v2",2
"694",22189,669.484999962151,"re","la",0,7,"^4_^5_^6_v5_v4_v3_v2",3
"695",22189,654.53499997966,"do","sol",0,7,"^4_^5_^6_v5_v4_v3_v2",4
"696",22189,1628.34000005387,"ti","fa",0,7,"^4_^5_^6_v5_v4_v3_v2",5
"697",22189,583.220000029542,"la","mi",0,7,"^4_^5_^6_v5_v4_v3_v2",6
"698",22189,1391.98499999475,"sol","re",0,7,"^4_^5_^6_v5_v4_v3_v2",7
"699",22189,1264.96999990195,"do","do",1,7,"^1_v7_v6_v5_v4_v3_v2",1
"700",22189,669.755000039004,"ti","ti",1,7,"^1_v7_v6_v5_v4_v3_v2",2
"701",22189,633.085000095889,"la","la",1,7,"^1_v7_v6_v5_v4_v3_v2",3
"702",22189,632.759999949485,"sol","sol",1,7,"^1_v7_v6_v5_v4_v3_v2",4
"703",22189,762.204999919049,"fa","fa",1,7,"^1_v7_v6_v5_v4_v3_v2",5
"704",22189,690.850000013597,"mi","mi",1,7,"^1_v7_v6_v5_v4_v3_v2",6
"705",22189,2366.8399999151,"re","re",1,7,"^1_v7_v6_v5_v4_v3_v2",7
"706",22189,4479.25500001293,"la","fa",0,7,"^4_v6-_v5-_^6-_^4_v2-_2-",1
"707",22189,976.165000000037,"re","le",0,7,"^4_v6-_v5-_^6-_^4_v2-_2-",2
"708",22189,796.400000108406,"mi","fi",0,7,"^4_v6-_v5-_^6-_^4_v2-_2-",3
"709",22189,1891.44500007387,"re","le",0,7,"^4_v6-_v5-_^6-_^4_v2-_2-",4
"710",22189,1048.56999998447,"la","fa",0,7,"^4_v6-_v5-_^6-_^4_v2-_2-",5
"711",22189,1479.50499993749,"fi","ra",0,7,"^4_v6-_v5-_^6-_^4_v2-_2-",6
"712",22189,517.735000001267,"fi","ra",0,7,"^4_v6-_v5-_^6-_^4_v2-_2-",7
"713",22189,1461.81000000797,"me","do",0,7,"1_^3_v1_^5_v3_v2_^3",1
"714",22189,1173.13500004821,"ti","mi",0,7,"1_^3_v1_^5_v3_v2_^3",2
"715",22189,765.654999995604,"le","do",0,7,"1_^3_v1_^5_v3_v2_^3",3
"716",22189,856.904999935068,"fi","sol",0,7,"1_^3_v1_^5_v3_v2_^3",4
"717",22189,667.765000020154,"le","mi",0,7,"1_^3_v1_^5_v3_v2_^3",5
"718",22189,2423.53999998886,"fi","re",0,7,"1_^3_v1_^5_v3_v2_^3",6
"719",22189,1701.20999997016,"te","mi",0,7,"1_^3_v1_^5_v3_v2_^3",7
"720",22189,10592.1700000763,"sol","sol",1,7,"^5_^6_v5_v4_v3_v2_v1",1
"721",22189,901.169999968261,"la","la",1,7,"^5_^6_v5_v4_v3_v2_v1",2
"722",22189,675.879999995232,"sol","sol",1,7,"^5_^6_v5_v4_v3_v2_v1",3
"723",22189,713.034999906085,"fa","fa",1,7,"^5_^6_v5_v4_v3_v2_v1",4
"724",22189,1033.70000002906,"re","mi",0,7,"^5_^6_v5_v4_v3_v2_v1",5
"725",22189,791.489999974146,"do","re",0,7,"^5_^6_v5_v4_v3_v2_v1",6
"726",22189,626.784999971278,"do","do",1,7,"^5_^6_v5_v4_v3_v2_v1",7
"727",22189,5036.6300001042,"te","do",0,7,"v1_^2_v1_v7_^1_^3_v2",1
"728",22189,1236.74000008032,"do","re",0,7,"v1_^2_v1_v7_^1_^3_v2",2
"729",22189,559.705000021495,"te","do",0,7,"v1_^2_v1_v7_^1_^3_v2",3
"730",22189,641.735000070184,"le","ti",0,7,"v1_^2_v1_v7_^1_^3_v2",4
"731",22189,933.184999972582,"fa","do",0,7,"v1_^2_v1_v7_^1_^3_v2",5
"732",22189,740.519999992102,"le","mi",0,7,"v1_^2_v1_v7_^1_^3_v2",6
"733",22189,1491.50999996345,"sol","re",0,7,"v1_^2_v1_v7_^1_^3_v2",7
"734",22189,4003.35999997333,"do","ti",0,9,"v7_v6_v5_^6_v5_v4_^5_^6_v5",1
"735",22189,2315.16500003636,"te","la",0,9,"v7_v6_v5_^6_v5_v4_^5_^6_v5",2
"736",22189,1522.62000006158,"do","sol",0,9,"v7_v6_v5_^6_v5_v4_^5_^6_v5",3
"737",22189,696.409999975003,"te","la",0,9,"v7_v6_v5_^6_v5_v4_^5_^6_v5",4
"738",22189,912.600000039674,"le","sol",0,9,"v7_v6_v5_^6_v5_v4_^5_^6_v5",5
"739",22189,1699.3149999762,"fi","fa",0,9,"v7_v6_v5_^6_v5_v4_^5_^6_v5",6
"740",22189,861.83000006713,"le","sol",0,9,"v7_v6_v5_^6_v5_v4_^5_^6_v5",7
"741",22189,1078.28500005417,"fi","la",0,9,"v7_v6_v5_^6_v5_v4_^5_^6_v5",8
"742",22189,769.854999962263,"fa","sol",0,9,"v7_v6_v5_^6_v5_v4_^5_^6_v5",9
"743",22189,2716.04500000831,"fa","mi",0,9,"^3_^4_v2_v7_^1_^2_^3_3_^4",1
"744",22189,772.035000030883,"sol","fa",0,9,"^3_^4_v2_v7_^1_^2_^3_3_^4",2
"745",22189,574.619999970309,"fa","re",0,9,"^3_^4_v2_v7_^1_^2_^3_3_^4",3
"746",22189,2051.46499990951,"re","ti",0,9,"^3_^4_v2_v7_^1_^2_^3_3_^4",4
"747",22189,1907.04499999993,"mi","do",0,9,"^3_^4_v2_v7_^1_^2_^3_3_^4",5
"748",22189,577.580000041053,"re","re",1,9,"^3_^4_v2_v7_^1_^2_^3_3_^4",6
"749",22189,661.730000050738,"do","mi",0,9,"^3_^4_v2_v7_^1_^2_^3_3_^4",7
"750",22189,551.74500006251,"re","mi",0,9,"^3_^4_v2_v7_^1_^2_^3_3_^4",8
"751",22189,790.299999993294,"mi","fa",0,9,"^3_^4_v2_v7_^1_^2_^3_3_^4",9
"752",22189,1363.43500006478,"do","sol",0,9,"v5_v4_v6+_^7_^3+_v3_v2_v5_^4",1
"753",22189,531.929999939166,"ti","fa",0,9,"v5_v4_v6+_^7_^3+_v3_v2_v5_^4",2
"754",22189,809.149999986403,"fi","te",0,9,"v5_v4_v6+_^7_^3+_v3_v2_v5_^4",3
"755",22189,1327.47000001837,"te","ti",0,9,"v5_v4_v6+_^7_^3+_v3_v2_v5_^4",4
"756",22189,746.805000002496,"le","mi",0,9,"v5_v4_v6+_^7_^3+_v3_v2_v5_^4",5
"757",22189,1071.01499999408,"me","mi",0,9,"v5_v4_v6+_^7_^3+_v3_v2_v5_^4",6
"758",22189,1306.37499992736,"sol","re",0,9,"v5_v4_v6+_^7_^3+_v3_v2_v5_^4",7
"759",22189,554.810000001453,"fi","sol",0,9,"v5_v4_v6+_^7_^3+_v3_v2_v5_^4",8
"760",22189,1213.23999995366,"re","fa",0,9,"v5_v4_v6+_^7_^3+_v3_v2_v5_^4",9
"761",22189,1651.25999995507,"re","re",1,9,"^2_^4_v3_v2_v1_v3_v2+_^3_^5+",1
"762",22189,814.110000035726,"te","fa",0,9,"^2_^4_v3_v2_v1_v3_v2+_^3_^5+",2
"763",22189,1083.23500002734,"la","mi",0,9,"^2_^4_v3_v2_v1_v3_v2+_^3_^5+",3
"764",22189,1700.52499999292,"sol","re",0,9,"^2_^4_v3_v2_v1_v3_v2+_^3_^5+",4
"765",22189,925.979999941774,"fa","do",0,9,"^2_^4_v3_v2_v1_v3_v2+_^3_^5+",5
"766",22189,675.285000004806,"le","mi",0,9,"^2_^4_v3_v2_v1_v3_v2+_^3_^5+",6
"767",22189,625.024999957532,"sol","me",0,9,"^2_^4_v3_v2_v1_v3_v2+_^3_^5+",7
"768",22189,648.010000004433,"mi","mi",1,9,"^2_^4_v3_v2_v1_v3_v2+_^3_^5+",8
"769",22189,857.390000019222,"re","le",0,9,"^2_^4_v3_v2_v1_v3_v2+_^3_^5+",9
"770",22189,2410.96999996807,"sol","sol",1,9,"^5_^6_v5_v4_v3_v2_v1_^2_^3",1
"771",22189,590.059999958612,"la","la",1,9,"^5_^6_v5_v4_v3_v2_v1_^2_^3",2
"772",22189,1040.76499992516,"sol","sol",1,9,"^5_^6_v5_v4_v3_v2_v1_^2_^3",3
"773",22189,740.434999926947,"fa","fa",1,9,"^5_^6_v5_v4_v3_v2_v1_^2_^3",4
"774",22189,741.049999953248,"mi","mi",1,9,"^5_^6_v5_v4_v3_v2_v1_^2_^3",5
"775",22189,848.35500002373,"re","re",1,9,"^5_^6_v5_v4_v3_v2_v1_^2_^3",6
"776",22189,1592.79499994591,"do","do",1,9,"^5_^6_v5_v4_v3_v2_v1_^2_^3",7
"777",22189,725.609999964945,"re","re",1,9,"^5_^6_v5_v4_v3_v2_v1_^2_^3",8
"778",22189,683.770000003278,"mi","mi",1,9,"^5_^6_v5_v4_v3_v2_v1_^2_^3",9
"779",22189,16950.130000012,"do","re",0,9,"^2_^3_^4_^5_^6_v5_v4_v3_v2",1
"780",22189,655.660000047646,"re","mi",0,9,"^2_^3_^4_^5_^6_v5_v4_v3_v2",2
"781",22189,510.540000046603,"me","fa",0,9,"^2_^3_^4_^5_^6_v5_v4_v3_v2",3
"782",22189,719.144999980927,"fa","sol",0,9,"^2_^3_^4_^5_^6_v5_v4_v3_v2",4
"783",22189,770.295000053011,"sol","la",0,9,"^2_^3_^4_^5_^6_v5_v4_v3_v2",5
"784",22189,740.699999965727,"fa","sol",0,9,"^2_^3_^4_^5_^6_v5_v4_v3_v2",6
"785",22189,733.224999974482,"me","fa",0,9,"^2_^3_^4_^5_^6_v5_v4_v3_v2",7
"786",22189,612.959999940358,"re","mi",0,9,"^2_^3_^4_^5_^6_v5_v4_v3_v2",8
"787",22189,1262.88000005297,"do","re",0,9,"^2_^3_^4_^5_^6_v5_v4_v3_v2",9
"788",22189,2581.14499994554,"fa","mi",0,9,"^3_^4_^5_^6_v5_v4_v3_v2_v1",1
"789",22189,3253.81999998353,"sol","fa",0,9,"^3_^4_^5_^6_v5_v4_v3_v2_v1",2
"790",22189,1005.34999999218,"fa","sol",0,9,"^3_^4_^5_^6_v5_v4_v3_v2_v1",3
"791",22189,1320.4600000754,"mi","la",0,9,"^3_^4_^5_^6_v5_v4_v3_v2_v1",4
"792",22189,915.860000066459,"re","sol",0,9,"^3_^4_^5_^6_v5_v4_v3_v2_v1",5
"793",22189,2889.36999998987,"do","fa",0,9,"^3_^4_^5_^6_v5_v4_v3_v2_v1",6
"794",22189,1055.64499995671,"la","mi",0,9,"^3_^4_^5_^6_v5_v4_v3_v2_v1",7
"795",22189,776.799999992363,"sol","re",0,9,"^3_^4_^5_^6_v5_v4_v3_v2_v1",8
"796",22189,590.304999961518,"la","do",0,9,"^3_^4_^5_^6_v5_v4_v3_v2_v1",9
"797",31141,1300,"fa","fa",1,2,"v4_v3",1
"798",31141,595,"mi","mi",1,2,"v4_v3",2
"799",31141,1353,"mi","mi",1,2,"3_^6",1
"800",31141,832,"la","la",1,2,"3_^6",2
"801",31141,1259,"mi","mi",1,2,"^3_v4+",1
"802",31141,675,"fi","fi",1,2,"^3_v4+",2
"803",31141,1239,"re","re",1,2,"v2_v1",1
"804",31141,774,"do","do",1,2,"v2_v1",2
"805",31141,1673,"mi","mi",1,2,"v3_v2",1
"806",31141,786,"re","re",1,2,"v3_v2",2
"807",31141,1496,"sol","sol",1,2,"^5_^1+",1
"808",31141,853,"ra","ra",1,2,"^5_^1+",2
"809",31141,2154,"ti","ti",1,2,"v7_v3",1
"810",31141,1270,"mi","mi",1,2,"v7_v3",2
"811",31141,873,"do","do",1,2,"^1_^2+",1
"812",31141,854,"me","me",1,2,"^1_^2+",2
"813",31141,2900,"sol","sol",1,2,"v5_v1+",1
"814",31141,1293,"ra","ra",1,2,"v5_v1+",2
"815",31141,1465,"re","re",1,2,"^2_v7-",1
"816",31141,1090,"te","te",1,2,"^2_v7-",2
"817",31141,986,"do","do",1,3,"v1_v7-_v7-",1
"818",31141,1336,"te","te",1,3,"v1_v7-_v7-",2
"819",31141,483,"te","te",1,3,"v1_v7-_v7-",3
"820",31141,1801,"la","la",1,3,"6_^1_v5",1
"821",31141,887,"do","do",1,3,"6_^1_v5",2
"822",31141,910,"sol","sol",1,3,"6_^1_v5",3
"823",31141,938,"do","do",1,3,"v1_v7-_^7",1
"824",31141,674,"te","te",1,3,"v1_v7-_^7",2
"825",31141,1045,"ti","ti",1,3,"v1_v7-_^7",3
"826",31141,1239,"mi","mi",1,3,"v3_v2_v1",1
"827",31141,730,"re","re",1,3,"v3_v2_v1",2
"828",31141,640,"do","do",1,3,"v3_v2_v1",3
"829",31141,1270,"fa","fa",1,3,"v4_v3_v2",1
"830",31141,505,"mi","mi",1,3,"v4_v3_v2",2
"831",31141,730,"re","re",1,3,"v4_v3_v2",3
"832",31141,1617,"do","do",1,3,"^1_v6_v5+",1
"833",31141,877,"la","la",1,3,"^1_v6_v5+",2
"834",31141,674,"le","le",1,3,"^1_v6_v5+",3
"835",31141,1324,"sol","sol",1,3,"v5_v4_v3",1
"836",31141,696,"fa","fa",1,3,"v5_v4_v3",2
"837",31141,527,"mi","mi",1,3,"v5_v4_v3",3
"838",31141,2989,"do","do",1,3,"1_v1+_^2",1
"839",31141,1080,"ra","ra",1,3,"1_v1+_^2",2
"840",31141,1057,"re","re",1,3,"1_v1+_^2",3
"841",31141,1616,"re","re",1,3,"v2_v5_^3",1
"842",31141,1044,"sol","sol",1,3,"v2_v5_^3",2
"843",31141,1260,"mi","mi",1,3,"v2_v5_^3",3
"844",31141,1318,"la","la",1,5,"^6_v5_v4_v3_v2",1
"845",31141,595,"sol","sol",1,5,"^6_v5_v4_v3_v2",2
"846",31141,617,"fa","fa",1,5,"^6_v5_v4_v3_v2",3
"847",31141,628,"mi","mi",1,5,"^6_v5_v4_v3_v2",4
"848",31141,628,"re","re",1,5,"^6_v5_v4_v3_v2",5
"849",31141,1224,"sol","sol",1,5,"v5_v4_v3_v2_v1",1
"850",31141,505,"fa","fa",1,5,"v5_v4_v3_v2_v1",2
"851",31141,662,"mi","mi",1,5,"v5_v4_v3_v2_v1",3
"852",31141,483,"re","re",1,5,"v5_v4_v3_v2_v1",4
"853",31141,449,"do","do",1,5,"v5_v4_v3_v2_v1",5
"854",31141,1166,"sol","sol",1,5,"^5_^6_v5_v4_v3",1
"855",31141,550,"la","la",1,5,"^5_^6_v5_v4_v3",2
"856",31141,764,"sol","sol",1,5,"^5_^6_v5_v4_v3",3
"857",31141,641,"fa","fa",1,5,"^5_^6_v5_v4_v3",4
"858",31141,798,"mi","mi",1,5,"^5_^6_v5_v4_v3",5
"859",31141,1112,"sol","sol",1,5,"v5_v4_v3_v2_v1",6
"860",31141,618,"fa","fa",1,5,"v5_v4_v3_v2_v1",7
"861",31141,495,"mi","mi",1,5,"v5_v4_v3_v2_v1",8
"862",31141,697,"re","re",1,5,"v5_v4_v3_v2_v1",9
"863",31141,539,"do","do",1,5,"v5_v4_v3_v2_v1",10
"864",31141,1867,"fi","fi",1,5,"v5-_v3_3_^4+_v3",1
"865",31141,752,"mi","mi",1,5,"v5-_v3_3_^4+_v3",2
"866",31141,482,"mi","mi",1,5,"v5-_v3_3_^4+_v3",3
"867",31141,765,"fi","fi",1,5,"v5-_v3_3_^4+_v3",4
"868",31141,890,"mi","mi",1,5,"v5-_v3_3_^4+_v3",5
"869",31141,1029,"re","re",1,5,"v2_2_^3_^4_v2",1
"870",31141,606,"re","re",1,5,"v2_2_^3_^4_v2",2
"871",31141,1236,"mi","mi",1,5,"v2_2_^3_^4_v2",3
"872",31141,584,"fa","fa",1,5,"v2_2_^3_^4_v2",4
"873",31141,753,"re","re",1,5,"v2_2_^3_^4_v2",5
"874",31141,1164,"sol","sol",1,5,"v5_^6+_^7_^1_5",1
"875",31141,629,"la","te",0,5,"v5_^6+_^7_^1_5",2
"876",31141,641,"ti","ti",1,5,"v5_^6+_^7_^1_5",3
"877",31141,550,"do","do",1,5,"v5_^6+_^7_^1_5",4
"878",31141,966,"sol","sol",1,5,"v5_^6+_^7_^1_5",5
"879",31141,1908,"la","la",1,5,"^6_v4_v3_^4_^5",1
"880",31141,933,"fa","fa",1,5,"^6_v4_v3_^4_^5",2
"881",31141,674,"mi","mi",1,5,"^6_v4_v3_^4_^5",3
"882",31141,674,"fa","fa",1,5,"^6_v4_v3_^4_^5",4
"883",31141,696,"sol","sol",1,5,"^6_v4_v3_^4_^5",5
"884",31141,1111,"sol","sol",1,7,"^5_^6_v5_v4_v3_v2_v1",1
"885",31141,608,"la","la",1,7,"^5_^6_v5_v4_v3_v2_v1",2
"886",31141,695,"sol","sol",1,7,"^5_^6_v5_v4_v3_v2_v1",3
"887",31141,573,"fa","fa",1,7,"^5_^6_v5_v4_v3_v2_v1",4
"888",31141,505,"mi","mi",1,7,"^5_^6_v5_v4_v3_v2_v1",5
"889",31141,629,"re","re",1,7,"^5_^6_v5_v4_v3_v2_v1",6
"890",31141,483,"do","do",1,7,"^5_^6_v5_v4_v3_v2_v1",7
"891",31141,1486,"do","do",1,7,"1_^3_v1_^5_v3_v2_^3",1
"892",31141,1022,"re","mi",0,7,"1_^3_v1_^5_v3_v2_^3",2
"893",31141,664,"do","do",1,7,"1_^3_v1_^5_v3_v2_^3",3
"894",31141,956,"sol","sol",1,7,"1_^3_v1_^5_v3_v2_^3",4
"895",31141,967,"mi","mi",1,7,"1_^3_v1_^5_v3_v2_^3",5
"896",31141,687,"re","re",1,7,"1_^3_v1_^5_v3_v2_^3",6
"897",31141,718,"mi","mi",1,7,"1_^3_v1_^5_v3_v2_^3",7
"898",31141,918,"do","do",1,7,"^1_v7_v6_v5_v4_v3_v2",1
"899",31141,449,"ti","ti",1,7,"^1_v7_v6_v5_v4_v3_v2",2
"900",31141,470,"la","la",1,7,"^1_v7_v6_v5_v4_v3_v2",3
"901",31141,561,"sol","sol",1,7,"^1_v7_v6_v5_v4_v3_v2",4
"902",31141,484,"fa","fa",1,7,"^1_v7_v6_v5_v4_v3_v2",5
"903",31141,1057,"mi","mi",1,7,"^1_v7_v6_v5_v4_v3_v2",6
"904",31141,607,"re","re",1,7,"^1_v7_v6_v5_v4_v3_v2",7
"905",31141,42965,"fa","fa",1,7,"^4_v6-_v5-_^6-_^4_v2-_2-",1
"906",31141,898,"le","le",1,7,"^4_v6-_v5-_^6-_^4_v2-_2-",2
"907",31141,833,"fi","fi",1,7,"^4_v6-_v5-_^6-_^4_v2-_2-",3
"908",31141,831,"le","le",1,7,"^4_v6-_v5-_^6-_^4_v2-_2-",4
"909",31141,990,"fa","fa",1,7,"^4_v6-_v5-_^6-_^4_v2-_2-",5
"910",31141,652,"ra","ra",1,7,"^4_v6-_v5-_^6-_^4_v2-_2-",6
"911",31141,606,"ra","ra",1,7,"^4_v6-_v5-_^6-_^4_v2-_2-",7
"912",31141,1490,"fa","fa",1,7,"^4_^5_^6_v5_v4_v3_v2",1
"913",31141,1101,"sol","sol",1,7,"^4_^5_^6_v5_v4_v3_v2",2
"914",31141,606,"la","la",1,7,"^4_^5_^6_v5_v4_v3_v2",3
"915",31141,562,"sol","sol",1,7,"^4_^5_^6_v5_v4_v3_v2",4
"916",31141,628,"fa","fa",1,7,"^4_^5_^6_v5_v4_v3_v2",5
"917",31141,504,"mi","mi",1,7,"^4_^5_^6_v5_v4_v3_v2",6
"918",31141,551,"re","re",1,7,"^4_^5_^6_v5_v4_v3_v2",7
"919",31141,1115,"do","do",1,7,"v1_^2_v1_v7_^1_^3_v2",1
"920",31141,662,"re","re",1,7,"v1_^2_v1_v7_^1_^3_v2",2
"921",31141,753,"do","do",1,7,"v1_^2_v1_v7_^1_^3_v2",3
"922",31141,921,"ti","ti",1,7,"v1_^2_v1_v7_^1_^3_v2",4
"923",31141,832,"do","do",1,7,"v1_^2_v1_v7_^1_^3_v2",5
"924",31141,1068,"mi","mi",1,7,"v1_^2_v1_v7_^1_^3_v2",6
"925",31141,675,"re","re",1,7,"v1_^2_v1_v7_^1_^3_v2",7
"926",31141,27719,"la","la",1,7,"^6_v5+_v4_^5+_v3_v1_v7-",1
"927",31141,1168,"fi","le",0,7,"^6_v5+_v4_^5+_v3_v1_v7-",2
"928",31141,448,"mi","fa",0,7,"^6_v5+_v4_^5+_v3_v1_v7-",3
"929",31141,561,"fi","le",0,7,"^6_v5+_v4_^5+_v3_v1_v7-",4
"930",31141,2643,"me","mi",0,7,"^6_v5+_v4_^5+_v3_v1_v7-",5
"931",31141,651,"do","do",1,7,"^6_v5+_v4_^5+_v3_v1_v7-",6
"932",31141,315,"do","te",0,7,"^6_v5+_v4_^5+_v3_v1_v7-",7
"933",31141,24472,"re","re",1,9,"^2_^3_^4_^5_^6_v5_v4_v3_v2",1
"934",31141,685,"mi","mi",1,9,"^2_^3_^4_^5_^6_v5_v4_v3_v2",2
"935",31141,853,"fa","fa",1,9,"^2_^3_^4_^5_^6_v5_v4_v3_v2",3
"936",31141,630,"sol","sol",1,9,"^2_^3_^4_^5_^6_v5_v4_v3_v2",4
"937",31141,550,"la","la",1,9,"^2_^3_^4_^5_^6_v5_v4_v3_v2",5
"938",31141,709,"sol","sol",1,9,"^2_^3_^4_^5_^6_v5_v4_v3_v2",6
"939",31141,832,"fa","fa",1,9,"^2_^3_^4_^5_^6_v5_v4_v3_v2",7
"940",31141,561,"mi","mi",1,9,"^2_^3_^4_^5_^6_v5_v4_v3_v2",8
"941",31141,607,"re","re",1,9,"^2_^3_^4_^5_^6_v5_v4_v3_v2",9
"942",31141,4775,"mi","mi",1,9,"^3_^4_^5_^6_v5_v4_v3_v2_v1",1
"943",31141,527,"fa","fa",1,9,"^3_^4_^5_^6_v5_v4_v3_v2_v1",2
"944",31141,595,"sol","sol",1,9,"^3_^4_^5_^6_v5_v4_v3_v2_v1",3
"945",31141,516,"la","la",1,9,"^3_^4_^5_^6_v5_v4_v3_v2_v1",4
"946",31141,416,"sol","sol",1,9,"^3_^4_^5_^6_v5_v4_v3_v2_v1",5
"947",31141,505,"fa","fa",1,9,"^3_^4_^5_^6_v5_v4_v3_v2_v1",6
"948",31141,460,"mi","mi",1,9,"^3_^4_^5_^6_v5_v4_v3_v2_v1",7
"949",31141,416,"re","re",1,9,"^3_^4_^5_^6_v5_v4_v3_v2_v1",8
"950",31141,461,"do","do",1,9,"^3_^4_^5_^6_v5_v4_v3_v2_v1",9
"951",31141,1669,"ti","ti",1,9,"v7_v6_v5_^6_v5_v4_^5_^6_v5",1
"952",31141,562,"la","la",1,9,"v7_v6_v5_^6_v5_v4_^5_^6_v5",2
"953",31141,574,"sol","sol",1,9,"v7_v6_v5_^6_v5_v4_^5_^6_v5",3
"954",31141,550,"fa","la",0,9,"v7_v6_v5_^6_v5_v4_^5_^6_v5",4
"955",31141,472,"sol","sol",1,9,"v7_v6_v5_^6_v5_v4_^5_^6_v5",5
"956",31141,539,"fa","fa",1,9,"v7_v6_v5_^6_v5_v4_^5_^6_v5",6
"957",31141,472,"sol","sol",1,9,"v7_v6_v5_^6_v5_v4_^5_^6_v5",7
"958",31141,515,"la","la",1,9,"v7_v6_v5_^6_v5_v4_^5_^6_v5",8
"959",31141,428,"sol","sol",1,9,"v7_v6_v5_^6_v5_v4_^5_^6_v5",9
"960",31141,1191,"sol","sol",1,9,"^5_^6_v5_v4_v3_v2_v1_^2_^3",1
"961",31141,595,"la","la",1,9,"^5_^6_v5_v4_v3_v2_v1_^2_^3",2
"962",31141,617,"sol","sol",1,9,"^5_^6_v5_v4_v3_v2_v1_^2_^3",3
"963",31141,461,"fa","fa",1,9,"^5_^6_v5_v4_v3_v2_v1_^2_^3",4
"964",31141,742,"mi","mi",1,9,"^5_^6_v5_v4_v3_v2_v1_^2_^3",5
"965",31141,460,"re","re",1,9,"^5_^6_v5_v4_v3_v2_v1_^2_^3",6
"966",31141,551,"do","do",1,9,"^5_^6_v5_v4_v3_v2_v1_^2_^3",7
"967",31141,539,"re","re",1,9,"^5_^6_v5_v4_v3_v2_v1_^2_^3",8
"968",31141,528,"mi","mi",1,9,"^5_^6_v5_v4_v3_v2_v1_^2_^3",9
"969",31141,1536,"mi","mi",1,9,"^3_^4_v2_v7_^1_^2_^3_3_^4",1
"970",31141,494,"fa","fa",1,9,"^3_^4_v2_v7_^1_^2_^3_3_^4",2
"971",31141,505,"re","re",1,9,"^3_^4_v2_v7_^1_^2_^3_3_^4",3
"972",31141,787,"ti","ti",1,9,"^3_^4_v2_v7_^1_^2_^3_3_^4",4
"973",31141,877,"do","do",1,9,"^3_^4_v2_v7_^1_^2_^3_3_^4",5
"974",31141,967,"re","re",1,9,"^3_^4_v2_v7_^1_^2_^3_3_^4",6
"975",31141,461,"mi","mi",1,9,"^3_^4_v2_v7_^1_^2_^3_3_^4",7
"976",31141,506,"fa","mi",0,9,"^3_^4_v2_v7_^1_^2_^3_3_^4",8
"977",31141,1788,"mi","fa",0,9,"^3_^4_v2_v7_^1_^2_^3_3_^4",9
"978",31141,6830,"sol","sol",1,9,"v5_v4_v6+_^7_^3+_v3_v2_v5_^4",1
"979",31141,483,"fi","fa",0,9,"v5_v4_v6+_^7_^3+_v3_v2_v5_^4",2
"980",31141,595,"fa","te",0,9,"v5_v4_v6+_^7_^3+_v3_v2_v5_^4",3
"981",31141,809,"sol","ti",0,9,"v5_v4_v6+_^7_^3+_v3_v2_v5_^4",4
"982",31141,1687,"me","mi",0,9,"v5_v4_v6+_^7_^3+_v3_v2_v5_^4",5
"983",31141,2327,"me","mi",0,9,"v5_v4_v6+_^7_^3+_v3_v2_v5_^4",6
"984",31141,606,"re","re",1,9,"v5_v4_v6+_^7_^3+_v3_v2_v5_^4",7
"985",31141,2237,"mi","sol",0,9,"v5_v4_v6+_^7_^3+_v3_v2_v5_^4",8
"986",31141,2395,"re","fa",0,9,"v5_v4_v6+_^7_^3+_v3_v2_v5_^4",9
"987",31141,4317,"mi","re",0,9,"^2_^4_v3_v2_v1_v3_v2+_^3_^5+",1
"988",31141,844,"sol","fa",0,9,"^2_^4_v3_v2_v1_v3_v2+_^3_^5+",2
"989",31141,483,"fa","mi",0,9,"^2_^4_v3_v2_v1_v3_v2+_^3_^5+",3
"990",31141,516,"mi","re",0,9,"^2_^4_v3_v2_v1_v3_v2+_^3_^5+",4
"991",31141,529,"me","do",0,9,"^2_^4_v3_v2_v1_v3_v2+_^3_^5+",5
"992",31141,1147,"mi","mi",1,9,"^2_^4_v3_v2_v1_v3_v2+_^3_^5+",6
"993",31141,28678,"ra","me",0,9,"^2_^4_v3_v2_v1_v3_v2+_^3_^5+",7
"994",31141,4218,"fi","mi",0,9,"^2_^4_v3_v2_v1_v3_v2+_^3_^5+",8
"995",31141,189,"fi","le",0,9,"^2_^4_v3_v2_v1_v3_v2+_^3_^5+",9
"996",35697,10849,"fa","re",0,2,"v2_v1",1
"997",35697,1724,"mi","do",0,2,"v2_v1",2
"998",35697,7253,"la","sol",0,2,"v5_v1+",1
"999",35697,2845,"ra","ra",1,2,"v5_v1+",2
"1000",35697,11586,"la","ti",0,2,"v7_v3",1
"1001",35697,974,"mi","mi",1,2,"v7_v3",2
"1002",35697,1744,"fa","fa",1,2,"v4_v3",1
"1003",35697,433,"mi","mi",1,2,"v4_v3",2
"1004",35697,5307,"mi","mi",1,2,"^3_v4+",1
"1005",35697,715,"fi","fi",1,2,"^3_v4+",2
"1006",35697,9629,"fa","mi",0,2,"3_^6",1
"1007",35697,3477,"la","la",1,2,"3_^6",2
"1008",35697,14487,"ti","re",0,2,"^2_v7-",1
"1009",35697,1382,"sol","te",0,2,"^2_v7-",2
"1010",35697,13424,"do","do",1,2,"^1_^2+",1
"1011",35697,2432,"fi","me",0,2,"^1_^2+",2
"1012",35697,8848,"mi","mi",1,2,"v3_v2",1
"1013",35697,1754,"re","re",1,2,"v3_v2",2
"1014",35697,11110,"fi","sol",0,2,"^5_^1+",1
"1015",35697,943,"do","ra",0,2,"^5_^1+",2
"1016",35697,2318,"do","do",1,3,"1_v1+_^2",1
"1017",35697,911,"ra","ra",1,3,"1_v1+_^2",2
"1018",35697,1222,"me","re",0,3,"1_v1+_^2",3
"1019",35697,4664,"do","do",1,3,"v1_v7-_v7-",1
"1020",35697,669,"ti","te",0,3,"v1_v7-_v7-",2
"1021",35697,643,"ti","te",0,3,"v1_v7-_v7-",3
"1022",35697,4294,"mi","mi",1,3,"v3_v2_v1",1
"1023",35697,682,"re","re",1,3,"v3_v2_v1",2
"1024",35697,713,"do","do",1,3,"v3_v2_v1",3
"1025",35697,6783,"fa","re",0,3,"v2_v5_^3",1
"1026",35697,1347,"la","sol",0,3,"v2_v5_^3",2
"1027",35697,2253,"sol","mi",0,3,"v2_v5_^3",3
"1028",35697,13962,"sol","la",0,3,"6_^1_v5",1
"1029",35697,2316,"la","do",0,3,"6_^1_v5",2
"1030",35697,3530,"mi","sol",0,3,"6_^1_v5",3
"1031",35697,3818,"sol","sol",1,3,"v5_v4_v3",1
"1032",35697,1590,"fa","fa",1,3,"v5_v4_v3",2
"1033",35697,620,"mi","mi",1,3,"v5_v4_v3",3
"1034",35697,21566,"do","do",1,3,"v1_v7-_^7",1
"1035",35697,931,"la","te",0,3,"v1_v7-_^7",2
"1036",35697,628,"te","ti",0,3,"v1_v7-_^7",3
"1037",35697,11196,"fa","fa",1,3,"v4_v3_v2",1
"1038",35697,620,"mi","mi",1,3,"v4_v3_v2",2
"1039",35697,1185,"re","re",1,3,"v4_v3_v2",3
"1040",35697,4325,"do","do",1,3,"^1_v6_v5+",1
"1041",35697,2249,"ti","la",0,3,"^1_v6_v5+",2
"1042",35697,1207,"te","le",0,3,"^1_v6_v5+",3
"1043",35697,23910,"fa","la",0,5,"^6_v4_v3_^4_^5",1
"1044",35697,949,"ra","fa",0,5,"^6_v4_v3_^4_^5",2
"1045",35697,773,"do","mi",0,5,"^6_v4_v3_^4_^5",3
"1046",35697,1783,"ra","fa",0,5,"^6_v4_v3_^4_^5",4
"1047",35697,957,"me","sol",0,5,"^6_v4_v3_^4_^5",5
"1048",35697,9868,"sol","sol",1,5,"v5_v4_v3_v2_v1",1
"1049",35697,735,"fa","fa",1,5,"v5_v4_v3_v2_v1",2
"1050",35697,662,"mi","mi",1,5,"v5_v4_v3_v2_v1",3
"1051",35697,571,"re","re",1,5,"v5_v4_v3_v2_v1",4
"1052",35697,1330,"do","do",1,5,"v5_v4_v3_v2_v1",5
"1053",35697,3380,"sol","sol",1,5,"v5_v4_v3_v2_v1",6
"1054",35697,867,"fa","fa",1,5,"v5_v4_v3_v2_v1",7
"1055",35697,589,"mi","mi",1,5,"v5_v4_v3_v2_v1",8
"1056",35697,717,"re","re",1,5,"v5_v4_v3_v2_v1",9
"1057",35697,684,"do","do",1,5,"v5_v4_v3_v2_v1",10
"1058",35697,5883,"me","re",0,5,"v2_2_^3_^4_v2",1
"1059",35697,776,"me","re",0,5,"v2_2_^3_^4_v2",2
"1060",35697,744,"mi","mi",1,5,"v2_2_^3_^4_v2",3
"1061",35697,8343,"le","fa",0,5,"v2_2_^3_^4_v2",4
"1062",35697,578,"sol","re",0,5,"v2_2_^3_^4_v2",5
"1063",35697,4575,"sol","sol",1,5,"^5_^6_v5_v4_v3",1
"1064",35697,888,"le","la",0,5,"^5_^6_v5_v4_v3",2
"1065",35697,847,"sol","sol",1,5,"^5_^6_v5_v4_v3",3
"1066",35697,1023,"fa","fa",1,5,"^5_^6_v5_v4_v3",4
"1067",35697,2990,"me","mi",0,5,"^5_^6_v5_v4_v3",5
"1068",35697,1808,"fi","fi",1,5,"v5-_v3_3_^4+_v3",1
"1069",35697,2927,"mi","mi",1,5,"v5-_v3_3_^4+_v3",2
"1070",35697,855,"mi","mi",1,5,"v5-_v3_3_^4+_v3",3
"1071",35697,948,"fi","fi",1,5,"v5-_v3_3_^4+_v3",4
"1072",35697,1049,"mi","mi",1,5,"v5-_v3_3_^4+_v3",5
"1073",35697,5563,"do","sol",0,5,"v5_^6+_^7_^1_5",1
"1074",35697,1257,"re","te",0,5,"v5_^6+_^7_^1_5",2
"1075",35697,1820,"me","ti",0,5,"v5_^6+_^7_^1_5",3
"1076",35697,1169,"fa","do",0,5,"v5_^6+_^7_^1_5",4
"1077",35697,2882,"re","sol",0,5,"v5_^6+_^7_^1_5",5
"1078",35697,11480,"do","la",0,5,"^6_v5_v4_v3_v2",1
"1079",35697,796,"ti","sol",0,5,"^6_v5_v4_v3_v2",2
"1080",35697,7246,"te","fa",0,5,"^6_v5_v4_v3_v2",3
"1081",35697,1832,"la","mi",0,5,"^6_v5_v4_v3_v2",4
"1082",35697,1028,"sol","re",0,5,"^6_v5_v4_v3_v2",5
"1083",35697,23311,"te","fa",0,7,"^4_v6-_v5-_^6-_^4_v2-_2-",1
"1084",35697,929,"re","le",0,7,"^4_v6-_v5-_^6-_^4_v2-_2-",2
"1085",35697,578,"re","fi",0,7,"^4_v6-_v5-_^6-_^4_v2-_2-",3
"1086",35697,1256,"la","le",0,7,"^4_v6-_v5-_^6-_^4_v2-_2-",4
"1087",35697,692,"te","fa",0,7,"^4_v6-_v5-_^6-_^4_v2-_2-",5
"1088",35697,2070,"re","ra",0,7,"^4_v6-_v5-_^6-_^4_v2-_2-",6
"1089",35697,791,"re","ra",0,7,"^4_v6-_v5-_^6-_^4_v2-_2-",7
"1090",35697,12090,"re","do",0,7,"1_^3_v1_^5_v3_v2_^3",1
"1091",35697,821,"sol","mi",0,7,"1_^3_v1_^5_v3_v2_^3",2
"1092",35697,931,"re","do",0,7,"1_^3_v1_^5_v3_v2_^3",3
"1093",35697,1343,"la","sol",0,7,"1_^3_v1_^5_v3_v2_^3",4
"1094",35697,1004,"sol","mi",0,7,"1_^3_v1_^5_v3_v2_^3",5
"1095",35697,2174,"re","re",1,7,"1_^3_v1_^5_v3_v2_^3",6
"1096",35697,1024,"re","mi",0,7,"1_^3_v1_^5_v3_v2_^3",7
"1097",35697,6484,"sol","sol",1,7,"^5_^6_v5_v4_v3_v2_v1",1
"1098",35697,716,"la","la",1,7,"^5_^6_v5_v4_v3_v2_v1",2
"1099",35697,726,"sol","sol",1,7,"^5_^6_v5_v4_v3_v2_v1",3
"1100",35697,853,"fa","fa",1,7,"^5_^6_v5_v4_v3_v2_v1",4
"1101",35697,518,"mi","mi",1,7,"^5_^6_v5_v4_v3_v2_v1",5
"1102",35697,728,"re","re",1,7,"^5_^6_v5_v4_v3_v2_v1",6
"1103",35697,641,"do","do",1,7,"^5_^6_v5_v4_v3_v2_v1",7
"1104",35697,4296,"do","do",1,7,"v1_^2_v1_v7_^1_^3_v2",1
"1105",35697,697,"re","re",1,7,"v1_^2_v1_v7_^1_^3_v2",2
"1106",35697,828,"do","do",1,7,"v1_^2_v1_v7_^1_^3_v2",3
"1107",35697,1209,"mi","ti",0,7,"v1_^2_v1_v7_^1_^3_v2",4
"1108",35697,757,"fa","do",0,7,"v1_^2_v1_v7_^1_^3_v2",5
"1109",35697,4511,"mi","mi",1,7,"v1_^2_v1_v7_^1_^3_v2",6
"1110",35697,1681,"re","re",1,7,"v1_^2_v1_v7_^1_^3_v2",7
"1111",35697,4695,"fa","fa",1,7,"^4_^5_^6_v5_v4_v3_v2",1
"1112",35697,620,"sol","sol",1,7,"^4_^5_^6_v5_v4_v3_v2",2
"1113",35697,682,"fa","la",0,7,"^4_^5_^6_v5_v4_v3_v2",3
"1114",35697,590,"sol","sol",1,7,"^4_^5_^6_v5_v4_v3_v2",4
"1115",35697,716,"le","fa",0,7,"^4_^5_^6_v5_v4_v3_v2",5
"1116",35697,1085,"fa","mi",0,7,"^4_^5_^6_v5_v4_v3_v2",6
"1117",35697,2365,"me","re",0,7,"^4_^5_^6_v5_v4_v3_v2",7
"1118",35697,11257,"do","do",1,7,"^1_v7_v6_v5_v4_v3_v2",1
"1119",35697,575,"ti","ti",1,7,"^1_v7_v6_v5_v4_v3_v2",2
"1120",35697,777,"la","la",1,7,"^1_v7_v6_v5_v4_v3_v2",3
"1121",35697,680,"sol","sol",1,7,"^1_v7_v6_v5_v4_v3_v2",4
"1122",35697,692,"fa","fa",1,7,"^1_v7_v6_v5_v4_v3_v2",5
"1123",35697,497,"mi","mi",1,7,"^1_v7_v6_v5_v4_v3_v2",6
"1124",35697,682,"re","re",1,7,"^1_v7_v6_v5_v4_v3_v2",7
"1125",35697,7476,"la","la",1,7,"^6_v5+_v4_^5+_v3_v1_v7-",1
"1126",35697,675,"sol","le",0,7,"^6_v5+_v4_^5+_v3_v1_v7-",2
"1127",35697,559,"fi","fa",0,7,"^6_v5+_v4_^5+_v3_v1_v7-",3
"1128",35697,4056,"le","le",1,7,"^6_v5+_v4_^5+_v3_v1_v7-",4
"1129",35697,619,"la","mi",0,7,"^6_v5+_v4_^5+_v3_v1_v7-",5
"1130",35697,6415,"fa","do",0,7,"^6_v5+_v4_^5+_v3_v1_v7-",6
"1131",35697,454,"mi","te",0,7,"^6_v5+_v4_^5+_v3_v1_v7-",7
"1132",35697,7706,"te","sol",0,9,"v5_v4_v6+_^7_^3+_v3_v2_v5_^4",1
"1133",35697,598,"la","fa",0,9,"v5_v4_v6+_^7_^3+_v3_v2_v5_^4",2
"1134",35697,610,"sol","te",0,9,"v5_v4_v6+_^7_^3+_v3_v2_v5_^4",3
"1135",35697,2005,"fa","ti",0,9,"v5_v4_v6+_^7_^3+_v3_v2_v5_^4",4
"1136",35697,505,"mi","mi",1,9,"v5_v4_v6+_^7_^3+_v3_v2_v5_^4",5
"1137",35697,1486,"me","mi",0,9,"v5_v4_v6+_^7_^3+_v3_v2_v5_^4",6
"1138",35697,1697,"la","re",0,9,"v5_v4_v6+_^7_^3+_v3_v2_v5_^4",7
"1139",35697,1325,"te","sol",0,9,"v5_v4_v6+_^7_^3+_v3_v2_v5_^4",8
"1140",35697,2143,"la","fa",0,9,"v5_v4_v6+_^7_^3+_v3_v2_v5_^4",9
"1141",35697,15716,"la","mi",0,9,"^3_^4_v2_v7_^1_^2_^3_3_^4",1
"1142",35697,745,"te","fa",0,9,"^3_^4_v2_v7_^1_^2_^3_3_^4",2
"1143",35697,583,"la","re",0,9,"^3_^4_v2_v7_^1_^2_^3_3_^4",3
"1144",35697,1036,"sol","ti",0,9,"^3_^4_v2_v7_^1_^2_^3_3_^4",4
"1145",35697,684,"fa","do",0,9,"^3_^4_v2_v7_^1_^2_^3_3_^4",5
"1146",35697,719,"fa","re",0,9,"^3_^4_v2_v7_^1_^2_^3_3_^4",6
"1147",35697,922,"sol","mi",0,9,"^3_^4_v2_v7_^1_^2_^3_3_^4",7
"1148",35697,582,"la","mi",0,9,"^3_^4_v2_v7_^1_^2_^3_3_^4",8
"1149",35697,2003,"sol","fa",0,9,"^3_^4_v2_v7_^1_^2_^3_3_^4",9
"1150",35697,2545,"ti","sol",0,9,"^5_^6_v5_v4_v3_v2_v1_^2_^3",1
"1151",35697,645,"do","la",0,9,"^5_^6_v5_v4_v3_v2_v1_^2_^3",2
"1152",35697,748,"ti","sol",0,9,"^5_^6_v5_v4_v3_v2_v1_^2_^3",3
"1153",35697,602,"la","fa",0,9,"^5_^6_v5_v4_v3_v2_v1_^2_^3",4
"1154",35697,706,"sol","mi",0,9,"^5_^6_v5_v4_v3_v2_v1_^2_^3",5
"1155",35697,2128,"la","re",0,9,"^5_^6_v5_v4_v3_v2_v1_^2_^3",6
"1156",35697,600,"sol","do",0,9,"^5_^6_v5_v4_v3_v2_v1_^2_^3",7
"1157",35697,603,"mi","re",0,9,"^5_^6_v5_v4_v3_v2_v1_^2_^3",8
"1158",35697,573,"fa","mi",0,9,"^5_^6_v5_v4_v3_v2_v1_^2_^3",9
"1159",35697,7574,"sol","re",0,9,"^2_^4_v3_v2_v1_v3_v2+_^3_^5+",1
"1160",35697,488,"le","fa",0,9,"^2_^4_v3_v2_v1_v3_v2+_^3_^5+",2
"1161",35697,688,"sol","mi",0,9,"^2_^4_v3_v2_v1_v3_v2+_^3_^5+",3
"1162",35697,873,"fa","re",0,9,"^2_^4_v3_v2_v1_v3_v2+_^3_^5+",4
"1163",35697,1787,"me","do",0,9,"^2_^4_v3_v2_v1_v3_v2+_^3_^5+",5
"1164",35697,995,"mi","mi",1,9,"^2_^4_v3_v2_v1_v3_v2+_^3_^5+",6
"1165",35697,853,"fi","me",0,9,"^2_^4_v3_v2_v1_v3_v2+_^3_^5+",7
"1166",35697,2849,"me","mi",0,9,"^2_^4_v3_v2_v1_v3_v2+_^3_^5+",8
"1167",35697,895,"re","le",0,9,"^2_^4_v3_v2_v1_v3_v2+_^3_^5+",9
"1168",35697,1957,"mi","mi",1,9,"^3_^4_^5_^6_v5_v4_v3_v2_v1",1
"1169",35697,774,"fa","fa",1,9,"^3_^4_^5_^6_v5_v4_v3_v2_v1",2
"1170",35697,588,"mi","sol",0,9,"^3_^4_^5_^6_v5_v4_v3_v2_v1",3
"1171",35697,3041,"la","la",1,9,"^3_^4_^5_^6_v5_v4_v3_v2_v1",4
"1172",35697,600,"ti","sol",0,9,"^3_^4_^5_^6_v5_v4_v3_v2_v1",5
"1173",35697,705,"sol","fa",0,9,"^3_^4_^5_^6_v5_v4_v3_v2_v1",6
"1174",35697,1507,"fa","mi",0,9,"^3_^4_^5_^6_v5_v4_v3_v2_v1",7
"1175",35697,727,"mi","re",0,9,"^3_^4_^5_^6_v5_v4_v3_v2_v1",8
"1176",35697,1396,"fa","do",0,9,"^3_^4_^5_^6_v5_v4_v3_v2_v1",9
"1177",35697,2991,"mi","re",0,9,"^2_^3_^4_^5_^6_v5_v4_v3_v2",1
"1178",35697,732,"fa","mi",0,9,"^2_^3_^4_^5_^6_v5_v4_v3_v2",2
"1179",35697,675,"sol","fa",0,9,"^2_^3_^4_^5_^6_v5_v4_v3_v2",3
"1180",35697,610,"la","sol",0,9,"^2_^3_^4_^5_^6_v5_v4_v3_v2",4
"1181",35697,558,"ti","la",0,9,"^2_^3_^4_^5_^6_v5_v4_v3_v2",5
"1182",35697,548,"la","sol",0,9,"^2_^3_^4_^5_^6_v5_v4_v3_v2",6
"1183",35697,753,"sol","fa",0,9,"^2_^3_^4_^5_^6_v5_v4_v3_v2",7
"1184",35697,916,"fa","mi",0,9,"^2_^3_^4_^5_^6_v5_v4_v3_v2",8
"1185",35697,849,"sol","re",0,9,"^2_^3_^4_^5_^6_v5_v4_v3_v2",9
"1186",35697,1256,"ti","ti",1,9,"v7_v6_v5_^6_v5_v4_^5_^6_v5",1
"1187",35697,706,"la","la",1,9,"v7_v6_v5_^6_v5_v4_^5_^6_v5",2
"1188",35697,705,"sol","sol",1,9,"v7_v6_v5_^6_v5_v4_^5_^6_v5",3
"1189",35697,1069,"la","la",1,9,"v7_v6_v5_^6_v5_v4_^5_^6_v5",4
"1190",35697,583,"sol","sol",1,9,"v7_v6_v5_^6_v5_v4_^5_^6_v5",5
"1191",35697,813,"fa","fa",1,9,"v7_v6_v5_^6_v5_v4_^5_^6_v5",6
"1192",35697,1269,"sol","sol",1,9,"v7_v6_v5_^6_v5_v4_^5_^6_v5",7
"1193",35697,509,"la","la",1,9,"v7_v6_v5_^6_v5_v4_^5_^6_v5",8
"1194",35697,509,"sol","sol",1,9,"v7_v6_v5_^6_v5_v4_^5_^6_v5",9
"1195",38531,2948.89999999577,"sol","sol",1,2,"v5_v1+",1
"1196",38531,2126.70999999682,"ra","ra",1,2,"v5_v1+",2
"1197",38531,795.140000001993,"re","re",1,2,"v2_v1",1
"1198",38531,478.904999996303,"do","do",1,2,"v2_v1",2
"1199",38531,1126.40500000271,"do","do",1,2,"^1_^2+",1
"1200",38531,631.305000002729,"me","me",1,2,"^1_^2+",2
"1201",38531,734.839999997406,"fa","fa",1,2,"v4_v3",1
"1202",38531,430.399999997579,"mi","mi",1,2,"v4_v3",2
"1203",38531,852.890000001877,"mi","mi",1,2,"v3_v2",1
"1204",38531,590.96000000136,"re","re",1,2,"v3_v2",2
"1205",38531,1147.74499999476,"sol","sol",1,2,"^5_^1+",1
"1206",38531,1007.10499999695,"ra","ra",1,2,"^5_^1+",2
"1207",38531,1853.62999999779,"re","re",1,2,"^2_v7-",1
"1208",38531,10167.3249999948,"fa","te",0,2,"^2_v7-",2
"1209",38531,2041.2500000021,"sol","ti",0,2,"v7_v3",1
"1210",38531,924.609999994631,"do","mi",0,2,"v7_v3",2
"1211",38531,816.95500000217,"me","mi",0,2,"^3_v4+",1
"1212",38531,2238.32499999856,"fi","fi",1,2,"^3_v4+",2
"1213",38531,2408.06000000157,"re","mi",0,2,"3_^6",1
"1214",38531,2061.53500000085,"la","la",1,2,"3_^6",2
"1215",38531,1496.95000000065,"re","re",1,3,"v2_v5_^3",1
"1216",38531,7086.43999999913,"sol","sol",1,3,"v2_v5_^3",2
"1217",38531,974.535000001313,"mi","mi",1,3,"v2_v5_^3",3
"1218",38531,8441.59500000393,"sol","do",0,3,"v1_v7-_v7-",1
"1219",38531,710.950000000536,"fa","te",0,3,"v1_v7-_v7-",2
"1220",38531,414.740000000224,"fa","te",0,3,"v1_v7-_v7-",3
"1221",38531,1026.58499999961,"mi","mi",1,3,"v3_v2_v1",1
"1222",38531,630.774999997811,"re","re",1,3,"v3_v2_v1",2
"1223",38531,558.034999994561,"do","do",1,3,"v3_v2_v1",3
"1224",38531,978.519999996992,"fa","fa",1,3,"v4_v3_v2",1
"1225",38531,454.234999997308,"mi","mi",1,3,"v4_v3_v2",2
"1226",38531,711.210000001243,"re","re",1,3,"v4_v3_v2",3
"1227",38531,873.885000000941,"do","do",1,3,"1_v1+_^2",1
"1228",38531,454.699999994715,"ra","ra",1,3,"1_v1+_^2",2
"1229",38531,670.400000002701,"re","re",1,3,"1_v1+_^2",3
"1230",38531,880.505000000936,"do","do",1,3,"^1_v6_v5+",1
"1231",38531,670.099999995786,"la","la",1,3,"^1_v6_v5+",2
"1232",38531,438.294999999925,"le","le",1,3,"^1_v6_v5+",3
"1233",38531,992.120000002556,"do","do",1,3,"v1_v7-_^7",1
"1234",38531,574.36500000034,"te","te",1,3,"v1_v7-_^7",2
"1235",38531,663.459999996121,"ti","ti",1,3,"v1_v7-_^7",3
"1236",38531,919.345000002068,"sol","sol",1,3,"v5_v4_v3",1
"1237",38531,551.265000001877,"fa","fa",1,3,"v5_v4_v3",2
"1238",38531,366.935000005527,"mi","mi",1,3,"v5_v4_v3",3
"1239",38531,2468.69500000321,"la","la",1,3,"6_^1_v5",1
"1240",38531,727.340000004857,"do","do",1,3,"6_^1_v5",2
"1241",38531,4678.5200000013,"sol","sol",1,3,"6_^1_v5",3
"1242",38531,1043.33500000206,"la","la",1,5,"^6_v4_v3_^4_^5",1
"1243",38531,1062.08500000497,"sol","fa",0,5,"^6_v4_v3_^4_^5",2
"1244",38531,830.909999996889,"fa","mi",0,5,"^6_v4_v3_^4_^5",3
"1245",38531,6830.77500000224,"fa","fa",1,5,"^6_v4_v3_^4_^5",4
"1246",38531,734.705000002519,"sol","sol",1,5,"^6_v4_v3_^4_^5",5
"1247",38531,841.629999995348,"sol","sol",1,5,"v5_v4_v3_v2_v1",1
"1248",38531,614.704999999958,"fa","fa",1,5,"v5_v4_v3_v2_v1",2
"1249",38531,486.475000005215,"mi","mi",1,5,"v5_v4_v3_v2_v1",3
"1250",38531,559.845000003465,"re","re",1,5,"v5_v4_v3_v2_v1",4
"1251",38531,526.41500000027,"do","do",1,5,"v5_v4_v3_v2_v1",5
"1252",38531,900.680000006221,"re","re",1,5,"v2_2_^3_^4_v2",1
"1253",38531,519.6350000042,"re","re",1,5,"v2_2_^3_^4_v2",2
"1254",38531,1694.15000000305,"mi","mi",1,5,"v2_2_^3_^4_v2",3
"1255",38531,1022.60999999999,"fa","fa",1,5,"v2_2_^3_^4_v2",4
"1256",38531,1206.76499999536,"re","re",1,5,"v2_2_^3_^4_v2",5
"1257",38531,923.580000002403,"sol","sol",1,5,"v5_v4_v3_v2_v1",6
"1258",38531,537.465000001248,"fa","fa",1,5,"v5_v4_v3_v2_v1",7
"1259",38531,452.505000001169,"mi","mi",1,5,"v5_v4_v3_v2_v1",8
"1260",38531,631.500000003143,"re","re",1,5,"v5_v4_v3_v2_v1",9
"1261",38531,550.799999997253,"do","do",1,5,"v5_v4_v3_v2_v1",10
"1262",38531,7250.85500000569,"fi","fi",1,5,"v5-_v3_3_^4+_v3",1
"1263",38531,598.94499999797,"mi","mi",1,5,"v5-_v3_3_^4+_v3",2
"1264",38531,430.325000001234,"mi","mi",1,5,"v5-_v3_3_^4+_v3",3
"1265",38531,519.124999998952,"fi","fi",1,5,"v5-_v3_3_^4+_v3",4
"1266",38531,558.310000000405,"mi","mi",1,5,"v5-_v3_3_^4+_v3",5
"1267",38531,974.014999999781,"sol","sol",1,5,"v5_^6+_^7_^1_5",1
"1268",38531,718.720000004396,"la","te",0,5,"v5_^6+_^7_^1_5",2
"1269",38531,622.350000005099,"ti","ti",1,5,"v5_^6+_^7_^1_5",3
"1270",38531,590.694999999017,"do","do",1,5,"v5_^6+_^7_^1_5",4
"1271",38531,735.030000003404,"sol","sol",1,5,"v5_^6+_^7_^1_5",5
"1272",38531,1097.97499999683,"la","la",1,5,"^6_v5_v4_v3_v2",1
"1273",38531,550.0400000019,"sol","sol",1,5,"^6_v5_v4_v3_v2",2
"1274",38531,775.354999997886,"fa","fa",1,5,"^6_v5_v4_v3_v2",3
"1275",38531,406.605000003823,"mi","mi",1,5,"^6_v5_v4_v3_v2",4
"1276",38531,647.210000002757,"re","re",1,5,"^6_v5_v4_v3_v2",5
"1277",38531,802.650000005146,"sol","sol",1,5,"^5_^6_v5_v4_v3",1
"1278",38531,598.959999995772,"la","la",1,5,"^5_^6_v5_v4_v3",2
"1279",38531,591.065000000526,"sol","sol",1,5,"^5_^6_v5_v4_v3",3
"1280",38531,518.340000002296,"fa","fa",1,5,"^5_^6_v5_v4_v3",4
"1281",38531,415.155000002473,"mi","mi",1,5,"^5_^6_v5_v4_v3",5
"1282",38531,934.37499999709,"do","do",1,7,"1_^3_v1_^5_v3_v2_^3",1
"1283",38531,1102.2799999991,"mi","mi",1,7,"1_^3_v1_^5_v3_v2_^3",2
"1284",38531,951.025000002119,"do","do",1,7,"1_^3_v1_^5_v3_v2_^3",3
"1285",38531,1367.40999999887,"mi","sol",0,7,"1_^3_v1_^5_v3_v2_^3",4
"1286",38531,6134.66000000329,"fa","mi",0,7,"1_^3_v1_^5_v3_v2_^3",5
"1287",38531,486.42000000109,"mi","re",0,7,"1_^3_v1_^5_v3_v2_^3",6
"1288",38531,494.204999995418,"fa","mi",0,7,"1_^3_v1_^5_v3_v2_^3",7
"1289",38531,1034.72000000323,"do","do",1,7,"v1_^2_v1_v7_^1_^3_v2",1
"1290",38531,774.849999994389,"re","re",1,7,"v1_^2_v1_v7_^1_^3_v2",2
"1291",38531,734.83500000299,"do","do",1,7,"v1_^2_v1_v7_^1_^3_v2",3
"1292",38531,1086.28499999759,"ti","ti",1,7,"v1_^2_v1_v7_^1_^3_v2",4
"1293",38531,903.474999999162,"do","do",1,7,"v1_^2_v1_v7_^1_^3_v2",5
"1294",38531,4253.66499999654,"mi","mi",1,7,"v1_^2_v1_v7_^1_^3_v2",6
"1295",38531,566.770000004908,"re","re",1,7,"v1_^2_v1_v7_^1_^3_v2",7
"1296",38531,791.85499999579,"sol","sol",1,7,"^5_^6_v5_v4_v3_v2_v1",1
"1297",38531,639.27500000142,"la","la",1,7,"^5_^6_v5_v4_v3_v2_v1",2
"1298",38531,550.830000000075,"sol","sol",1,7,"^5_^6_v5_v4_v3_v2_v1",3
"1299",38531,670.514999998035,"fa","fa",1,7,"^5_^6_v5_v4_v3_v2_v1",4
"1300",38531,511.115000001155,"mi","mi",1,7,"^5_^6_v5_v4_v3_v2_v1",5
"1301",38531,534.294999997597,"re","re",1,7,"^5_^6_v5_v4_v3_v2_v1",6
"1302",38531,1071.46500000078,"do","do",1,7,"^5_^6_v5_v4_v3_v2_v1",7
"1303",38531,4430.8699999965,"ra","fa",0,7,"^4_v6-_v5-_^6-_^4_v2-_2-",1
"1304",38531,2126.91500000074,"la","le",0,7,"^4_v6-_v5-_^6-_^4_v2-_2-",2
"1305",38531,414.29500000237,"le","fi",0,7,"^4_v6-_v5-_^6-_^4_v2-_2-",3
"1306",38531,518.359999994515,"la","le",0,7,"^4_v6-_v5-_^6-_^4_v2-_2-",4
"1307",38531,942.835000001709,"me","fa",0,7,"^4_v6-_v5-_^6-_^4_v2-_2-",5
"1308",38531,1758.53500000085,"ra","ra",1,7,"^4_v6-_v5-_^6-_^4_v2-_2-",6
"1309",38531,318.735000000685,"ra","ra",1,7,"^4_v6-_v5-_^6-_^4_v2-_2-",7
"1310",38531,905.414999993751,"fa","fa",1,7,"^4_^5_^6_v5_v4_v3_v2",1
"1311",38531,583.224999994738,"sol","sol",1,7,"^4_^5_^6_v5_v4_v3_v2",2
"1312",38531,646.089999994729,"la","la",1,7,"^4_^5_^6_v5_v4_v3_v2",3
"1313",38531,455.454999995767,"sol","sol",1,7,"^4_^5_^6_v5_v4_v3_v2",4
"1314",38531,566.655000002356,"fa","fa",1,7,"^4_^5_^6_v5_v4_v3_v2",5
"1315",38531,710.339999997756,"mi","mi",1,7,"^4_^5_^6_v5_v4_v3_v2",6
"1316",38531,727.530000003753,"re","re",1,7,"^4_^5_^6_v5_v4_v3_v2",7
"1317",38531,1429.43000000378,"la","la",1,7,"^6_v5+_v4_^5+_v3_v1_v7-",1
"1318",38531,1276.87999999756,"sol","le",0,7,"^6_v5+_v4_^5+_v3_v1_v7-",2
"1319",38531,1974.97000000288,"me","fa",0,7,"^6_v5+_v4_^5+_v3_v1_v7-",3
"1320",38531,2407.18499999633,"fi","le",0,7,"^6_v5+_v4_^5+_v3_v1_v7-",4
"1321",38531,3470.49500000139,"re","mi",0,7,"^6_v5+_v4_^5+_v3_v1_v7-",5
"1322",38531,1549.90000000549,"do","do",1,7,"^6_v5+_v4_^5+_v3_v1_v7-",6
"1323",38531,839.590000003343,"te","te",1,7,"^6_v5+_v4_^5+_v3_v1_v7-",7
"1324",38531,823.420000000624,"do","do",1,7,"^1_v7_v6_v5_v4_v3_v2",1
"1325",38531,454.069999999832,"ti","ti",1,7,"^1_v7_v6_v5_v4_v3_v2",2
"1326",38531,519.534999999451,"la","la",1,7,"^1_v7_v6_v5_v4_v3_v2",3
"1327",38531,607.174999997369,"sol","sol",1,7,"^1_v7_v6_v5_v4_v3_v2",4
"1328",38531,782.894999996643,"fa","fa",1,7,"^1_v7_v6_v5_v4_v3_v2",5
"1329",38531,438.985000000685,"mi","mi",1,7,"^1_v7_v6_v5_v4_v3_v2",6
"1330",38531,598.149999998044,"re","re",1,7,"^1_v7_v6_v5_v4_v3_v2",7
"1331",38531,1278.82500000112,"re","re",1,9,"^2_^3_^4_^5_^6_v5_v4_v3_v2",1
"1332",38531,678.615000004182,"mi","mi",1,9,"^2_^3_^4_^5_^6_v5_v4_v3_v2",2
"1333",38531,535.579999996116,"fa","fa",1,9,"^2_^3_^4_^5_^6_v5_v4_v3_v2",3
"1334",38531,622.524999998743,"sol","sol",1,9,"^2_^3_^4_^5_^6_v5_v4_v3_v2",4
"1335",38531,798.534999994328,"la","la",1,9,"^2_^3_^4_^5_^6_v5_v4_v3_v2",5
"1336",38531,703.014999999199,"sol","sol",1,9,"^2_^3_^4_^5_^6_v5_v4_v3_v2",6
"1337",38531,575.414999999339,"fa","fa",1,9,"^2_^3_^4_^5_^6_v5_v4_v3_v2",7
"1338",38531,598.429999998305,"me","mi",0,9,"^2_^3_^4_^5_^6_v5_v4_v3_v2",8
"1339",38531,1703.13000000175,"re","re",1,9,"^2_^3_^4_^5_^6_v5_v4_v3_v2",9
"1340",38531,1408.32999999821,"fa","mi",0,9,"^3_^4_v2_v7_^1_^2_^3_3_^4",1
"1341",38531,526.275000003865,"mi","fa",0,9,"^3_^4_v2_v7_^1_^2_^3_3_^4",2
"1342",38531,575.284999998985,"re","re",1,9,"^3_^4_v2_v7_^1_^2_^3_3_^4",3
"1343",38531,3758.25999999512,"ti","ti",1,9,"^3_^4_v2_v7_^1_^2_^3_3_^4",4
"1344",38531,2351.09000000381,"do","do",1,9,"^3_^4_v2_v7_^1_^2_^3_3_^4",5
"1345",38531,590.609999999171,"re","re",1,9,"^3_^4_v2_v7_^1_^2_^3_3_^4",6
"1346",38531,502.534999999683,"mi","mi",1,9,"^3_^4_v2_v7_^1_^2_^3_3_^4",7
"1347",38531,2262.82000000356,"fa","mi",0,9,"^3_^4_v2_v7_^1_^2_^3_3_^4",8
"1348",38531,374.850000000093,"mi","fa",0,9,"^3_^4_v2_v7_^1_^2_^3_3_^4",9
"1349",38531,1197.65500000375,"ti","ti",1,9,"v7_v6_v5_^6_v5_v4_^5_^6_v5",1
"1350",38531,582.849999998696,"la","la",1,9,"v7_v6_v5_^6_v5_v4_^5_^6_v5",2
"1351",38531,583.255000005011,"sol","sol",1,9,"v7_v6_v5_^6_v5_v4_^5_^6_v5",3
"1352",38531,2662.06000000238,"la","la",1,9,"v7_v6_v5_^6_v5_v4_^5_^6_v5",4
"1353",38531,831.344999998808,"sol","sol",1,9,"v7_v6_v5_^6_v5_v4_^5_^6_v5",5
"1354",38531,766.289999999572,"fa","fa",1,9,"v7_v6_v5_^6_v5_v4_^5_^6_v5",6
"1355",38531,495.385000001872,"sol","sol",1,9,"v7_v6_v5_^6_v5_v4_^5_^6_v5",7
"1356",38531,518.114999998827,"la","la",1,9,"v7_v6_v5_^6_v5_v4_^5_^6_v5",8
"1357",38531,462.979999996722,"sol","sol",1,9,"v7_v6_v5_^6_v5_v4_^5_^6_v5",9
"1358",38531,922.930000000633,"sol","sol",1,9,"^5_^6_v5_v4_v3_v2_v1_^2_^3",1
"1359",38531,567.364999995334,"la","la",1,9,"^5_^6_v5_v4_v3_v2_v1_^2_^3",2
"1360",38531,510.100000006845,"sol","sol",1,9,"^5_^6_v5_v4_v3_v2_v1_^2_^3",3
"1361",38531,855.544999998529,"fa","fa",1,9,"^5_^6_v5_v4_v3_v2_v1_^2_^3",4
"1362",38531,606.234999999171,"mi","mi",1,9,"^5_^6_v5_v4_v3_v2_v1_^2_^3",5
"1363",38531,2270.38500000327,"re","re",1,9,"^5_^6_v5_v4_v3_v2_v1_^2_^3",6
"1364",38531,838.855000001844,"do","do",1,9,"^5_^6_v5_v4_v3_v2_v1_^2_^3",7
"1365",38531,438.590000005206,"re","re",1,9,"^5_^6_v5_v4_v3_v2_v1_^2_^3",8
"1366",38531,431.120000001043,"mi","mi",1,9,"^5_^6_v5_v4_v3_v2_v1_^2_^3",9
"1367",38531,1221.74000000092,"mi","mi",1,9,"^3_^4_^5_^6_v5_v4_v3_v2_v1",1
"1368",38531,487.000000000931,"fa","fa",1,9,"^3_^4_^5_^6_v5_v4_v3_v2_v1",2
"1369",38531,559.929999995977,"sol","sol",1,9,"^3_^4_^5_^6_v5_v4_v3_v2_v1",3
"1370",38531,533.804999999236,"la","la",1,9,"^3_^4_^5_^6_v5_v4_v3_v2_v1",4
"1371",38531,470.959999998566,"sol","sol",1,9,"^3_^4_^5_^6_v5_v4_v3_v2_v1",5
"1372",38531,719.02999999281,"fa","fa",1,9,"^3_^4_^5_^6_v5_v4_v3_v2_v1",6
"1373",38531,446.729999996023,"mi","mi",1,9,"^3_^4_^5_^6_v5_v4_v3_v2_v1",7
"1374",38531,566.97999999579,"re","re",1,9,"^3_^4_^5_^6_v5_v4_v3_v2_v1",8
"1375",38531,870.560000003083,"do","do",1,9,"^3_^4_^5_^6_v5_v4_v3_v2_v1",9
"1376",38531,1036.724999998,"sol","sol",1,9,"v5_v4_v6+_^7_^3+_v3_v2_v5_^4",1
"1377",38531,694.320000002393,"fa","fa",1,9,"v5_v4_v6+_^7_^3+_v3_v2_v5_^4",2
"1378",38531,2070.78000000189,"la","te",0,9,"v5_v4_v6+_^7_^3+_v3_v2_v5_^4",3
"1379",38531,631.284999995725,"ti","ti",1,9,"v5_v4_v6+_^7_^3+_v3_v2_v5_^4",4
"1380",38531,957.729999994626,"do","mi",0,9,"v5_v4_v6+_^7_^3+_v3_v2_v5_^4",5
"1381",38531,1039.29999999679,"fi","mi",0,9,"v5_v4_v6+_^7_^3+_v3_v2_v5_^4",6
"1382",38531,503.020000003744,"fa","re",0,9,"v5_v4_v6+_^7_^3+_v3_v2_v5_^4",7
"1383",38531,2061.78999999957,"re","sol",0,9,"v5_v4_v6+_^7_^3+_v3_v2_v5_^4",8
"1384",38531,655.050000001211,"mi","fa",0,9,"v5_v4_v6+_^7_^3+_v3_v2_v5_^4",9
"1385",38531,2539.57999999681,"re","re",1,9,"^2_^4_v3_v2_v1_v3_v2+_^3_^5+",1
"1386",38531,3334.19500000309,"mi","fa",0,9,"^2_^4_v3_v2_v1_v3_v2+_^3_^5+",2
"1387",38531,1447.45500000147,"fa","mi",0,9,"^2_^4_v3_v2_v1_v3_v2+_^3_^5+",3
"1388",38531,342.534999996191,"mi","re",0,9,"^2_^4_v3_v2_v1_v3_v2+_^3_^5+",4
"1389",38531,863.019999996992,"do","do",1,9,"^2_^4_v3_v2_v1_v3_v2+_^3_^5+",5
"1390",38531,646.229999998584,"fi","mi",0,9,"^2_^4_v3_v2_v1_v3_v2+_^3_^5+",6
"1391",38531,623.285000001546,"sol","me",0,9,"^2_^4_v3_v2_v1_v3_v2+_^3_^5+",7
"1392",38531,2670.83500000439,"mi","mi",1,9,"^2_^4_v3_v2_v1_v3_v2+_^3_^5+",8
"1393",38531,925.974999998463,"la","le",0,9,"^2_^4_v3_v2_v1_v3_v2+_^3_^5+",9
"1394",39534,1343.14999999874,"fa","fa",1,2,"v4_v3",1
"1395",39534,622.830000000191,"mi","mi",1,2,"v4_v3",2
"1396",39534,4025.95499999926,"do","sol",0,2,"v5_v1+",1
"1397",39534,1903.11500000104,"ra","ra",1,2,"v5_v1+",2
"1398",39534,3189.98500000092,"re","re",1,2,"v2_v1",1
"1399",39534,495.240000000107,"do","do",1,2,"v2_v1",2
"1400",39534,4414.245,"te","ti",0,2,"v7_v3",1
"1401",39534,3574.58500000031,"mi","mi",1,2,"v7_v3",2
"1402",39534,1026.24000000104,"do","do",1,2,"^1_^2+",1
"1403",39534,1599.72999999998,"me","me",1,2,"^1_^2+",2
"1404",39534,3551.59499999892,"mi","mi",1,2,"3_^6",1
"1405",39534,638.950000000419,"la","la",1,2,"3_^6",2
"1406",39534,7738.47500000009,"re","re",1,2,"^2_v7-",1
"1407",39534,3998.82500000054,"le","te",0,2,"^2_v7-",2
"1408",39534,1381.94999999902,"mi","mi",1,2,"v3_v2",1
"1409",39534,686.970000000671,"re","re",1,2,"v3_v2",2
"1410",39534,5902.08999999962,"mi","mi",1,2,"^3_v4+",1
"1411",39534,486.864999998943,"fi","fi",1,2,"^3_v4+",2
"1412",39534,8451.1050000001,"re","sol",0,2,"^5_^1+",1
"1413",39534,678.439999999711,"le","ra",0,2,"^5_^1+",2
"1414",39534,2989.98000000033,"do","do",1,3,"1_v1+_^2",1
"1415",39534,623.579999999492,"ra","ra",1,3,"1_v1+_^2",2
"1416",39534,446.920000000275,"re","re",1,3,"1_v1+_^2",3
"1417",39534,1292.66500000085,"re","re",1,3,"v2_v5_^3",1
"1418",39534,3847.06000000006,"sol","sol",1,3,"v2_v5_^3",2
"1419",39534,1527.04499999888,"mi","mi",1,3,"v2_v5_^3",3
"1420",39534,14699.1999999991,"la","la",1,3,"6_^1_v5",1
"1421",39534,1406.27999999921,"do","do",1,3,"6_^1_v5",2
"1422",39534,622.945000000997,"sol","sol",1,3,"6_^1_v5",3
"1423",39534,1316.59499999834,"mi","mi",1,3,"v3_v2_v1",1
"1424",39534,494.660000000265,"re","re",1,3,"v3_v2_v1",2
"1425",39534,470.724999999162,"do","do",1,3,"v3_v2_v1",3
"1426",39534,14969.9300000011,"do","do",1,3,"v1_v7-_v7-",1
"1427",39534,422.609999999637,"te","te",1,3,"v1_v7-_v7-",2
"1428",39534,287.274999998743,"te","te",1,3,"v1_v7-_v7-",3
"1429",39534,4138.39000000001,"do","do",1,3,"v1_v7-_^7",1
"1430",39534,518.544999998994,"la","te",0,3,"v1_v7-_^7",2
"1431",39534,447.304999999702,"te","ti",0,3,"v1_v7-_^7",3
"1432",39534,2794.22999999952,"sol","sol",1,3,"v5_v4_v3",1
"1433",39534,550.685000000172,"fa","fa",1,3,"v5_v4_v3",2
"1434",39534,623.369999999297,"mi","mi",1,3,"v5_v4_v3",3
"1435",39534,2706.23499999964,"fa","fa",1,3,"v4_v3_v2",1
"1436",39534,737.665000000503,"mi","mi",1,3,"v4_v3_v2",2
"1437",39534,583.114999999525,"re","re",1,3,"v4_v3_v2",3
"1438",39534,16990.2600000005,"do","do",1,3,"^1_v6_v5+",1
"1439",39534,526.809999999357,"la","la",1,3,"^1_v6_v5+",2
"1440",39534,326.989999999641,"le","le",1,3,"^1_v6_v5+",3
"1441",39534,1311.00000000151,"sol","sol",1,5,"v5_^6+_^7_^1_5",1
"1442",39534,607.350000000326,"la","te",0,5,"v5_^6+_^7_^1_5",2
"1443",39534,566.189999999595,"ti","ti",1,5,"v5_^6+_^7_^1_5",3
"1444",39534,519.345000000554,"do","do",1,5,"v5_^6+_^7_^1_5",4
"1445",39534,575.179999999818,"sol","sol",1,5,"v5_^6+_^7_^1_5",5
"1446",39534,1586.39000000048,"sol","sol",1,5,"v5_v4_v3_v2_v1",1
"1447",39534,551.109999998473,"fa","fa",1,5,"v5_v4_v3_v2_v1",2
"1448",39534,511.234999999986,"mi","mi",1,5,"v5_v4_v3_v2_v1",3
"1449",39534,431.179999999586,"re","re",1,5,"v5_v4_v3_v2_v1",4
"1450",39534,551.140000001295,"do","do",1,5,"v5_v4_v3_v2_v1",5
"1451",39534,1819.27999999968,"la","la",1,5,"^6_v5_v4_v3_v2",1
"1452",39534,566.940000000643,"sol","sol",1,5,"^6_v5_v4_v3_v2",2
"1453",39534,567.139999999199,"fa","fa",1,5,"^6_v5_v4_v3_v2",3
"1454",39534,407.329999999958,"mi","mi",1,5,"^6_v5_v4_v3_v2",4
"1455",39534,519.355000000331,"re","re",1,5,"^6_v5_v4_v3_v2",5
"1456",39534,5614.45500000089,"sol","la",0,5,"^6_v4_v3_^4_^5",1
"1457",39534,535.149999999674,"mi","fa",0,5,"^6_v4_v3_^4_^5",2
"1458",39534,1679.26999999874,"re","mi",0,5,"^6_v4_v3_^4_^5",3
"1459",39534,472.429999999818,"mi","fa",0,5,"^6_v4_v3_^4_^5",4
"1460",39534,326.065000001108,"fa","sol",0,5,"^6_v4_v3_^4_^5",5
"1461",39534,1282.33000000007,"sol","sol",1,5,"v5_v4_v3_v2_v1",6
"1462",39534,519.189999999013,"fa","fa",1,5,"v5_v4_v3_v2_v1",7
"1463",39534,407.225000000792,"mi","mi",1,5,"v5_v4_v3_v2_v1",8
"1464",39534,591.135000000591,"re","re",1,5,"v5_v4_v3_v2_v1",9
"1465",39534,431.375000000116,"do","do",1,5,"v5_v4_v3_v2_v1",10
"1466",39534,2962.29999999923,"re","re",1,5,"v2_2_^3_^4_v2",1
"1467",39534,486.935000000871,"re","re",1,5,"v2_2_^3_^4_v2",2
"1468",39534,623.559999999939,"mi","mi",1,5,"v2_2_^3_^4_v2",3
"1469",39534,455.205000000191,"fa","fa",1,5,"v2_2_^3_^4_v2",4
"1470",39534,959.110000001499,"re","re",1,5,"v2_2_^3_^4_v2",5
"1471",39534,3887.0299999998,"sol","sol",1,5,"^5_^6_v5_v4_v3",1
"1472",39534,727.345000001136,"la","la",1,5,"^5_^6_v5_v4_v3",2
"1473",39534,711.40000000014,"sol","sol",1,5,"^5_^6_v5_v4_v3",3
"1474",39534,463.485000000219,"fa","fa",1,5,"^5_^6_v5_v4_v3",4
"1475",39534,382.8400000002,"mi","mi",1,5,"^5_^6_v5_v4_v3",5
"1476",39534,7439.35500000033,"fi","fi",1,5,"v5-_v3_3_^4+_v3",1
"1477",39534,671.159999999916,"mi","mi",1,5,"v5-_v3_3_^4+_v3",2
"1478",39534,367.154999999795,"mi","mi",1,5,"v5-_v3_3_^4+_v3",3
"1479",39534,423.395000001648,"fi","fi",1,5,"v5-_v3_3_^4+_v3",4
"1480",39534,399.310000000754,"mi","mi",1,5,"v5-_v3_3_^4+_v3",5
"1481",39534,1315.695000001,"do","do",1,7,"1_^3_v1_^5_v3_v2_^3",1
"1482",39534,5222.98500000034,"fa","mi",0,7,"1_^3_v1_^5_v3_v2_^3",2
"1483",39534,951.104999999981,"do","do",1,7,"1_^3_v1_^5_v3_v2_^3",3
"1484",39534,1143.18500000075,"sol","sol",1,7,"1_^3_v1_^5_v3_v2_^3",4
"1485",39534,735.239999999991,"fa","mi",0,7,"1_^3_v1_^5_v3_v2_^3",5
"1486",39534,495.235000000335,"mi","re",0,7,"1_^3_v1_^5_v3_v2_^3",6
"1487",39534,519.20500000054,"fa","mi",0,7,"1_^3_v1_^5_v3_v2_^3",7
"1488",39534,4430.53999999934,"te","la",0,7,"^6_v5+_v4_^5+_v3_v1_v7-",1
"1489",39534,1238.40999999992,"la","le",0,7,"^6_v5+_v4_^5+_v3_v1_v7-",2
"1490",39534,838.649999999674,"sol","fa",0,7,"^6_v5+_v4_^5+_v3_v1_v7-",3
"1491",39534,599.589999999851,"la","le",0,7,"^6_v5+_v4_^5+_v3_v1_v7-",4
"1492",39534,4119.21499999892,"fi","mi",0,7,"^6_v5+_v4_^5+_v3_v1_v7-",5
"1493",39534,630.755000000121,"me","do",0,7,"^6_v5+_v4_^5+_v3_v1_v7-",6
"1494",39534,495.234999998473,"re","te",0,7,"^6_v5+_v4_^5+_v3_v1_v7-",7
"1495",39534,8026.52499999944,"me","fa",0,7,"^4_v6-_v5-_^6-_^4_v2-_2-",1
"1496",39534,2271.07500000042,"te","le",0,7,"^4_v6-_v5-_^6-_^4_v2-_2-",2
"1497",39534,390.999999999767,"te","fi",0,7,"^4_v6-_v5-_^6-_^4_v2-_2-",3
"1498",39534,727.10999999987,"me","le",0,7,"^4_v6-_v5-_^6-_^4_v2-_2-",4
"1499",39534,1823.58499999996,"ra","fa",0,7,"^4_v6-_v5-_^6-_^4_v2-_2-",5
"1500",39534,2271.22000000067,"te","ra",0,7,"^4_v6-_v5-_^6-_^4_v2-_2-",6
"1501",39534,551.185000000289,"ti","ra",0,7,"^4_v6-_v5-_^6-_^4_v2-_2-",7
"1502",39534,3974.23999999953,"fa","fa",1,7,"^4_^5_^6_v5_v4_v3_v2",1
"1503",39534,639.159999998752,"sol","sol",1,7,"^4_^5_^6_v5_v4_v3_v2",2
"1504",39534,982.860000000102,"la","la",1,7,"^4_^5_^6_v5_v4_v3_v2",3
"1505",39534,422.945000000298,"sol","sol",1,7,"^4_^5_^6_v5_v4_v3_v2",4
"1506",39534,478.880000000587,"fa","fa",1,7,"^4_^5_^6_v5_v4_v3_v2",5
"1507",39534,439.254999999423,"mi","mi",1,7,"^4_^5_^6_v5_v4_v3_v2",6
"1508",39534,527.054999998538,"re","re",1,7,"^4_^5_^6_v5_v4_v3_v2",7
"1509",39534,935.600000000792,"do","do",1,7,"v1_^2_v1_v7_^1_^3_v2",1
"1510",39534,447.039999999106,"re","re",1,7,"v1_^2_v1_v7_^1_^3_v2",2
"1511",39534,487.184999999823,"do","do",1,7,"v1_^2_v1_v7_^1_^3_v2",3
"1512",39534,1136.52000000002,"ti","ti",1,7,"v1_^2_v1_v7_^1_^3_v2",4
"1513",39534,821.909999998752,"do","do",1,7,"v1_^2_v1_v7_^1_^3_v2",5
"1514",39534,5919.48000000045,"mi","mi",1,7,"v1_^2_v1_v7_^1_^3_v2",6
"1515",39534,518.974999999162,"re","re",1,7,"v1_^2_v1_v7_^1_^3_v2",7
"1516",39534,1174.23499999847,"do","do",1,7,"^1_v7_v6_v5_v4_v3_v2",1
"1517",39534,430.934999998426,"ti","ti",1,7,"^1_v7_v6_v5_v4_v3_v2",2
"1518",39534,479.339999999851,"la","la",1,7,"^1_v7_v6_v5_v4_v3_v2",3
"1519",39534,496.260000000009,"sol","sol",1,7,"^1_v7_v6_v5_v4_v3_v2",4
"1520",39534,686.474999998696,"fa","fa",1,7,"^1_v7_v6_v5_v4_v3_v2",5
"1521",39534,1055.02999999956,"mi","mi",1,7,"^1_v7_v6_v5_v4_v3_v2",6
"1522",39534,527.190000000643,"re","re",1,7,"^1_v7_v6_v5_v4_v3_v2",7
"1523",39534,1526.81500000111,"sol","sol",1,7,"^5_^6_v5_v4_v3_v2_v1",1
"1524",39534,743.105000001378,"la","la",1,7,"^5_^6_v5_v4_v3_v2_v1",2
"1525",39534,631.289999999339,"sol","sol",1,7,"^5_^6_v5_v4_v3_v2_v1",3
"1526",39534,479.284999999451,"fa","fa",1,7,"^5_^6_v5_v4_v3_v2_v1",4
"1527",39534,318.934999999357,"mi","mi",1,7,"^5_^6_v5_v4_v3_v2_v1",5
"1528",39534,503.455000000075,"re","re",1,7,"^5_^6_v5_v4_v3_v2_v1",6
"1529",39534,471.354999999516,"do","do",1,7,"^5_^6_v5_v4_v3_v2_v1",7
"1530",39534,4563.0700000003,"re","re",1,9,"^2_^3_^4_^5_^6_v5_v4_v3_v2",1
"1531",39534,902.934999998193,"mi","mi",1,9,"^2_^3_^4_^5_^6_v5_v4_v3_v2",2
"1532",39534,407.189999999711,"fa","fa",1,9,"^2_^3_^4_^5_^6_v5_v4_v3_v2",3
"1533",39534,471.359999999637,"sol","sol",1,9,"^2_^3_^4_^5_^6_v5_v4_v3_v2",4
"1534",39534,479.289999999339,"la","la",1,9,"^2_^3_^4_^5_^6_v5_v4_v3_v2",5
"1535",39534,479.090000000782,"sol","sol",1,9,"^2_^3_^4_^5_^6_v5_v4_v3_v2",6
"1536",39534,479.330000000075,"fa","fa",1,9,"^2_^3_^4_^5_^6_v5_v4_v3_v2",7
"1537",39534,439.215000000317,"mi","mi",1,9,"^2_^3_^4_^5_^6_v5_v4_v3_v2",8
"1538",39534,463.155000001192,"re","re",1,9,"^2_^3_^4_^5_^6_v5_v4_v3_v2",9
"1539",39534,1153.77500000061,"re","re",1,9,"^2_^4_v3_v2_v1_v3_v2+_^3_^5+",1
"1540",39534,542.405000000261,"fa","fa",1,9,"^2_^4_v3_v2_v1_v3_v2+_^3_^5+",2
"1541",39534,511.01500000013,"mi","mi",1,9,"^2_^4_v3_v2_v1_v3_v2+_^3_^5+",3
"1542",39534,463.579999999609,"re","re",1,9,"^2_^4_v3_v2_v1_v3_v2+_^3_^5+",4
"1543",39534,550.790000001201,"do","do",1,9,"^2_^4_v3_v2_v1_v3_v2+_^3_^5+",5
"1544",39534,510.970000001136,"me","mi",0,9,"^2_^4_v3_v2_v1_v3_v2+_^3_^5+",6
"1545",39534,1231.23500000103,"re","me",0,9,"^2_^4_v3_v2_v1_v3_v2+_^3_^5+",7
"1546",39534,6735.28500000061,"sol","mi",0,9,"^2_^4_v3_v2_v1_v3_v2+_^3_^5+",8
"1547",39534,3278.91499999887,"sol","le",0,9,"^2_^4_v3_v2_v1_v3_v2+_^3_^5+",9
"1548",39534,946.41500000027,"sol","sol",1,9,"v5_v4_v6+_^7_^3+_v3_v2_v5_^4",1
"1549",39534,623.780000000028,"fa","fa",1,9,"v5_v4_v6+_^7_^3+_v3_v2_v5_^4",2
"1550",39534,1550.53500000038,"ti","te",0,9,"v5_v4_v6+_^7_^3+_v3_v2_v5_^4",3
"1551",39534,1119.32499999949,"do","ti",0,9,"v5_v4_v6+_^7_^3+_v3_v2_v5_^4",4
"1552",39534,1551.25000000047,"me","mi",0,9,"v5_v4_v6+_^7_^3+_v3_v2_v5_^4",5
"1553",39534,551.35000000149,"re","mi",0,9,"v5_v4_v6+_^7_^3+_v3_v2_v5_^4",6
"1554",39534,1063.21000000043,"le","re",0,9,"v5_v4_v6+_^7_^3+_v3_v2_v5_^4",7
"1555",39534,631.594999999041,"la","sol",0,9,"v5_v4_v6+_^7_^3+_v3_v2_v5_^4",8
"1556",39534,2750.59500000137,"te","fa",0,9,"v5_v4_v6+_^7_^3+_v3_v2_v5_^4",9
"1557",39534,1398.25500000012,"mi","mi",1,9,"^3_^4_^5_^6_v5_v4_v3_v2_v1",1
"1558",39534,455.105000000913,"fa","fa",1,9,"^3_^4_^5_^6_v5_v4_v3_v2_v1",2
"1559",39534,1151.29999999958,"sol","sol",1,9,"^3_^4_^5_^6_v5_v4_v3_v2_v1",3
"1560",39534,486.414999999339,"la","la",1,9,"^3_^4_^5_^6_v5_v4_v3_v2_v1",4
"1561",39534,471.074999999488,"sol","sol",1,9,"^3_^4_^5_^6_v5_v4_v3_v2_v1",5
"1562",39534,390.930000001332,"fa","fa",1,9,"^3_^4_^5_^6_v5_v4_v3_v2_v1",6
"1563",39534,391.27500000177,"mi","mi",1,9,"^3_^4_^5_^6_v5_v4_v3_v2_v1",7
"1564",39534,366.990000000456,"re","re",1,9,"^3_^4_^5_^6_v5_v4_v3_v2_v1",8
"1565",39534,543.560000000056,"do","do",1,9,"^3_^4_^5_^6_v5_v4_v3_v2_v1",9
"1566",39534,8422.12500000093,"la","ti",0,9,"v7_v6_v5_^6_v5_v4_^5_^6_v5",1
"1567",39534,389.009999998845,"sol","la",0,9,"v7_v6_v5_^6_v5_v4_^5_^6_v5",2
"1568",39534,495.165000000503,"fa","sol",0,9,"v7_v6_v5_^6_v5_v4_^5_^6_v5",3
"1569",39534,383.35999999987,"sol","la",0,9,"v7_v6_v5_^6_v5_v4_^5_^6_v5",4
"1570",39534,343.50500000082,"fa","sol",0,9,"v7_v6_v5_^6_v5_v4_^5_^6_v5",5
"1571",39534,350.719999998575,"mi","fa",0,9,"v7_v6_v5_^6_v5_v4_^5_^6_v5",6
"1572",39534,303.400000000838,"fa","sol",0,9,"v7_v6_v5_^6_v5_v4_^5_^6_v5",7
"1573",39534,415.219999998808,"sol","la",0,9,"v7_v6_v5_^6_v5_v4_^5_^6_v5",8
"1574",39534,359.090000000084,"la","sol",0,9,"v7_v6_v5_^6_v5_v4_^5_^6_v5",9
"1575",39534,1614.75999999838,"mi","mi",1,9,"^3_^4_v2_v7_^1_^2_^3_3_^4",1
"1576",39534,527.169999999227,"fa","fa",1,9,"^3_^4_v2_v7_^1_^2_^3_3_^4",2
"1577",39534,511.265000000829,"mi","re",0,9,"^3_^4_v2_v7_^1_^2_^3_3_^4",3
"1578",39534,1183.16000000061,"re","ti",0,9,"^3_^4_v2_v7_^1_^2_^3_3_^4",4
"1579",39534,4864.10500000068,"ti","do",0,9,"^3_^4_v2_v7_^1_^2_^3_3_^4",5
"1580",39534,382.059999999823,"ti","re",0,9,"^3_^4_v2_v7_^1_^2_^3_3_^4",6
"1581",39534,663.610000001267,"do","mi",0,9,"^3_^4_v2_v7_^1_^2_^3_3_^4",7
"1582",39534,1599.0149999999,"mi","mi",1,9,"^3_^4_v2_v7_^1_^2_^3_3_^4",8
"1583",39534,1327.18000000017,"mi","fa",0,9,"^3_^4_v2_v7_^1_^2_^3_3_^4",9
"1584",39534,2555.81499999971,"sol","sol",1,9,"^5_^6_v5_v4_v3_v2_v1_^2_^3",1
"1585",39534,983.109999999171,"la","la",1,9,"^5_^6_v5_v4_v3_v2_v1_^2_^3",2
"1586",39534,719.124999999767,"sol","sol",1,9,"^5_^6_v5_v4_v3_v2_v1_^2_^3",3
"1587",39534,439.11999999918,"fa","fa",1,9,"^5_^6_v5_v4_v3_v2_v1_^2_^3",4
"1588",39534,423.034999999916,"mi","mi",1,9,"^5_^6_v5_v4_v3_v2_v1_^2_^3",5
"1589",39534,503.160000000382,"re","re",1,9,"^5_^6_v5_v4_v3_v2_v1_^2_^3",6
"1590",39534,439.06500000041,"do","do",1,9,"^5_^6_v5_v4_v3_v2_v1_^2_^3",7
"1591",39534,527.640000000363,"re","re",1,9,"^5_^6_v5_v4_v3_v2_v1_^2_^3",8
"1592",39534,495.419999999227,"mi","mi",1,9,"^5_^6_v5_v4_v3_v2_v1_^2_^3",9
"1593",4004,7805,"mi","mi",1,2,"v3_v2",1
"1594",4004,1965,"re","re",1,2,"v3_v2",2
"1595",4004,1554,"re","re",1,2,"v2_v1",1
"1596",4004,1136,"do","do",1,2,"v2_v1",2
"1597",4004,3349,"re","re",1,2,"^2_v7-",1
"1598",4004,1044,"te","te",1,2,"^2_v7-",2
"1599",4004,1242,"la","mi",0,2,"3_^6",1
"1600",4004,1158,"do","la",0,2,"3_^6",2
"1601",4004,6591,"fi","sol",0,2,"v5_v1+",1
"1602",4004,1741,"ra","ra",1,2,"v5_v1+",2
"1603",4004,7819,"la","sol",0,2,"^5_^1+",1
"1604",4004,5778,"mi","ra",0,2,"^5_^1+",2
"1605",4004,11754,"re","mi",0,2,"^3_v4+",1
"1606",4004,714,"fa","fi",0,2,"^3_v4+",2
"1607",4004,9516,"le","ti",0,2,"v7_v3",1
"1608",4004,765,"fa","mi",0,2,"v7_v3",2
"1609",4004,10785,"ti","do",0,2,"^1_^2+",1
"1610",4004,3114,"me","me",1,2,"^1_^2+",2
"1611",4004,4538,"fa","fa",1,2,"v4_v3",1
"1612",4004,702,"mi","mi",1,2,"v4_v3",2
"1613",4004,3119,"mi","mi",1,3,"v3_v2_v1",1
"1614",4004,1034,"re","re",1,3,"v3_v2_v1",2
"1615",4004,949,"do","do",1,3,"v3_v2_v1",3
"1616",4004,7840,"sol","do",0,3,"^1_v6_v5+",1
"1617",4004,629,"fi","la",0,3,"^1_v6_v5+",2
"1618",4004,1865,"mi","le",0,3,"^1_v6_v5+",3
"1619",4004,8920,"le","do",0,3,"v1_v7-_^7",1
"1620",4004,602,"fi","te",0,3,"v1_v7-_^7",2
"1621",4004,563,"sol","ti",0,3,"v1_v7-_^7",3
"1622",4004,2746,"fa","fa",1,3,"v4_v3_v2",1
"1623",4004,480,"mi","mi",1,3,"v4_v3_v2",2
"1624",4004,600,"re","re",1,3,"v4_v3_v2",3
"1625",4004,5187,"sol","sol",1,3,"v5_v4_v3",1
"1626",4004,711,"fa","fa",1,3,"v5_v4_v3",2
"1627",4004,1062,"mi","mi",1,3,"v5_v4_v3",3
