"","subject","rt","button_pressed_vector_c","trial_answer","score","trial_length","stimulus","serial_order"
"1",22189,8895.46499995049,"re","mi",0,2,"3_^6",1
"2",22189,5564.97000006493,"sol","la",0,2,"3_^6",2
"3",22189,14950.9799999651,"mi","mi",1,2,"v3_v2",1
"4",22189,903.240000014193,"re","re",1,2,"v3_v2",2
"5",22189,3822.56999996025,"do","re",0,2,"^2_v7-",1
"6",22189,17797.6100000087,"sol","te",0,2,"^2_v7-",2
"7",22189,11954.9549999647,"la","sol",0,2,"v5_v1+",1
"8",22189,19848.2749999966,"re","ra",0,2,"v5_v1+",2
"9",22189,11023.0549999978,"re","sol",0,2,"^5_^1+",1
"10",22189,3861.91500001587,"le","ra",0,2,"^5_^1+",2
"11",22189,34501.569999964,"le","mi",0,2,"^3_v4+",1
"12",22189,840.169999981299,"la","fi",0,2,"^3_v4+",2
"13",22189,27795.8050000016,"fa","fa",1,2,"v4_v3",1
"14",22189,5164.21499999706,"mi","mi",1,2,"v4_v3",2
"15",22189,14180.534999934,"fi","ti",0,2,"v7_v3",1
"16",22189,1671.36999999639,"ra","mi",0,2,"v7_v3",2
"17",22189,1553.31499991007,"do","do",1,2,"^1_^2+",1
"18",22189,5882.40000000224,"me","me",1,2,"^1_^2+",2
"19",22189,3452.98499998171,"ra","re",0,2,"v2_v1",1
"20",22189,2218.28999998979,"ti","do",0,2,"v2_v1",2
"21",22189,11433.480000007,"do","do",1,3,"^1_v6_v5+",1
"22",22189,8025.44999995735,"te","la",0,3,"^1_v6_v5+",2
"23",22189,1239.09500008449,"la","le",0,3,"^1_v6_v5+",3
"24",22189,13680.8650000021,"do","do",1,3,"v1_v7-_^7",1
"25",22189,2585.59999999125,"la","te",0,3,"v1_v7-_^7",2
"26",22189,605.045000091195,"te","ti",0,3,"v1_v7-_^7",3
"27",22189,8118.00999997649,"re","do",0,3,"1_v1+_^2",1
"28",22189,520.549999899231,"me","ra",0,3,"1_v1+_^2",2
"29",22189,540.440000011586,"mi","re",0,3,"1_v1+_^2",3
"30",22189,22899.3300000438,"do","la",0,3,"6_^1_v5",1
"31",22189,4531.33999998681,"mi","do",0,3,"6_^1_v5",2
"32",22189,563.419999903999,"fa","sol",0,3,"6_^1_v5",3
"33",22189,19301.7100000288,"do","re",0,3,"v2_v5_^3",1
"34",22189,1512.86500005517,"sol","sol",1,3,"v2_v5_^3",2
"35",22189,1262.89999997243,"mi","mi",1,3,"v2_v5_^3",3
"36",22189,21087.5450000167,"fa","fa",1,3,"v4_v3_v2",1
"37",22189,738.060000003316,"mi","mi",1,3,"v4_v3_v2",2
"38",22189,711.24500001315,"re","re",1,3,"v4_v3_v2",3
"39",22189,2030.03999998327,"mi","mi",1,3,"v3_v2_v1",1
"40",22189,660.885000019334,"re","re",1,3,"v3_v2_v1",2
"41",22189,767.529999953695,"do","do",1,3,"v3_v2_v1",3
"42",22189,11262.1250000084,"sol","sol",1,3,"v5_v4_v3",1
"43",22189,1684.44499990437,"fa","fa",1,3,"v5_v4_v3",2
"44",22189,1593.24000007473,"mi","mi",1,3,"v5_v4_v3",3
"45",22189,27495.0749999844,"me","do",0,3,"v1_v7-_7-",1
"46",22189,1305.92499999329,"do","te",0,3,"v1_v7-_7-",2
"47",22189,611.890000058338,"do","te",0,3,"v1_v7-_7-",3
"48",22189,17878.7399999565,"me","fi",0,5,"v5-_v3_3_^4+_v3",1
"49",22189,1011.6299999645,"re","mi",0,5,"v5-_v3_3_^4+_v3",2
"50",22189,454.524999950081,"re","mi",0,5,"v5-_v3_3_^4+_v3",3
"51",22189,561.744999955408,"me","fi",0,5,"v5-_v3_3_^4+_v3",4
"52",22189,575.454999925569,"re","mi",0,5,"v5-_v3_3_^4+_v3",5
"53",22189,2341.86500008218,"sol","sol",1,5,"v5_v4_v3_v2_v1 ",1
"54",22189,941.684999968857,"fa","fa",1,5,"v5_v4_v3_v2_v1 ",2
"55",22189,940.760000026785,"mi","mi",1,5,"v5_v4_v3_v2_v1 ",3
"56",22189,833.059999975376,"re","re",1,5,"v5_v4_v3_v2_v1 ",4
"57",22189,928.550000069663,"do","1 ",0,5,"v5_v4_v3_v2_v1 ",5
"58",22189,14346.8700000085,"sol","sol",1,5,"^5_^6_v5_v4_v3",1
"59",22189,1563.44000005629,"fa","la",0,5,"^5_^6_v5_v4_v3",2
"60",22189,3259.84499999322,"sol","sol",1,5,"^5_^6_v5_v4_v3",3
"61",22189,952.129999990575,"fa","fa",1,5,"^5_^6_v5_v4_v3",4
"62",22189,540.670000016689,"mi","mi",1,5,"^5_^6_v5_v4_v3",5
"63",22189,2231.68000008445,"sol","sol",1,5,"v5_v4_v3_v2_v1",1
"64",22189,1026.91000001505,"fa","fa",1,5,"v5_v4_v3_v2_v1",2
"65",22189,561.814999906346,"mi","mi",1,5,"v5_v4_v3_v2_v1",3
"66",22189,661.784999887459,"re","re",1,5,"v5_v4_v3_v2_v1",4
"67",22189,755.284999962896,"do","do",1,5,"v5_v4_v3_v2_v1",5
"68",22189,6107.90999990422,"ra","re",0,5,"v2_2_^3_^4_v2",1
"69",22189,765.485000098124,"ra","re",0,5,"v2_2_^3_^4_v2",2
"70",22189,5651.37500001583,"me","mi",0,5,"v2_2_^3_^4_v2",3
"71",22189,6587.65999996103,"mi","fa",0,5,"v2_2_^3_^4_v2",4
"72",22189,5072.71000009496,"ra","re",0,5,"v2_2_^3_^4_v2",5
"73",22189,22689.1900000628,"la","la",1,5,"^6_v4_v3_^4_^5",1
"74",22189,1649.5049999794,"sol","fa",0,5,"^6_v4_v3_^4_^5",2
"75",22189,1248.54499998037,"fa","mi",0,5,"^6_v4_v3_^4_^5",3
"76",22189,1097.84000006039,"mi","fa",0,5,"^6_v4_v3_^4_^5",4
"77",22189,1564.49500005692,"me","sol",0,5,"^6_v4_v3_^4_^5",5
"78",22189,23778.5999999614,"la","la",1,5,"^6_v5_v4_v3_v2",1
"79",22189,832.554999971762,"sol","sol",1,5,"^6_v5_v4_v3_v2",2
"80",22189,740.044999984093,"fa","fa",1,5,"^6_v5_v4_v3_v2",3
"81",22189,1665.06999998819,"mi","mi",1,5,"^6_v5_v4_v3_v2",4
"82",22189,948.949999990873,"re","re",1,5,"^6_v5_v4_v3_v2",5
"83",22189,16619.2049999954,"fa","sol",0,5,"v5_^6+_^7_^1_5",1
"84",22189,346.209999988787,"fa","te",0,5,"v5_^6+_^7_^1_5",2
"85",22189,1399.92499991786,"sol","ti",0,5,"v5_^6+_^7_^1_5",3
"86",22189,5701.2050000485,"le","do",0,5,"v5_^6+_^7_^1_5",4
"87",22189,810.749999945983,"fa","sol",0,5,"v5_^6+_^7_^1_5",5
"88",22189,18177.7800000273,"fa","la",0,7,"^6_v5+_v4_^5+_v3_v1_v7-",1
"89",22189,1141.13000000361,"me","le",0,7,"^6_v5+_v4_^5+_v3_v1_v7-",2
"90",22189,2771.7699999921,"re","fa",0,7,"^6_v5+_v4_^5+_v3_v1_v7-",3
"91",22189,927.219999954104,"do","le",0,7,"^6_v5+_v4_^5+_v3_v1_v7-",4
"92",22189,2352.04500006512,"la","mi",0,7,"^6_v5+_v4_^5+_v3_v1_v7-",5
"93",22189,694.825000013225,"ti","do",0,7,"^6_v5+_v4_^5+_v3_v1_v7-",6
"94",22189,1105.01499997918,"la","te",0,7,"^6_v5+_v4_^5+_v3_v1_v7-",7
"95",22189,5405.69000004325,"re","fa",0,7,"^4_^5_^6_v5_v4_v3_v2",1
"96",22189,838.909999933094,"mi","sol",0,7,"^4_^5_^6_v5_v4_v3_v2",2
"97",22189,669.484999962151,"re","la",0,7,"^4_^5_^6_v5_v4_v3_v2",3
"98",22189,654.53499997966,"do","sol",0,7,"^4_^5_^6_v5_v4_v3_v2",4
"99",22189,1628.34000005387,"ti","fa",0,7,"^4_^5_^6_v5_v4_v3_v2",5
"100",22189,583.220000029542,"la","mi",0,7,"^4_^5_^6_v5_v4_v3_v2",6
"101",22189,1391.98499999475,"sol","re",0,7,"^4_^5_^6_v5_v4_v3_v2",7
"102",22189,1264.96999990195,"do","do",1,7,"^1_v7_v6_v5_v4_v3_v2",1
"103",22189,669.755000039004,"ti","ti",1,7,"^1_v7_v6_v5_v4_v3_v2",2
"104",22189,633.085000095889,"la","la",1,7,"^1_v7_v6_v5_v4_v3_v2",3
"105",22189,632.759999949485,"sol","sol",1,7,"^1_v7_v6_v5_v4_v3_v2",4
"106",22189,762.204999919049,"fa","fa",1,7,"^1_v7_v6_v5_v4_v3_v2",5
"107",22189,690.850000013597,"mi","mi",1,7,"^1_v7_v6_v5_v4_v3_v2",6
"108",22189,2366.8399999151,"re","re",1,7,"^1_v7_v6_v5_v4_v3_v2",7
"109",22189,4479.25500001293,"la","fa",0,7,"^4_v6-_v5-_^6-_^4_v2-_2-",1
"110",22189,976.165000000037,"re","le",0,7,"^4_v6-_v5-_^6-_^4_v2-_2-",2
"111",22189,796.400000108406,"mi","fi",0,7,"^4_v6-_v5-_^6-_^4_v2-_2-",3
"112",22189,1891.44500007387,"re","le",0,7,"^4_v6-_v5-_^6-_^4_v2-_2-",4
"113",22189,1048.56999998447,"la","fa",0,7,"^4_v6-_v5-_^6-_^4_v2-_2-",5
"114",22189,1479.50499993749,"fi","ra",0,7,"^4_v6-_v5-_^6-_^4_v2-_2-",6
"115",22189,517.735000001267,"fi","ra",0,7,"^4_v6-_v5-_^6-_^4_v2-_2-",7
"116",22189,1461.81000000797,"me","do",0,7,"1_^3_v1_^5_v3_v2_^3",1
"117",22189,1173.13500004821,"ti","mi",0,7,"1_^3_v1_^5_v3_v2_^3",2
"118",22189,765.654999995604,"le","do",0,7,"1_^3_v1_^5_v3_v2_^3",3
"119",22189,856.904999935068,"fi","sol",0,7,"1_^3_v1_^5_v3_v2_^3",4
"120",22189,667.765000020154,"le","mi",0,7,"1_^3_v1_^5_v3_v2_^3",5
"121",22189,2423.53999998886,"fi","re",0,7,"1_^3_v1_^5_v3_v2_^3",6
"122",22189,1701.20999997016,"te","mi",0,7,"1_^3_v1_^5_v3_v2_^3",7
"123",22189,10592.1700000763,"sol","sol",1,7,"^5_^6_v5_v4_v3_v2_v1",1
"124",22189,901.169999968261,"la","la",1,7,"^5_^6_v5_v4_v3_v2_v1",2
"125",22189,675.879999995232,"sol","sol",1,7,"^5_^6_v5_v4_v3_v2_v1",3
"126",22189,713.034999906085,"fa","fa",1,7,"^5_^6_v5_v4_v3_v2_v1",4
"127",22189,1033.70000002906,"re","mi",0,7,"^5_^6_v5_v4_v3_v2_v1",5
"128",22189,791.489999974146,"do","re",0,7,"^5_^6_v5_v4_v3_v2_v1",6
"129",22189,626.784999971278,"do","do",1,7,"^5_^6_v5_v4_v3_v2_v1",7
"130",22189,5036.6300001042,"te","do",0,7,"v1_^2_v1_v7_^1_^3_v2",1
"131",22189,1236.74000008032,"do","re",0,7,"v1_^2_v1_v7_^1_^3_v2",2
"132",22189,559.705000021495,"te","do",0,7,"v1_^2_v1_v7_^1_^3_v2",3
"133",22189,641.735000070184,"le","ti",0,7,"v1_^2_v1_v7_^1_^3_v2",4
"134",22189,933.184999972582,"fa","do",0,7,"v1_^2_v1_v7_^1_^3_v2",5
"135",22189,740.519999992102,"le","mi",0,7,"v1_^2_v1_v7_^1_^3_v2",6
"136",22189,1491.50999996345,"sol","re",0,7,"v1_^2_v1_v7_^1_^3_v2",7
"137",22189,4003.35999997333,"do","ti",0,9,"v7_v6_v5_^6_v5_v4_^5_^6_v5",1
"138",22189,2315.16500003636,"te","la",0,9,"v7_v6_v5_^6_v5_v4_^5_^6_v5",2
"139",22189,1522.62000006158,"do","sol",0,9,"v7_v6_v5_^6_v5_v4_^5_^6_v5",3
"140",22189,696.409999975003,"te","la",0,9,"v7_v6_v5_^6_v5_v4_^5_^6_v5",4
"141",22189,912.600000039674,"le","sol",0,9,"v7_v6_v5_^6_v5_v4_^5_^6_v5",5
"142",22189,1699.3149999762,"fi","fa",0,9,"v7_v6_v5_^6_v5_v4_^5_^6_v5",6
"143",22189,861.83000006713,"le","sol",0,9,"v7_v6_v5_^6_v5_v4_^5_^6_v5",7
"144",22189,1078.28500005417,"fi","la",0,9,"v7_v6_v5_^6_v5_v4_^5_^6_v5",8
"145",22189,769.854999962263,"fa","sol",0,9,"v7_v6_v5_^6_v5_v4_^5_^6_v5",9
"146",22189,2716.04500000831,"fa","mi",0,9,"^3_^4_v2_v7_^1_^2_^3_3_^4",1
"147",22189,772.035000030883,"sol","fa",0,9,"^3_^4_v2_v7_^1_^2_^3_3_^4",2
"148",22189,574.619999970309,"fa","re",0,9,"^3_^4_v2_v7_^1_^2_^3_3_^4",3
"149",22189,2051.46499990951,"re","ti",0,9,"^3_^4_v2_v7_^1_^2_^3_3_^4",4
"150",22189,1907.04499999993,"mi","do",0,9,"^3_^4_v2_v7_^1_^2_^3_3_^4",5
"151",22189,577.580000041053,"re","re",1,9,"^3_^4_v2_v7_^1_^2_^3_3_^4",6
"152",22189,661.730000050738,"do","mi",0,9,"^3_^4_v2_v7_^1_^2_^3_3_^4",7
"153",22189,551.74500006251,"re","mi",0,9,"^3_^4_v2_v7_^1_^2_^3_3_^4",8
"154",22189,790.299999993294,"mi","fa",0,9,"^3_^4_v2_v7_^1_^2_^3_3_^4",9
"155",22189,1363.43500006478,"do","sol",0,9,"v5_v4_v6+_^7_^3+_v3_v2_v5_^4",1
"156",22189,531.929999939166,"ti","fa",0,9,"v5_v4_v6+_^7_^3+_v3_v2_v5_^4",2
"157",22189,809.149999986403,"fi","te",0,9,"v5_v4_v6+_^7_^3+_v3_v2_v5_^4",3
"158",22189,1327.47000001837,"te","ti",0,9,"v5_v4_v6+_^7_^3+_v3_v2_v5_^4",4
"159",22189,746.805000002496,"le","3+",0,9,"v5_v4_v6+_^7_^3+_v3_v2_v5_^4",5
"160",22189,1071.01499999408,"me","mi",0,9,"v5_v4_v6+_^7_^3+_v3_v2_v5_^4",6
"161",22189,1306.37499992736,"sol","re",0,9,"v5_v4_v6+_^7_^3+_v3_v2_v5_^4",7
"162",22189,554.810000001453,"fi","sol",0,9,"v5_v4_v6+_^7_^3+_v3_v2_v5_^4",8
"163",22189,1213.23999995366,"re","fa",0,9,"v5_v4_v6+_^7_^3+_v3_v2_v5_^4",9
"164",22189,1651.25999995507,"re","re",1,9,"^2_^4_v3_v2_v1_v3_v2+_^3_^5+",1
"165",22189,814.110000035726,"te","fa",0,9,"^2_^4_v3_v2_v1_v3_v2+_^3_^5+",2
"166",22189,1083.23500002734,"la","mi",0,9,"^2_^4_v3_v2_v1_v3_v2+_^3_^5+",3
"167",22189,1700.52499999292,"sol","re",0,9,"^2_^4_v3_v2_v1_v3_v2+_^3_^5+",4
"168",22189,925.979999941774,"fa","do",0,9,"^2_^4_v3_v2_v1_v3_v2+_^3_^5+",5
"169",22189,675.285000004806,"le","mi",0,9,"^2_^4_v3_v2_v1_v3_v2+_^3_^5+",6
"170",22189,625.024999957532,"sol","me",0,9,"^2_^4_v3_v2_v1_v3_v2+_^3_^5+",7
"171",22189,648.010000004433,"mi","mi",1,9,"^2_^4_v3_v2_v1_v3_v2+_^3_^5+",8
"172",22189,857.390000019222,"re","le",0,9,"^2_^4_v3_v2_v1_v3_v2+_^3_^5+",9
"173",22189,2410.96999996807,"sol","sol",1,9,"^5_^6_v5_v4_v3_v2_v1_^2_^3",1
"174",22189,590.059999958612,"la","la",1,9,"^5_^6_v5_v4_v3_v2_v1_^2_^3",2
"175",22189,1040.76499992516,"sol","sol",1,9,"^5_^6_v5_v4_v3_v2_v1_^2_^3",3
"176",22189,740.434999926947,"fa","fa",1,9,"^5_^6_v5_v4_v3_v2_v1_^2_^3",4
"177",22189,741.049999953248,"mi","mi",1,9,"^5_^6_v5_v4_v3_v2_v1_^2_^3",5
"178",22189,848.35500002373,"re","re",1,9,"^5_^6_v5_v4_v3_v2_v1_^2_^3",6
"179",22189,1592.79499994591,"do","do",1,9,"^5_^6_v5_v4_v3_v2_v1_^2_^3",7
"180",22189,725.609999964945,"re","re",1,9,"^5_^6_v5_v4_v3_v2_v1_^2_^3",8
"181",22189,683.770000003278,"mi","mi",1,9,"^5_^6_v5_v4_v3_v2_v1_^2_^3",9
"182",22189,16950.130000012,"do","re",0,9,"^2_^3_^4_^5_^6_v5_v4_v3_v2",1
"183",22189,655.660000047646,"re","mi",0,9,"^2_^3_^4_^5_^6_v5_v4_v3_v2",2
"184",22189,510.540000046603,"me","fa",0,9,"^2_^3_^4_^5_^6_v5_v4_v3_v2",3
"185",22189,719.144999980927,"fa","sol",0,9,"^2_^3_^4_^5_^6_v5_v4_v3_v2",4
"186",22189,770.295000053011,"sol","la",0,9,"^2_^3_^4_^5_^6_v5_v4_v3_v2",5
"187",22189,740.699999965727,"fa","sol",0,9,"^2_^3_^4_^5_^6_v5_v4_v3_v2",6
"188",22189,733.224999974482,"me","fa",0,9,"^2_^3_^4_^5_^6_v5_v4_v3_v2",7
"189",22189,612.959999940358,"re","mi",0,9,"^2_^3_^4_^5_^6_v5_v4_v3_v2",8
"190",22189,1262.88000005297,"do","re",0,9,"^2_^3_^4_^5_^6_v5_v4_v3_v2",9
"191",22189,2581.14499994554,"fa","mi",0,9,"^3_^4_^5 _^6_v5_v4_v3_v2_v1",1
"192",22189,3253.81999998353,"sol","fa",0,9,"^3_^4_^5 _^6_v5_v4_v3_v2_v1",2
"193",22189,1005.34999999218,"fa","5 ",0,9,"^3_^4_^5 _^6_v5_v4_v3_v2_v1",3
"194",22189,1320.4600000754,"mi","la",0,9,"^3_^4_^5 _^6_v5_v4_v3_v2_v1",4
"195",22189,915.860000066459,"re","sol",0,9,"^3_^4_^5 _^6_v5_v4_v3_v2_v1",5
"196",22189,2889.36999998987,"do","fa",0,9,"^3_^4_^5 _^6_v5_v4_v3_v2_v1",6
"197",22189,1055.64499995671,"la","mi",0,9,"^3_^4_^5 _^6_v5_v4_v3_v2_v1",7
"198",22189,776.799999992363,"sol","re",0,9,"^3_^4_^5 _^6_v5_v4_v3_v2_v1",8
"199",22189,590.304999961518,"la","do",0,9,"^3_^4_^5 _^6_v5_v4_v3_v2_v1",9
"200",4559,1525.08499997202,"do","do",1,2,"^1_^2+",1
"201",4559,1505.28500007931,"me","me",1,2,"^1_^2+",2
"202",4559,1293.95500000101,"re","re",1,2,"^2_v7-",1
"203",4559,1066.51500007138,"te","te",1,2,"^2_v7-",2
"204",4559,967.049999977462,"re","re",1,2,"v2_v1",1
"205",4559,864.844999974594,"do","do",1,2,"v2_v1",2
"206",4559,1218.5649999883,"mi","mi",1,2,"^3_v4+",1
"207",4559,673.640000051819,"fi","fi",1,2,"^3_v4+",2
"208",4559,1165.29999999329,"fa","fa",1,2,"v4_v3",1
"209",4559,426.184999989346,"mi","mi",1,2,"v4_v3",2
"210",4559,1169.24000007566,"sol","sol",1,2,"v5_v1+",1
"211",4559,628.625000012107,"ra","ra",1,2,"v5_v1+",2
"212",4559,996.820000000298,"mi","mi",1,2,"v3_v2",1
"213",4559,482.480000006035,"re","re",1,2,"v3_v2",2
"214",4559,938.090000068769,"mi","mi",1,2,"3_^6",1
"215",4559,988.664999953471,"la","la",1,2,"3_^6",2
"216",4559,998.660000041127,"sol","sol",1,2,"^5_^1+",1
"217",4559,718.394999974407,"ra","ra",1,2,"^5_^1+",2
"218",4559,792.589999968186,"ti","ti",1,2,"v7_v3",1
"219",4559,840.94499994535,"mi","mi",1,2,"v7_v3",2
"220",4559,1039.77500007022,"fa","fa",1,3,"v4_v3_v2",1
"221",4559,470.865000039339,"mi","mi",1,3,"v4_v3_v2",2
"222",4559,730.054999934509,"re","re",1,3,"v4_v3_v2",3
"223",4559,757.734999991953,"do","do",1,3,"v1_v7-_^7",1
"224",4559,504.935000091791,"te","te",1,3,"v1_v7-_^7",2
"225",4559,369.485000032,"ti","ti",1,3,"v1_v7-_^7",3
"226",4559,770.985000068322,"do","do",1,3,"^1_v6_v5+",1
"227",4559,776.190000004135,"la","la",1,3,"^1_v6_v5+",2
"228",4559,435.949999955483,"le","le",1,3,"^1_v6_v5+",3
"229",4559,1282.44999994058,"la","la",1,3,"6_^1_v5",1
"230",4559,808.365000062622,"do","do",1,3,"6_^1_v5",2
"231",4559,831.450000056066,"sol","sol",1,3,"6_^1_v5",3
"232",4559,1045.69499997888,"sol","sol",1,3,"v5_v4_v3",1
"233",4559,540.55499995593,"fa","fa",1,3,"v5_v4_v3",2
"234",4559,357.135000056587,"mi","mi",1,3,"v5_v4_v3",3
"235",4559,527.590000070632,"do","do",1,3,"1_v1+_^2",1
"236",4559,1011.18999999017,"re","ra",0,3,"1_v1+_^2",2
"237",4559,2563.33999999333,"re","re",1,3,"1_v1+_^2",3
"238",4559,1397.23000000231,"mi","mi",1,3,"v3_v2_v1",1
"239",4559,875.239999964833,"re","re",1,3,"v3_v2_v1",2
"240",4559,629.164999932982,"do","do",1,3,"v3_v2_v1",3
"241",4559,1302.51999991015,"do","do",1,3,"v1_v7-_7-",1
"242",4559,640.064999926835,"te","te",1,3,"v1_v7-_7-",2
"243",4559,302.374999970198,"te","te",1,3,"v1_v7-_7-",3
"244",4559,1035.55000002962,"re","re",1,3,"v2_v5_^3",1
"245",4559,1056.42000003718,"sol","sol",1,3,"v2_v5_^3",2
"246",4559,662.144999951124,"mi","mi",1,3,"v2_v5_^3",3
"247",4559,1042.3750000773,"sol","sol",1,5,"v5_^6+_^7_^1_5",1
"248",4559,584.140000049956,"la","te",0,5,"v5_^6+_^7_^1_5",2
"249",4559,594.859999953769,"ti","ti",1,5,"v5_^6+_^7_^1_5",3
"250",4559,472.964999964461,"do","do",1,5,"v5_^6+_^7_^1_5",4
"251",4559,807.144999969751,"sol","sol",1,5,"v5_^6+_^7_^1_5",5
"252",4559,1494.2850000225,"fi","fi",1,5,"v5-_v3_3_^4+_v3",1
"253",4559,471.55500005465,"mi","mi",1,5,"v5-_v3_3_^4+_v3",2
"254",4559,201.079999911599,"mi","mi",1,5,"v5-_v3_3_^4+_v3",3
"255",4559,887.970000039786,"fi","fi",1,5,"v5-_v3_3_^4+_v3",4
"256",4559,582.480000099167,"mi","mi",1,5,"v5-_v3_3_^4+_v3",5
"257",4559,1069.85500000883,"sol","sol",1,5,"^5_^6_v5_v4_v3",1
"258",4559,752.345000044443,"la","la",1,5,"^5_^6_v5_v4_v3",2
"259",4559,505.030000000261,"sol","sol",1,5,"^5_^6_v5_v4_v3",3
"260",4559,504.904999979772,"fa","fa",1,5,"^5_^6_v5_v4_v3",4
"261",4559,437.740000081249,"mi","mi",1,5,"^5_^6_v5_v4_v3",5
"262",4559,1050.84499996156,"sol","sol",1,5,"v5_v4_v3_v2_v1",1
"263",4559,504.914999939501,"fa","fa",1,5,"v5_v4_v3_v2_v1",2
"264",4559,527.780000003986,"mi","mi",1,5,"v5_v4_v3_v2_v1",3
"265",4559,1125.06999995094,"re","re",1,5,"v5_v4_v3_v2_v1",4
"266",4559,627.500000060536,"do","do",1,5,"v5_v4_v3_v2_v1",5
"267",4559,890.100000076927,"re","re",1,5,"v2_2_^3_^4_v2",1
"268",4559,302.585000055842,"re","re",1,5,"v2_2_^3_^4_v2",2
"269",4559,617.654999950901,"mi","mi",1,5,"v2_2_^3_^4_v2",3
"270",4559,572.200000053272,"fa","fa",1,5,"v2_2_^3_^4_v2",4
"271",4559,1011.5700000897,"re","re",1,5,"v2_2_^3_^4_v2",5
"272",4559,1338.38500001002,"la","la",1,5,"^6_v4_v3_^4_^5",1
"273",4559,1292.40999999456,"fa","fa",1,5,"^6_v4_v3_^4_^5",2
"274",4559,640.030000009574,"mi","mi",1,5,"^6_v4_v3_^4_^5",3
"275",4559,448.689999990165,"fa","fa",1,5,"^6_v4_v3_^4_^5",4
"276",4559,549.759999965318,"sol","sol",1,5,"^6_v4_v3_^4_^5",5
"277",4559,1368.26500005554,"sol","sol",1,5,"v5_v4_v3_v2_v1 ",1
"278",4559,863.610000000335,"fa","fa",1,5,"v5_v4_v3_v2_v1 ",2
"279",4559,447.825000039302,"mi","mi",1,5,"v5_v4_v3_v2_v1 ",3
"280",4559,527.484999969602,"re","re",1,5,"v5_v4_v3_v2_v1 ",4
"281",4559,786.699999938719,"do","1 ",0,5,"v5_v4_v3_v2_v1 ",5
"282",4559,966.634999960661,"la","la",1,5,"^6_v5_v4_v3_v2",1
"283",4559,730.23500002455,"sol","sol",1,5,"^6_v5_v4_v3_v2",2
"284",4559,572.299999999814,"fa","fa",1,5,"^6_v5_v4_v3_v2",3
"285",4559,527.790000080131,"mi","mi",1,5,"^6_v5_v4_v3_v2",4
"286",4559,527.560000075027,"re","re",1,5,"^6_v5_v4_v3_v2",5
"287",4559,903.060000040568,"sol","sol",1,7,"^5_^6_v5_v4_v3_v2_v1",1
"288",4559,672.414999920875,"la","la",1,7,"^5_^6_v5_v4_v3_v2_v1",2
"289",4559,707.915000035428,"sol","sol",1,7,"^5_^6_v5_v4_v3_v2_v1",3
"290",4559,572.624999913387,"fa","fa",1,7,"^5_^6_v5_v4_v3_v2_v1",4
"291",4559,448.500000056811,"mi","mi",1,7,"^5_^6_v5_v4_v3_v2_v1",5
"292",4559,527.559999958612,"re","re",1,7,"^5_^6_v5_v4_v3_v2_v1",6
"293",4559,673.83499990683,"do","do",1,7,"^5_^6_v5_v4_v3_v2_v1",7
"294",4559,883.694999967702,"fa","fa",1,7,"^4_^5_^6_v5_v4_v3_v2",1
"295",4559,595.229999977164,"sol","sol",1,7,"^4_^5_^6_v5_v4_v3_v2",2
"296",4559,775.979999918491,"la","la",1,7,"^4_^5_^6_v5_v4_v3_v2",3
"297",4559,728.899999987334,"sol","sol",1,7,"^4_^5_^6_v5_v4_v3_v2",4
"298",4559,808.539999998175,"fa","fa",1,7,"^4_^5_^6_v5_v4_v3_v2",5
"299",4559,482.649999903515,"mi","mi",1,7,"^4_^5_^6_v5_v4_v3_v2",6
"300",4559,730.04499997478,"re","re",1,7,"^4_^5_^6_v5_v4_v3_v2",7
"301",4559,3775.67499992438,"la","la",1,7,"^6_v5+_v4_^5+_v3_v1_v7-",1
"302",4559,1753.84000001941,"le","le",1,7,"^6_v5+_v4_^5+_v3_v1_v7-",2
"303",4559,1719.8549999157,"fa","fa",1,7,"^6_v5+_v4_^5+_v3_v1_v7-",3
"304",4559,2451.24499988742,"le","le",1,7,"^6_v5+_v4_^5+_v3_v1_v7-",4
"305",4559,1348.46500004642,"fa","mi",0,7,"^6_v5+_v4_^5+_v3_v1_v7-",5
"306",4559,471.474999911152,"mi","do",0,7,"^6_v5+_v4_^5+_v3_v1_v7-",6
"307",4559,786.069999914616,"te","te",1,7,"^6_v5+_v4_^5+_v3_v1_v7-",7
"308",4559,1067.80499999877,"do","do",1,7,"v1_^2_v1_v7_^1_^3_v2",1
"309",4559,902.170000015758,"ti","re",0,7,"v1_^2_v1_v7_^1_^3_v2",2
"310",4559,1602.93000005186,"do","do",1,7,"v1_^2_v1_v7_^1_^3_v2",3
"311",4559,595.35999991931,"re","ti",0,7,"v1_^2_v1_v7_^1_^3_v2",4
"312",4559,707.599999965169,"do","do",1,7,"v1_^2_v1_v7_^1_^3_v2",5
"313",4559,932.159999967553,"mi","mi",1,7,"v1_^2_v1_v7_^1_^3_v2",6
"314",4559,493.725000065751,"re","re",1,7,"v1_^2_v1_v7_^1_^3_v2",7
"315",4559,986.900000018068,"do","do",1,7,"^1_v7_v6_v5_v4_v3_v2",1
"316",4559,460.675000096671,"ti","ti",1,7,"^1_v7_v6_v5_v4_v3_v2",2
"317",4559,516.660000081174,"la","la",1,7,"^1_v7_v6_v5_v4_v3_v2",3
"318",4559,683.720000088215,"sol","sol",1,7,"^1_v7_v6_v5_v4_v3_v2",4
"319",4559,1066.53000006918,"fa","fa",1,7,"^1_v7_v6_v5_v4_v3_v2",5
"320",4559,595.165000064299,"mi","mi",1,7,"^1_v7_v6_v5_v4_v3_v2",6
"321",4559,606.230000033975,"re","re",1,7,"^1_v7_v6_v5_v4_v3_v2",7
"322",4559,1661.59999999218,"do","do",1,7,"1_^3_v1_^5_v3_v2_^3",1
"323",4559,752.545000053942,"mi","mi",1,7,"1_^3_v1_^5_v3_v2_^3",2
"324",4559,853.980000014417,"do","do",1,7,"1_^3_v1_^5_v3_v2_^3",3
"325",4559,1258.99000000209,"sol","sol",1,7,"1_^3_v1_^5_v3_v2_^3",4
"326",4559,966.295000049286,"mi","mi",1,7,"1_^3_v1_^5_v3_v2_^3",5
"327",4559,482.604999910109,"re","re",1,7,"1_^3_v1_^5_v3_v2_^3",6
"328",4559,696.209999965504,"mi","mi",1,7,"1_^3_v1_^5_v3_v2_^3",7
"329",4559,5603.14000002109,"fa","fa",1,7,"^4_v6-_v5-_^6-_^4_v2-_2-",1
"330",4559,1258.64000001457,"le","le",1,7,"^4_v6-_v5-_^6-_^4_v2-_2-",2
"331",4559,561.320000095293,"sol","fi",0,7,"^4_v6-_v5-_^6-_^4_v2-_2-",3
"332",4559,448.730000061914,"le","le",1,7,"^4_v6-_v5-_^6-_^4_v2-_2-",4
"333",4559,3508.82999994792,"fa","fa",1,7,"^4_v6-_v5-_^6-_^4_v2-_2-",5
"334",4559,1078.7400000263,"do","ra",0,7,"^4_v6-_v5-_^6-_^4_v2-_2-",6
"335",4559,212.640000041574,"do","ra",0,7,"^4_v6-_v5-_^6-_^4_v2-_2-",7
"336",4559,1356.73999995925,"sol","sol",1,9,"^5_^6_v5_v4_v3_v2_v1_^2_^3",1
"337",4559,761.83500001207,"la","la",1,9,"^5_^6_v5_v4_v3_v2_v1_^2_^3",2
"338",4559,605.630000005476,"sol","sol",1,9,"^5_^6_v5_v4_v3_v2_v1_^2_^3",3
"339",4559,628.370000049472,"fa","fa",1,9,"^5_^6_v5_v4_v3_v2_v1_^2_^3",4
"340",4559,674.054999952205,"mi","mi",1,9,"^5_^6_v5_v4_v3_v2_v1_^2_^3",5
"341",4559,876.329999999143,"re","re",1,9,"^5_^6_v5_v4_v3_v2_v1_^2_^3",6
"342",4559,583.650000044145,"do","do",1,9,"^5_^6_v5_v4_v3_v2_v1_^2_^3",7
"343",4559,707.724999985658,"re","re",1,9,"^5_^6_v5_v4_v3_v2_v1_^2_^3",8
"344",4559,617.450000019744,"mi","mi",1,9,"^5_^6_v5_v4_v3_v2_v1_^2_^3",9
"345",4559,1479.2900000466,"re","re",1,9,"^2_^4_v3_v2_v1_v3_v2+_^3_^5+",1
"346",4559,977.064999984577,"fa","fa",1,9,"^2_^4_v3_v2_v1_v3_v2+_^3_^5+",2
"347",4559,786.495000007562,"mi","mi",1,9,"^2_^4_v3_v2_v1_v3_v2+_^3_^5+",3
"348",4559,1032.850000076,"do","re",0,9,"^2_^4_v3_v2_v1_v3_v2+_^3_^5+",4
"349",4559,1967.8600000916,"re","do",0,9,"^2_^4_v3_v2_v1_v3_v2+_^3_^5+",5
"350",4559,1224.97500001919,"do","mi",0,9,"^2_^4_v3_v2_v1_v3_v2+_^3_^5+",6
"351",4559,2305.26499997359,"mi","me",0,9,"^2_^4_v3_v2_v1_v3_v2+_^3_^5+",7
"352",4559,966.220000060275,"sol","mi",0,9,"^2_^4_v3_v2_v1_v3_v2+_^3_^5+",8
"353",4559,437.314999988303,"le","le",1,9,"^2_^4_v3_v2_v1_v3_v2+_^3_^5+",9
"354",4559,1312.09000002127,"re","re",1,9,"^2_^3_^4_^5_^6_v5_v4_v3_v2",1
"355",4559,730.175000033341,"mi","mi",1,9,"^2_^3_^4_^5_^6_v5_v4_v3_v2",2
"356",4559,504.979999968782,"fa","fa",1,9,"^2_^3_^4_^5_^6_v5_v4_v3_v2",3
"357",4559,549.804999958724,"sol","sol",1,9,"^2_^3_^4_^5_^6_v5_v4_v3_v2",4
"358",4559,696.564999991097,"la","la",1,9,"^2_^3_^4_^5_^6_v5_v4_v3_v2",5
"359",4559,685.060000047088,"sol","sol",1,9,"^2_^3_^4_^5_^6_v5_v4_v3_v2",6
"360",4559,582.500000018626,"fa","fa",1,9,"^2_^3_^4_^5_^6_v5_v4_v3_v2",7
"361",4559,573.790000053123,"mi","mi",1,9,"^2_^3_^4_^5_^6_v5_v4_v3_v2",8
"362",4559,595.515000051819,"re","re",1,9,"^2_^3_^4_^5_^6_v5_v4_v3_v2",9
"363",4559,1113.9049999183,"ti","ti",1,9,"v7_v6_v5_^6_v5_v4_^5_^6_v5",1
"364",4559,572.33500003349,"la","la",1,9,"v7_v6_v5_^6_v5_v4_^5_^6_v5",2
"365",4559,865.044999984093,"sol","sol",1,9,"v7_v6_v5_^6_v5_v4_^5_^6_v5",3
"366",4559,741.310000070371,"la","la",1,9,"v7_v6_v5_^6_v5_v4_^5_^6_v5",4
"367",4559,606.350000016391,"sol","sol",1,9,"v7_v6_v5_^6_v5_v4_^5_^6_v5",5
"368",4559,526.895000017248,"fa","fa",1,9,"v7_v6_v5_^6_v5_v4_^5_^6_v5",6
"369",4559,696.32999994792,"sol","sol",1,9,"v7_v6_v5_^6_v5_v4_^5_^6_v5",7
"370",4559,707.345000002533,"la","la",1,9,"v7_v6_v5_^6_v5_v4_^5_^6_v5",8
"371",4559,572.294999961741,"sol","sol",1,9,"v7_v6_v5_^6_v5_v4_^5_^6_v5",9
"372",4559,4545.09499995038,"sol","sol",1,9,"v5_v4_v6+_^7_^3+_v3_v2_v5_^4",1
"373",4559,605.874999891967,"fi","fa",0,9,"v5_v4_v6+_^7_^3+_v3_v2_v5_^4",2
"374",4559,493.900000001304,"fa","te",0,9,"v5_v4_v6+_^7_^3+_v3_v2_v5_^4",3
"375",4559,1348.29500003252,"la","ti",0,9,"v5_v4_v6+_^7_^3+_v3_v2_v5_^4",4
"376",4559,875.579999992624,"mi","3+",0,9,"v5_v4_v6+_^7_^3+_v3_v2_v5_^4",5
"377",4559,1371.16000009701,"me","mi",0,9,"v5_v4_v6+_^7_^3+_v3_v2_v5_^4",6
"378",4559,729.954999987967,"re","re",1,9,"v5_v4_v6+_^7_^3+_v3_v2_v5_^4",7
"379",4559,1393.71999993455,"le","sol",0,9,"v5_v4_v6+_^7_^3+_v3_v2_v5_^4",8
"380",4559,887.180000077933,"fa","fa",1,9,"v5_v4_v6+_^7_^3+_v3_v2_v5_^4",9
"381",4559,1395.35999996588,"mi","mi",1,9,"^3_^4_^5 _^6_v5_v4_v3_v2_v1",1
"382",4559,617.8549999604,"fa","fa",1,9,"^3_^4_^5 _^6_v5_v4_v3_v2_v1",2
"383",4559,538.575000013225,"sol","5 ",0,9,"^3_^4_^5 _^6_v5_v4_v3_v2_v1",3
"384",4559,550.329999998212,"la","la",1,9,"^3_^4_^5 _^6_v5_v4_v3_v2_v1",4
"385",4559,1078.46499991138,"sol","sol",1,9,"^3_^4_^5 _^6_v5_v4_v3_v2_v1",5
"386",4559,707.614999962971,"fa","fa",1,9,"^3_^4_^5 _^6_v5_v4_v3_v2_v1",6
"387",4559,809.024999965914,"mi","mi",1,9,"^3_^4_^5 _^6_v5_v4_v3_v2_v1",7
"388",4559,572.539999964647,"re","re",1,9,"^3_^4_^5 _^6_v5_v4_v3_v2_v1",8
"389",4559,752.399999997579,"do","do",1,9,"^3_^4_^5 _^6_v5_v4_v3_v2_v1",9
"390",4559,1161.88999998849,"mi","mi",1,9,"^3_^4_v2_v7_^1_^2_^3_3_^4",1
"391",4559,471.235000062734,"fa","fa",1,9,"^3_^4_v2_v7_^1_^2_^3_3_^4",2
"392",4559,617.804999928921,"re","re",1,9,"^3_^4_v2_v7_^1_^2_^3_3_^4",3
"393",4559,944.115000078455,"ti","ti",1,9,"^3_^4_v2_v7_^1_^2_^3_3_^4",4
"394",4559,1022.46499992907,"do","do",1,9,"^3_^4_v2_v7_^1_^2_^3_3_^4",5
"395",4559,741.380000021309,"re","re",1,9,"^3_^4_v2_v7_^1_^2_^3_3_^4",6
"396",4559,775.124999927357,"mi","mi",1,9,"^3_^4_v2_v7_^1_^2_^3_3_^4",7
"397",4559,403.595000039786,"mi","mi",1,9,"^3_^4_v2_v7_^1_^2_^3_3_^4",8
"398",4559,426.474999985658,"fa","fa",1,9,"^3_^4_v2_v7_^1_^2_^3_3_^4",9
"399",4983,6001.21499993838,"mi","mi",1,2,"^3_v4+",1
"400",4983,3012.94000004418,"fi","fi",1,2,"^3_v4+",2
"401",4983,1512.40999996662,"mi","mi",1,2,"v3_v2",1
"402",4983,1283.84499996901,"re","re",1,2,"v3_v2",2
"403",4983,2200.46500000171,"sol","sol",1,2,"^5_^1+",1
"404",4983,10894.464999903,"ra","ra",1,2,"^5_^1+",2
"405",4983,3744.5000000298,"mi","mi",1,2,"3_^6",1
"406",4983,5444.17000003159,"la","la",1,2,"3_^6",2
"407",4983,851.869999896735,"re","re",1,2,"v2_v1",1
"408",4983,799.700000090525,"do","do",1,2,"v2_v1",2
"409",4983,1702.69000018016,"ti","ti",1,2,"v7_v3",1
"410",4983,2584.21000000089,"mi","mi",1,2,"v7_v3",2
"411",4983,1294.23499992117,"sol","sol",1,2,"v5_v1+",1
"412",4983,3494.16999984533,"ra","ra",1,2,"v5_v1+",2
"413",4983,2380.29000000097,"re","re",1,2,"^2_v7-",1
"414",4983,3008.26000003144,"te","te",1,2,"^2_v7-",2
"415",4983,2345.84999992512,"fa","fa",1,2,"v4_v3",1
"416",4983,1464.3399999477,"mi","mi",1,2,"v4_v3",2
"417",4983,2807.0500001777,"do","do",1,2,"^1_^2+",1
"418",4983,1324.63000016287,"me","me",1,2,"^1_^2+",2
"419",4983,1746.85500003397,"do","do",1,3,"^1_v6_v5+",1
"420",4983,2999.0149999503,"la","la",1,3,"^1_v6_v5+",2
"421",4983,1945.39500004612,"le","le",1,3,"^1_v6_v5+",3
"422",4983,1322.84499984235,"do","do",1,3,"v1_v7-_^7",1
"423",4983,1552.33499989845,"te","te",1,3,"v1_v7-_^7",2
"424",4983,927.389999851584,"ti","ti",1,3,"v1_v7-_^7",3
"425",4983,1450.95500000753,"do","do",1,3,"1_v1+_^2",1
"426",4983,1940.78999990597,"ra","ra",1,3,"1_v1+_^2",2
"427",4983,778.170000063255,"re","re",1,3,"1_v1+_^2",3
"428",4983,2221.39000007883,"re","re",1,3,"v2_v5_^3",1
"429",4983,5200.47000003979,"sol","sol",1,3,"v2_v5_^3",2
"430",4983,1353.45999989659,"mi","mi",1,3,"v2_v5_^3",3
"431",4983,2007.39499996416,"la","la",1,3,"6_^1_v5",1
"432",4983,1710.94999997877,"do","do",1,3,"6_^1_v5",2
"433",4983,1641.83999993838,"sol","sol",1,3,"6_^1_v5",3
"434",4983,854.659999953583,"do","do",1,3,"v1_v7-_7-",1
"435",4983,2019.73499986343,"te","te",1,3,"v1_v7-_7-",2
"436",4983,554.850000189617,"te","te",1,3,"v1_v7-_7-",3
"437",4983,892.025000182912,"sol","sol",1,3,"v5_v4_v3",1
"438",4983,713.890000013635,"fa","fa",1,3,"v5_v4_v3",2
"439",4983,1246.76499981433,"mi","mi",1,3,"v5_v4_v3",3
"440",4983,983.699999982491,"fa","fa",1,3,"v4_v3_v2",1
"441",4983,892.810000106692,"mi","mi",1,3,"v4_v3_v2",2
"442",4983,1433.94499993883,"re","re",1,3,"v4_v3_v2",3
"443",4983,1237.03499999829,"mi","mi",1,3,"v3_v2_v1",1
"444",4983,666.620000032708,"re","re",1,3,"v3_v2_v1",2
"445",4983,611.670000012964,"do","do",1,3,"v3_v2_v1",3
"446",4983,3599.72000005655,"la","la",1,5,"^6_v5_v4_v3_v2",1
"447",4983,751.619999995455,"sol","sol",1,5,"^6_v5_v4_v3_v2",2
"448",4983,918.580000055954,"fa","fa",1,5,"^6_v5_v4_v3_v2",3
"449",4983,2090.07999999449,"mi","mi",1,5,"^6_v5_v4_v3_v2",4
"450",4983,895.944999996573,"re","re",1,5,"^6_v5_v4_v3_v2",5
"451",4983,986.574999988079,"sol","sol",1,5,"v5_v4_v3_v2_v1 ",1
"452",4983,681.379999965429,"fa","fa",1,5,"v5_v4_v3_v2_v1 ",2
"453",4983,838.425000198185,"mi","mi",1,5,"v5_v4_v3_v2_v1 ",3
"454",4983,599.495000205934,"re","re",1,5,"v5_v4_v3_v2_v1 ",4
"455",4983,540.395000018179,"do","1 ",0,5,"v5_v4_v3_v2_v1 ",5
"456",4983,3090.0950001087,"re","re",1,5,"v2_2_^3_^4_v2",1
"457",4983,1052.65500000678,"re","re",1,5,"v2_2_^3_^4_v2",2
"458",4983,900.245000142604,"mi","mi",1,5,"v2_2_^3_^4_v2",3
"459",4983,603.880000067875,"fa","fa",1,5,"v2_2_^3_^4_v2",4
"460",4983,698.199999984354,"re","re",1,5,"v2_2_^3_^4_v2",5
"461",4983,1209.44000012241,"fi","fi",1,5,"v5-_v3_3_^4+_v3",1
"462",4983,1228.17500005476,"mi","mi",1,5,"v5-_v3_3_^4+_v3",2
"463",4983,632.354999892414,"mi","mi",1,5,"v5-_v3_3_^4+_v3",3
"464",4983,870.19499996677,"fi","fi",1,5,"v5-_v3_3_^4+_v3",4
"465",4983,720.059999963269,"mi","mi",1,5,"v5-_v3_3_^4+_v3",5
"466",4983,834.375000093132,"sol","sol",1,5,"v5_^6+_^7_^1_5",1
"467",4983,760.750000132248,"la","te",0,5,"v5_^6+_^7_^1_5",2
"468",4983,789.564999984577,"ti","ti",1,5,"v5_^6+_^7_^1_5",3
"469",4983,596.129999961704,"do","do",1,5,"v5_^6+_^7_^1_5",4
"470",4983,682.280000066385,"sol","sol",1,5,"v5_^6+_^7_^1_5",5
"471",4983,1135.25500008836,"la","la",1,5,"^6_v4_v3_^4_^5",1
"472",4983,1145.86999989115,"fa","fa",1,5,"^6_v4_v3_^4_^5",2
"473",4983,679.735000012442,"mi","mi",1,5,"^6_v4_v3_^4_^5",3
"474",4983,524.379999842495,"fa","fa",1,5,"^6_v4_v3_^4_^5",4
"475",4983,1536.08999983408,"sol","sol",1,5,"^6_v4_v3_^4_^5",5
"476",4983,1321.04000006802,"sol","sol",1,5,"v5_v4_v3_v2_v1",1
"477",4983,642.04499986954,"fa","fa",1,5,"v5_v4_v3_v2_v1",2
"478",4983,1102.32000006363,"mi","mi",1,5,"v5_v4_v3_v2_v1",3
"479",4983,636.189999990165,"re","re",1,5,"v5_v4_v3_v2_v1",4
"480",4983,615.969999926165,"do","do",1,5,"v5_v4_v3_v2_v1",5
"481",4983,1217.98000019044,"sol","sol",1,5,"^5_^6_v5_v4_v3",1
"482",4983,810.270000016317,"la","la",1,5,"^5_^6_v5_v4_v3",2
"483",4983,639.960000058636,"sol","sol",1,5,"^5_^6_v5_v4_v3",3
"484",4983,620.525000151247,"fa","fa",1,5,"^5_^6_v5_v4_v3",4
"485",4983,534.389999927953,"mi","mi",1,5,"^5_^6_v5_v4_v3",5
"486",4983,1494.01500006206,"do","do",1,7,"^1_v7_v6_v5_v4_v3_v2",1
"487",4983,950.294999871403,"ti","ti",1,7,"^1_v7_v6_v5_v4_v3_v2",2
"488",4983,698.205000022426,"la","la",1,7,"^1_v7_v6_v5_v4_v3_v2",3
"489",4983,980.020000133663,"sol","sol",1,7,"^1_v7_v6_v5_v4_v3_v2",4
"490",4983,668.394999811426,"fa","fa",1,7,"^1_v7_v6_v5_v4_v3_v2",5
"491",4983,523.985000094399,"mi","mi",1,7,"^1_v7_v6_v5_v4_v3_v2",6
"492",4983,782.314999960363,"re","re",1,7,"^1_v7_v6_v5_v4_v3_v2",7
"493",4983,1014.1050000675,"do","do",1,7,"1_^3_v1_^5_v3_v2_^3",1
"494",4983,1238.29500004649,"mi","mi",1,7,"1_^3_v1_^5_v3_v2_^3",2
"495",4983,822.970000095665,"do","do",1,7,"1_^3_v1_^5_v3_v2_^3",3
"496",4983,1170.62500002794,"sol","sol",1,7,"1_^3_v1_^5_v3_v2_^3",4
"497",4983,1527.50999992713,"mi","mi",1,7,"1_^3_v1_^5_v3_v2_^3",5
"498",4983,625.844999914989,"re","re",1,7,"1_^3_v1_^5_v3_v2_^3",6
"499",4983,538.36499992758,"mi","mi",1,7,"1_^3_v1_^5_v3_v2_^3",7
"500",4983,5485.32500001602,"fa","fa",1,7,"^4_v6-_v5-_^6-_^4_v2-_2-",1
"501",4983,5776.1200000532,"le","le",1,7,"^4_v6-_v5-_^6-_^4_v2-_2-",2
"502",4983,1378.53000010364,"fi","fi",1,7,"^4_v6-_v5-_^6-_^4_v2-_2-",3
"503",4983,1163.84499985725,"le","le",1,7,"^4_v6-_v5-_^6-_^4_v2-_2-",4
"504",4983,1462.22500014119,"fa","fa",1,7,"^4_v6-_v5-_^6-_^4_v2-_2-",5
"505",4983,12604.9450000282,"ra","ra",1,7,"^4_v6-_v5-_^6-_^4_v2-_2-",6
"506",4983,507.609999971464,"ra","ra",1,7,"^4_v6-_v5-_^6-_^4_v2-_2-",7
"507",4983,3008.8649999816,"la","la",1,7,"^6_v5+_v4_^5+_v3_v1_v7-",1
"508",4983,4923.52499999106,"le","le",1,7,"^6_v5+_v4_^5+_v3_v1_v7-",2
"509",4983,2203.02499993704,"fa","fa",1,7,"^6_v5+_v4_^5+_v3_v1_v7-",3
"510",4983,2756.5150000155,"le","le",1,7,"^6_v5+_v4_^5+_v3_v1_v7-",4
"511",4983,2272.79499988072,"mi","mi",1,7,"^6_v5+_v4_^5+_v3_v1_v7-",5
"512",4983,610.09500012733,"do","do",1,7,"^6_v5+_v4_^5+_v3_v1_v7-",6
"513",4983,312.734999926761,"do","te",0,7,"^6_v5+_v4_^5+_v3_v1_v7-",7
"514",4983,1578.51500017568,"do","do",1,7,"v1_^2_v1_v7_^1_^3_v2",1
"515",4983,879.995000082999,"re","re",1,7,"v1_^2_v1_v7_^1_^3_v2",2
"516",4983,727.629999862984,"do","do",1,7,"v1_^2_v1_v7_^1_^3_v2",3
"517",4983,1308.30999999307,"ti","ti",1,7,"v1_^2_v1_v7_^1_^3_v2",4
"518",4983,1058.04000003263,"do","do",1,7,"v1_^2_v1_v7_^1_^3_v2",5
"519",4983,1569.84000001103,"mi","mi",1,7,"v1_^2_v1_v7_^1_^3_v2",6
"520",4983,586.519999895245,"re","re",1,7,"v1_^2_v1_v7_^1_^3_v2",7
"521",4983,1446.55999983661,"fa","fa",1,7,"^4_^5_^6_v5_v4_v3_v2",1
"522",4983,881.300000008196,"sol","sol",1,7,"^4_^5_^6_v5_v4_v3_v2",2
"523",4983,790.255000116304,"la","la",1,7,"^4_^5_^6_v5_v4_v3_v2",3
"524",4983,671.924999915063,"sol","sol",1,7,"^4_^5_^6_v5_v4_v3_v2",4
"525",4983,674.329999834299,"fa","fa",1,7,"^4_^5_^6_v5_v4_v3_v2",5
"526",4983,844.975000014529,"mi","mi",1,7,"^4_^5_^6_v5_v4_v3_v2",6
"527",4983,633.879999862984,"re","re",1,7,"^4_^5_^6_v5_v4_v3_v2",7
"528",4983,1149.86000000499,"sol","sol",1,7,"^5_^6_v5_v4_v3_v2_v1",1
"529",4983,665.860000066459,"la","la",1,7,"^5_^6_v5_v4_v3_v2_v1",2
"530",4983,682.814999949187,"sol","sol",1,7,"^5_^6_v5_v4_v3_v2_v1",3
"531",4983,599.849999882281,"fa","fa",1,7,"^5_^6_v5_v4_v3_v2_v1",4
"532",4983,632.419999921694,"mi","mi",1,7,"^5_^6_v5_v4_v3_v2_v1",5
"533",4983,539.779999991879,"re","re",1,7,"^5_^6_v5_v4_v3_v2_v1",6
"534",4983,484.319999814034,"do","do",1,7,"^5_^6_v5_v4_v3_v2_v1",7
"535",4983,3409.63499993086,"sol","sol",1,9,"^5_^6_v5_v4_v3_v2_v1_^2_^3",1
"536",4983,617.97000002116,"la","la",1,9,"^5_^6_v5_v4_v3_v2_v1_^2_^3",2
"537",4983,572.230000048876,"sol","sol",1,9,"^5_^6_v5_v4_v3_v2_v1_^2_^3",3
"538",4983,619.76999999024,"fa","fa",1,9,"^5_^6_v5_v4_v3_v2_v1_^2_^3",4
"539",4983,616.604999871925,"mi","mi",1,9,"^5_^6_v5_v4_v3_v2_v1_^2_^3",5
"540",4983,760.354999918491,"re","re",1,9,"^5_^6_v5_v4_v3_v2_v1_^2_^3",6
"541",4983,650.464999955148,"do","do",1,9,"^5_^6_v5_v4_v3_v2_v1_^2_^3",7
"542",4983,546.994999982417,"re","re",1,9,"^5_^6_v5_v4_v3_v2_v1_^2_^3",8
"543",4983,508.004999952391,"mi","mi",1,9,"^5_^6_v5_v4_v3_v2_v1_^2_^3",9
"544",4983,8895.62500012107,"ti","ti",1,9,"v7_v6_v5_^6_v5_v4_^5_^6_v5",1
"545",4983,669.720000121742,"la","la",1,9,"v7_v6_v5_^6_v5_v4_^5_^6_v5",2
"546",4983,962.474999949336,"sol","sol",1,9,"v7_v6_v5_^6_v5_v4_^5_^6_v5",3
"547",4983,1626.30999996327,"fa","la",0,9,"v7_v6_v5_^6_v5_v4_^5_^6_v5",4
"548",4983,842.794999945909,"sol","sol",1,9,"v7_v6_v5_^6_v5_v4_^5_^6_v5",5
"549",4983,828.539999900386,"la","fa",0,9,"v7_v6_v5_^6_v5_v4_^5_^6_v5",6
"550",4983,596.404999960214,"sol","sol",1,9,"v7_v6_v5_^6_v5_v4_^5_^6_v5",7
"551",4983,527.830000035465,"fa","la",0,9,"v7_v6_v5_^6_v5_v4_^5_^6_v5",8
"552",4983,523.144999984652,"sol","sol",1,9,"v7_v6_v5_^6_v5_v4_^5_^6_v5",9
"553",4983,2530.96499992535,"re","re",1,9,"^2_^3_^4_^5_^6_v5_v4_v3_v2",1
"554",4983,2204.48499987833,"mi","mi",1,9,"^2_^3_^4_^5_^6_v5_v4_v3_v2",2
"555",4983,1090.39500006475,"fa","fa",1,9,"^2_^3_^4_^5_^6_v5_v4_v3_v2",3
"556",4983,772.154999896884,"sol","sol",1,9,"^2_^3_^4_^5_^6_v5_v4_v3_v2",4
"557",4983,706.375000067055,"la","la",1,9,"^2_^3_^4_^5_^6_v5_v4_v3_v2",5
"558",4983,648.135000141338,"sol","sol",1,9,"^2_^3_^4_^5_^6_v5_v4_v3_v2",6
"559",4983,656.659999862313,"fa","fa",1,9,"^2_^3_^4_^5_^6_v5_v4_v3_v2",7
"560",4983,523.559999885038,"mi","mi",1,9,"^2_^3_^4_^5_^6_v5_v4_v3_v2",8
"561",4983,1474.36499991454,"re","re",1,9,"^2_^3_^4_^5_^6_v5_v4_v3_v2",9
"562",4983,1832.22500002012,"mi","mi",1,9,"^3_^4_v2_v7_^1_^2_^3_3_^4",1
"563",4983,1525.88500012644,"fa","fa",1,9,"^3_^4_v2_v7_^1_^2_^3_3_^4",2
"564",4983,1617.70999990404,"re","re",1,9,"^3_^4_v2_v7_^1_^2_^3_3_^4",3
"565",4983,1108.51499997079,"ti","ti",1,9,"^3_^4_v2_v7_^1_^2_^3_3_^4",4
"566",4983,6941.52999995276,"do","do",1,9,"^3_^4_v2_v7_^1_^2_^3_3_^4",5
"567",4983,1241.47500004619,"re","re",1,9,"^3_^4_v2_v7_^1_^2_^3_3_^4",6
"568",4983,928.365000057966,"mi","mi",1,9,"^3_^4_v2_v7_^1_^2_^3_3_^4",7
"569",4983,881.909999996424,"mi","mi",1,9,"^3_^4_v2_v7_^1_^2_^3_3_^4",8
"570",4983,592.355000087991,"fa","fa",1,9,"^3_^4_v2_v7_^1_^2_^3_3_^4",9
"571",4983,1624.74999995902,"re","re",1,9,"^2_^4_v3_v2_v1_v3_v2+_^3_^5+",1
"572",4983,944.750000024214,"fa","fa",1,9,"^2_^4_v3_v2_v1_v3_v2+_^3_^5+",2
"573",4983,2020.39499999955,"mi","mi",1,9,"^2_^4_v3_v2_v1_v3_v2+_^3_^5+",3
"574",4983,1094.8699999135,"re","re",1,9,"^2_^4_v3_v2_v1_v3_v2+_^3_^5+",4
"575",4983,11697.5650000386,"ra","do",0,9,"^2_^4_v3_v2_v1_v3_v2+_^3_^5+",5
"576",4983,1576.48500008509,"mi","mi",1,9,"^2_^4_v3_v2_v1_v3_v2+_^3_^5+",6
"577",4983,475.910000037402,"me","me",1,9,"^2_^4_v3_v2_v1_v3_v2+_^3_^5+",7
"578",4983,546.055000042543,"mi","mi",1,9,"^2_^4_v3_v2_v1_v3_v2+_^3_^5+",8
"579",4983,2110.37499993108,"le","le",1,9,"^2_^4_v3_v2_v1_v3_v2+_^3_^5+",9
"580",4983,3391.34999993257,"sol","sol",1,9,"v5_v4_v6+_^7_^3+_v3_v2_v5_^4",1
"581",4983,687.845000065863,"fa","fa",1,9,"v5_v4_v6+_^7_^3+_v3_v2_v5_^4",2
"582",4983,2528.64500018768,"la","te",0,9,"v5_v4_v6+_^7_^3+_v3_v2_v5_^4",3
"583",4983,834.34999990277,"ti","ti",1,9,"v5_v4_v6+_^7_^3+_v3_v2_v5_^4",4
"584",4983,1988.570000045,"mi","3+",0,9,"v5_v4_v6+_^7_^3+_v3_v2_v5_^4",5
"585",4983,1634.2949999962,"re","mi",0,9,"v5_v4_v6+_^7_^3+_v3_v2_v5_^4",6
"586",4983,1510.28500008397,"sol","re",0,9,"v5_v4_v6+_^7_^3+_v3_v2_v5_^4",7
"587",4983,2588.44499988481,"la","sol",0,9,"v5_v4_v6+_^7_^3+_v3_v2_v5_^4",8
"588",4983,2856.71500000171,"mi","fa",0,9,"v5_v4_v6+_^7_^3+_v3_v2_v5_^4",9
"589",4983,1187.36499990337,"mi","mi",1,9,"^3_^4_^5 _^6_v5_v4_v3_v2_v1",1
"590",4983,737.384999869391,"fa","fa",1,9,"^3_^4_^5 _^6_v5_v4_v3_v2_v1",2
"591",4983,726.539999945089,"sol","5 ",0,9,"^3_^4_^5 _^6_v5_v4_v3_v2_v1",3
"592",4983,1007.94999999925,"la","la",1,9,"^3_^4_^5 _^6_v5_v4_v3_v2_v1",4
"593",4983,564.525000052527,"sol","sol",1,9,"^3_^4_^5 _^6_v5_v4_v3_v2_v1",5
"594",4983,718.720000004396,"fa","fa",1,9,"^3_^4_^5 _^6_v5_v4_v3_v2_v1",6
"595",4983,639.379999833182,"mi","mi",1,9,"^3_^4_^5 _^6_v5_v4_v3_v2_v1",7
"596",4983,532.665000064299,"re","re",1,9,"^3_^4_^5 _^6_v5_v4_v3_v2_v1",8
"597",4983,563.740000128746,"do","do",1,9,"^3_^4_^5 _^6_v5_v4_v3_v2_v1",9
"598",55070,1547.75499994867,"do","do",1,2,"^1_^2+",1
"599",55070,1030.92000004835,"me","me",1,2,"^1_^2+",2
"600",55070,5705.54499991704,"mi","mi",1,2,"3_^6",1
"601",55070,1295.18499993719,"la","la",1,2,"3_^6",2
"602",55070,1044.03999994975,"re","re",1,2,"v2_v1",1
"603",55070,665.990000008605,"do","do",1,2,"v2_v1",2
"604",55070,941.509999916889,"fa","fa",1,2,"v4_v3",1
"605",55070,783.565000048839,"mi","mi",1,2,"v4_v3",2
"606",55070,2931.03500001598,"re","re",1,2,"^2_v7-",1
"607",55070,1011.52000005823,"te","te",1,2,"^2_v7-",2
"608",55070,1255.14000002295,"mi","mi",1,2,"v3_v2",1
"609",55070,695.505000068806,"re","re",1,2,"v3_v2",2
"610",55070,12750.0900001032,"sol","sol",1,2,"v5_v1+",1
"611",55070,1544.21500000171,"ra","ra",1,2,"v5_v1+",2
"612",55070,10044.579999987,"mi","mi",1,2,"^3_v4+",1
"613",55070,977.234999998473,"fi","fi",1,2,"^3_v4+",2
"614",55070,1596.26499994192,"sol","sol",1,2,"^5_^1+",1
"615",55070,4563.36000002921,"ra","ra",1,2,"^5_^1+",2
"616",55070,936.989999958314,"ti","ti",1,2,"v7_v3",1
"617",55070,971.434999955818,"mi","mi",1,2,"v7_v3",2
"618",55070,1906.09499998391,"re","re",1,3,"v2_v5_^3",1
"619",55070,2173.94999996759,"sol","sol",1,3,"v2_v5_^3",2
"620",55070,976.78500006441,"mi","mi",1,3,"v2_v5_^3",3
"621",55070,2130.39499998558,"do","do",1,3,"^1_v6_v5+",1
"622",55070,1183.03499999456,"la","la",1,3,"^1_v6_v5+",2
"623",55070,996.685000020079,"le","le",1,3,"^1_v6_v5+",3
"624",55070,1121.09999998938,"fa","fa",1,3,"v4_v3_v2",1
"625",55070,586.36000007391,"mi","mi",1,3,"v4_v3_v2",2
"626",55070,566.375000053085,"re","re",1,3,"v4_v3_v2",3
"627",55070,980.619999929331,"sol","sol",1,3,"v5_v4_v3",1
"628",55070,743.550000013784,"fa","fa",1,3,"v5_v4_v3",2
"629",55070,621.980000054464,"mi","mi",1,3,"v5_v4_v3",3
"630",55070,1259.48999996763,"mi","mi",1,3,"v3_v2_v1",1
"631",55070,593.55999995023,"re","re",1,3,"v3_v2_v1",2
"632",55070,554.525000043213,"do","do",1,3,"v3_v2_v1",3
"633",55070,2646.62999997381,"la","la",1,3,"6_^1_v5",1
"634",55070,680.845000082627,"do","do",1,3,"6_^1_v5",2
"635",55070,923.94999996759,"sol","sol",1,3,"6_^1_v5",3
"636",55070,1144.10000003409,"do","do",1,3,"1_v1+_^2",1
"637",55070,545.849999994971,"ra","ra",1,3,"1_v1+_^2",2
"638",55070,501.569999963976,"re","re",1,3,"1_v1+_^2",3
"639",55070,1428.42500004917,"do","do",1,3,"v1_v7-_^7",1
"640",55070,560.569999972358,"te","te",1,3,"v1_v7-_^7",2
"641",55070,484.270000015385,"ti","ti",1,3,"v1_v7-_^7",3
"642",55070,884.925000020303,"do","do",1,3,"v1_v7-_7-",1
"643",55070,520.774999982677,"te","te",1,3,"v1_v7-_7-",2
"644",55070,455.339999985881,"te","te",1,3,"v1_v7-_7-",3
"645",55070,1962.4499999918,"la","la",1,5,"^6_v4_v3_^4_^5",1
"646",55070,2042.51499997918,"fa","fa",1,5,"^6_v4_v3_^4_^5",2
"647",55070,1917.91499999817,"mi","mi",1,5,"^6_v4_v3_^4_^5",3
"648",55070,907.419999944977,"fa","fa",1,5,"^6_v4_v3_^4_^5",4
"649",55070,677.454999997281,"sol","sol",1,5,"^6_v4_v3_^4_^5",5
"650",55070,1457.91499991901,"re","re",1,5,"v2_2_^3_^4_v2",1
"651",55070,540.259999921545,"re","re",1,5,"v2_2_^3_^4_v2",2
"652",55070,4714.4500000868,"mi","mi",1,5,"v2_2_^3_^4_v2",3
"653",55070,537.895000074059,"fa","fa",1,5,"v2_2_^3_^4_v2",4
"654",55070,658.195000025444,"re","re",1,5,"v2_2_^3_^4_v2",5
"655",55070,901.229999959469,"sol","sol",1,5,"v5_v4_v3_v2_v1 ",1
"656",55070,517.070000059903,"fa","fa",1,5,"v5_v4_v3_v2_v1 ",2
"657",55070,407.009999966249,"mi","mi",1,5,"v5_v4_v3_v2_v1 ",3
"658",55070,510.965000023134,"re","re",1,5,"v5_v4_v3_v2_v1 ",4
"659",55070,470.994999981485,"do","1 ",0,5,"v5_v4_v3_v2_v1 ",5
"660",55070,1248.87500004843,"la","la",1,5,"^6_v5_v4_v3_v2",1
"661",55070,496.099999989383,"sol","sol",1,5,"^6_v5_v4_v3_v2",2
"662",55070,509.309999994002,"fa","fa",1,5,"^6_v5_v4_v3_v2",3
"663",55070,410.524999955669,"mi","mi",1,5,"^6_v5_v4_v3_v2",4
"664",55070,454.209999996237,"re","re",1,5,"^6_v5_v4_v3_v2",5
"665",55070,1587.93499995954,"sol","sol",1,5,"v5_^6+_^7_^1_5",1
"666",55070,527.230000006966,"la","te",0,5,"v5_^6+_^7_^1_5",2
"667",55070,625.804999959655,"ti","ti",1,5,"v5_^6+_^7_^1_5",3
"668",55070,634.089999948628,"do","do",1,5,"v5_^6+_^7_^1_5",4
"669",55070,884.144999901764,"sol","sol",1,5,"v5_^6+_^7_^1_5",5
"670",55070,1241.72499997076,"sol","sol",1,5,"^5_^6_v5_v4_v3",1
"671",55070,485.895000048913,"la","la",1,5,"^5_^6_v5_v4_v3",2
"672",55070,532.400000025518,"sol","sol",1,5,"^5_^6_v5_v4_v3",3
"673",55070,502.9649999924,"fa","fa",1,5,"^5_^6_v5_v4_v3",4
"674",55070,455.19999996759,"mi","mi",1,5,"^5_^6_v5_v4_v3",5
"675",55070,3108.22000005282,"fi","fi",1,5,"v5-_v3_3_^4+_v3",1
"676",55070,521.730000036769,"mi","mi",1,5,"v5-_v3_3_^4+_v3",2
"677",55070,483.795000007376,"mi","mi",1,5,"v5-_v3_3_^4+_v3",3
"678",55070,547.325000050478,"fi","fi",1,5,"v5-_v3_3_^4+_v3",4
"679",55070,501.359999994747,"mi","mi",1,5,"v5-_v3_3_^4+_v3",5
"680",55070,961.060000001453,"sol","sol",1,5,"v5_v4_v3_v2_v1",1
"681",55070,481.489999918267,"fa","fa",1,5,"v5_v4_v3_v2_v1",2
"682",55070,381.41499995254,"mi","mi",1,5,"v5_v4_v3_v2_v1",3
"683",55070,510.209999978542,"re","re",1,5,"v5_v4_v3_v2_v1",4
"684",55070,436.099999933504,"do","do",1,5,"v5_v4_v3_v2_v1",5
"685",55070,1147.54999999423,"do","do",1,7,"^1_v7_v6_v5_v4_v3_v2",1
"686",55070,462.815000093542,"ti","ti",1,7,"^1_v7_v6_v5_v4_v3_v2",2
"687",55070,529.025000054389,"la","la",1,7,"^1_v7_v6_v5_v4_v3_v2",3
"688",55070,577.095000073314,"sol","sol",1,7,"^1_v7_v6_v5_v4_v3_v2",4
"689",55070,602.529999916442,"fa","fa",1,7,"^1_v7_v6_v5_v4_v3_v2",5
"690",55070,425.04999996163,"mi","mi",1,7,"^1_v7_v6_v5_v4_v3_v2",6
"691",55070,491.784999961965,"re","re",1,7,"^1_v7_v6_v5_v4_v3_v2",7
"692",55070,6706.66000002529,"fa","fa",1,7,"^4_v6-_v5-_^6-_^4_v2-_2-",1
"693",55070,1981.98500007857,"la","le",0,7,"^4_v6-_v5-_^6-_^4_v2-_2-",2
"694",55070,621.060000034049,"la","fi",0,7,"^4_v6-_v5-_^6-_^4_v2-_2-",3
"695",55070,6206.54499996454,"ti","le",0,7,"^4_v6-_v5-_^6-_^4_v2-_2-",4
"696",55070,1257.80999998096,"fa","fa",1,7,"^4_v6-_v5-_^6-_^4_v2-_2-",5
"697",55070,1044.38999993727,"la","ra",0,7,"^4_v6-_v5-_^6-_^4_v2-_2-",6
"698",55070,500.625000102445,"la","ra",0,7,"^4_v6-_v5-_^6-_^4_v2-_2-",7
"699",55070,10726.9199999282,"fa","fa",1,7,"^4_^5_^6_v5_v4_v3_v2",1
"700",55070,527.560000075027,"sol","sol",1,7,"^4_^5_^6_v5_v4_v3_v2",2
"701",55070,545.180000015534,"la","la",1,7,"^4_^5_^6_v5_v4_v3_v2",3
"702",55070,450.714999926277,"sol","sol",1,7,"^4_^5_^6_v5_v4_v3_v2",4
"703",55070,416.710000019521,"fa","fa",1,7,"^4_^5_^6_v5_v4_v3_v2",5
"704",55070,634.659999981523,"mi","mi",1,7,"^4_^5_^6_v5_v4_v3_v2",6
"705",55070,518.135000020266,"re","re",1,7,"^4_^5_^6_v5_v4_v3_v2",7
"706",55070,1360.32000009436,"la","la",1,7,"^6_v5+_v4_^5+_v3_v1_v7-",1
"707",55070,446.274999994785,"le","le",1,7,"^6_v5+_v4_^5+_v3_v1_v7-",2
"708",55070,948.375000036322,"sol","fa",0,7,"^6_v5+_v4_^5+_v3_v1_v7-",3
"709",55070,532.540000043809,"le","le",1,7,"^6_v5+_v4_^5+_v3_v1_v7-",4
"710",55070,2166.5600000415,"fa","mi",0,7,"^6_v5+_v4_^5+_v3_v1_v7-",5
"711",55070,1174.58500002977,"me","do",0,7,"^6_v5+_v4_^5+_v3_v1_v7-",6
"712",55070,516.490000067279,"re","te",0,7,"^6_v5+_v4_^5+_v3_v1_v7-",7
"713",55070,971.075000008568,"sol","sol",1,7,"^5_^6_v5_v4_v3_v2_v1",1
"714",55070,492.254999931902,"la","la",1,7,"^5_^6_v5_v4_v3_v2_v1",2
"715",55070,488.144999952056,"sol","sol",1,7,"^5_^6_v5_v4_v3_v2_v1",3
"716",55070,504.000000073574,"fa","fa",1,7,"^5_^6_v5_v4_v3_v2_v1",4
"717",55070,395.870000007562,"mi","mi",1,7,"^5_^6_v5_v4_v3_v2_v1",5
"718",55070,437.450000084937,"re","re",1,7,"^5_^6_v5_v4_v3_v2_v1",6
"719",55070,415.62999994494,"do","do",1,7,"^5_^6_v5_v4_v3_v2_v1",7
"720",55070,1669.04999990948,"do","do",1,7,"v1_^2_v1_v7_^1_^3_v2",1
"721",55070,601.030000019819,"ra","re",0,7,"v1_^2_v1_v7_^1_^3_v2",2
"722",55070,495.899999979883,"do","do",1,7,"v1_^2_v1_v7_^1_^3_v2",3
"723",55070,732.644999981858,"ti","ti",1,7,"v1_^2_v1_v7_^1_^3_v2",4
"724",55070,858.269999967888,"do","do",1,7,"v1_^2_v1_v7_^1_^3_v2",5
"725",55070,2947.07999995444,"mi","mi",1,7,"v1_^2_v1_v7_^1_^3_v2",6
"726",55070,467.615000088699,"re","re",1,7,"v1_^2_v1_v7_^1_^3_v2",7
"727",55070,1416.39999998733,"do","do",1,7,"1_^3_v1_^5_v3_v2_^3",1
"728",55070,811.054999940097,"mi","mi",1,7,"1_^3_v1_^5_v3_v2_^3",2
"729",55070,607.985000009649,"do","do",1,7,"1_^3_v1_^5_v3_v2_^3",3
"730",55070,1246.37499998789,"sol","sol",1,7,"1_^3_v1_^5_v3_v2_^3",4
"731",55070,2228.43999997713,"mi","mi",1,7,"1_^3_v1_^5_v3_v2_^3",5
"732",55070,412.280000047758,"re","re",1,7,"1_^3_v1_^5_v3_v2_^3",6
"733",55070,513.979999930598,"mi","mi",1,7,"1_^3_v1_^5_v3_v2_^3",7
"734",55070,884.324999991804,"sol","sol",1,9,"^5_^6_v5_v4_v3_v2_v1_^2_^3",1
"735",55070,542.374999960884,"la","la",1,9,"^5_^6_v5_v4_v3_v2_v1_^2_^3",2
"736",55070,518.225000007078,"sol","sol",1,9,"^5_^6_v5_v4_v3_v2_v1_^2_^3",3
"737",55070,565.815000096336,"fa","fa",1,9,"^5_^6_v5_v4_v3_v2_v1_^2_^3",4
"738",55070,435.679999995045,"mi","mi",1,9,"^5_^6_v5_v4_v3_v2_v1_^2_^3",5
"739",55070,461.159999947995,"re","re",1,9,"^5_^6_v5_v4_v3_v2_v1_^2_^3",6
"740",55070,506.529999896884,"do","do",1,9,"^5_^6_v5_v4_v3_v2_v1_^2_^3",7
"741",55070,521.545000025071,"re","re",1,9,"^5_^6_v5_v4_v3_v2_v1_^2_^3",8
"742",55070,496.420000097714,"mi","mi",1,9,"^5_^6_v5_v4_v3_v2_v1_^2_^3",9
"743",55070,1050.53500004578,"sol","sol",1,9,"v5_v4_v6+_^7_^3+_v3_v2_v5_^4",1
"744",55070,579.989999998361,"fa","fa",1,9,"v5_v4_v6+_^7_^3+_v3_v2_v5_^4",2
"745",55070,4398.96000002045,"la","te",0,9,"v5_v4_v6+_^7_^3+_v3_v2_v5_^4",3
"746",55070,572.25000008475,"ti","ti",1,9,"v5_v4_v6+_^7_^3+_v3_v2_v5_^4",4
"747",55070,5946.16000005044,"mi","3+",0,9,"v5_v4_v6+_^7_^3+_v3_v2_v5_^4",5
"748",55070,504.575000028126,"me","mi",0,9,"v5_v4_v6+_^7_^3+_v3_v2_v5_^4",6
"749",55070,544.494999921881,"re","re",1,9,"v5_v4_v6+_^7_^3+_v3_v2_v5_^4",7
"750",55070,4263.78999999724,"te","sol",0,9,"v5_v4_v6+_^7_^3+_v3_v2_v5_^4",8
"751",55070,1747.50499997754,"ra","fa",0,9,"v5_v4_v6+_^7_^3+_v3_v2_v5_^4",9
"752",55070,5386.38999999966,"mi","mi",1,9,"^3_^4_^5 _^6_v5_v4_v3_v2_v1",1
"753",55070,445.154999964871,"fa","fa",1,9,"^3_^4_^5 _^6_v5_v4_v3_v2_v1",2
"754",55070,552.410000003874,"sol","5 ",0,9,"^3_^4_^5 _^6_v5_v4_v3_v2_v1",3
"755",55070,959.890000056475,"la","la",1,9,"^3_^4_^5 _^6_v5_v4_v3_v2_v1",4
"756",55070,468.379999976605,"sol","sol",1,9,"^3_^4_^5 _^6_v5_v4_v3_v2_v1",5
"757",55070,842.814999981783,"fa","fa",1,9,"^3_^4_^5 _^6_v5_v4_v3_v2_v1",6
"758",55070,546.319999964908,"mi","mi",1,9,"^3_^4_^5 _^6_v5_v4_v3_v2_v1",7
"759",55070,611.939999973401,"re","re",1,9,"^3_^4_^5 _^6_v5_v4_v3_v2_v1",8
"760",55070,2351.55999998096,"do","do",1,9,"^3_^4_^5 _^6_v5_v4_v3_v2_v1",9
"761",55070,2609.07500004396,"re","re",1,9,"^2_^4_v3_v2_v1_v3_v2+_^3_^5+",1
"762",55070,666.230000089854,"fa","fa",1,9,"^2_^4_v3_v2_v1_v3_v2+_^3_^5+",2
"763",55070,405.129999970086,"mi","mi",1,9,"^2_^4_v3_v2_v1_v3_v2+_^3_^5+",3
"764",55070,487.949999980628,"re","re",1,9,"^2_^4_v3_v2_v1_v3_v2+_^3_^5+",4
"765",55070,948.070000042208,"do","do",1,9,"^2_^4_v3_v2_v1_v3_v2+_^3_^5+",5
"766",55070,1184.94999990799,"fi","mi",0,9,"^2_^4_v3_v2_v1_v3_v2+_^3_^5+",6
"767",55070,1705.74000000488,"mi","me",0,9,"^2_^4_v3_v2_v1_v3_v2+_^3_^5+",7
"768",55070,665.840000030585,"fi","mi",0,9,"^2_^4_v3_v2_v1_v3_v2+_^3_^5+",8
"769",55070,1853.13499998301,"me","le",0,9,"^2_^4_v3_v2_v1_v3_v2+_^3_^5+",9
"770",55070,1384.60500002839,"re","re",1,9,"^2_^3_^4_^5_^6_v5_v4_v3_v2",1
"771",55070,1138.95500008948,"mi","mi",1,9,"^2_^3_^4_^5_^6_v5_v4_v3_v2",2
"772",55070,402.125000022352,"fa","fa",1,9,"^2_^3_^4_^5_^6_v5_v4_v3_v2",3
"773",55070,543.530000024475,"sol","sol",1,9,"^2_^3_^4_^5_^6_v5_v4_v3_v2",4
"774",55070,491.470000008121,"la","la",1,9,"^2_^3_^4_^5_^6_v5_v4_v3_v2",5
"775",55070,474.754999973811,"sol","sol",1,9,"^2_^3_^4_^5_^6_v5_v4_v3_v2",6
"776",55070,535.455000004731,"fa","fa",1,9,"^2_^3_^4_^5_^6_v5_v4_v3_v2",7
"777",55070,404.749999986961,"mi","mi",1,9,"^2_^3_^4_^5_^6_v5_v4_v3_v2",8
"778",55070,435.109999962151,"re","re",1,9,"^2_^3_^4_^5_^6_v5_v4_v3_v2",9
"779",55070,1708.99499999359,"ti","ti",1,9,"v7_v6_v5_^6_v5_v4_^5_^6_v5",1
"780",55070,482.154999976046,"la","la",1,9,"v7_v6_v5_^6_v5_v4_^5_^6_v5",2
"781",55070,494.004999985918,"sol","sol",1,9,"v7_v6_v5_^6_v5_v4_^5_^6_v5",3
"782",55070,473.240000079386,"la","la",1,9,"v7_v6_v5_^6_v5_v4_^5_^6_v5",4
"783",55070,523.999999975786,"sol","sol",1,9,"v7_v6_v5_^6_v5_v4_^5_^6_v5",5
"784",55070,573.86999996379,"fa","fa",1,9,"v7_v6_v5_^6_v5_v4_^5_^6_v5",6
"785",55070,555.999999982305,"sol","sol",1,9,"v7_v6_v5_^6_v5_v4_^5_^6_v5",7
"786",55070,473.814999917522,"la","la",1,9,"v7_v6_v5_^6_v5_v4_^5_^6_v5",8
"787",55070,444.144999957643,"sol","sol",1,9,"v7_v6_v5_^6_v5_v4_^5_^6_v5",9
"788",55070,4463.74000003561,"mi","mi",1,9,"^3_^4_v2_v7_^1_^2_^3_3_^4",1
"789",55070,551.504999981262,"fa","fa",1,9,"^3_^4_v2_v7_^1_^2_^3_3_^4",2
"790",55070,1041.93499998655,"re","re",1,9,"^3_^4_v2_v7_^1_^2_^3_3_^4",3
"791",55070,758.965000044554,"ti","ti",1,9,"^3_^4_v2_v7_^1_^2_^3_3_^4",4
"792",55070,2801.2700000545,"re","do",0,9,"^3_^4_v2_v7_^1_^2_^3_3_^4",5
"793",55070,570.454999920912,"mi","re",0,9,"^3_^4_v2_v7_^1_^2_^3_3_^4",6
"794",55070,496.595000033267,"mi","mi",1,9,"^3_^4_v2_v7_^1_^2_^3_3_^4",7
"795",55070,546.154999989085,"fa","mi",0,9,"^3_^4_v2_v7_^1_^2_^3_3_^4",8
"796",55070,1024.66500003356,"fa","fa",1,9,"^3_^4_v2_v7_^1_^2_^3_3_^4",9
"797",55761,3715.73999989778,"re","re",1,2,"v2_v1",1
"798",55761,1943.28000000678,"do","do",1,2,"v2_v1",2
"799",55761,5797.89500008337,"re","sol",0,2,"^5_^1+",1
"800",55761,2798.36999997497,"le","ra",0,2,"^5_^1+",2
"801",55761,2362.53000004217,"do","do",1,2,"^1_^2+",1
"802",55761,1260.5999999214,"me","me",1,2,"^1_^2+",2
"803",55761,4810.01499993727,"re","re",1,2,"^2_v7-",1
"804",55761,5673.86000021361,"te","te",1,2,"^2_v7-",2
"805",55761,2630.16499998048,"sol","sol",1,2,"v5_v1+",1
"806",55761,848.740000044927,"ra","ra",1,2,"v5_v1+",2
"807",55761,1367.29500000365,"ti","ti",1,2,"v7_v3",1
"808",55761,3020.7549999468,"mi","mi",1,2,"v7_v3",2
"809",55761,5552.23000003025,"re","mi",0,2,"3_^6",1
"810",55761,1860.72499980219,"la","la",1,2,"3_^6",2
"811",55761,6315.63500012271,"fa","fa",1,2,"v4_v3",1
"812",55761,597.134999930859,"mi","mi",1,2,"v4_v3",2
"813",55761,3743.34000004455,"mi","mi",1,2,"v3_v2",1
"814",55761,1062.88000009954,"re","re",1,2,"v3_v2",2
"815",55761,1107.13999997824,"mi","mi",1,2,"^3_v4+",1
"816",55761,679.400000022724,"fi","fi",1,2,"^3_v4+",2
"817",55761,2119.33499993756,"re","re",1,3,"v2_v5_^3",1
"818",55761,1709.21000000089,"sol","sol",1,3,"v2_v5_^3",2
"819",55761,4053.31999994814,"mi","mi",1,3,"v2_v5_^3",3
"820",55761,1300.31999992207,"mi","mi",1,3,"v3_v2_v1",1
"821",55761,628.860000055283,"re","re",1,3,"v3_v2_v1",2
"822",55761,838.600000133738,"do","do",1,3,"v3_v2_v1",3
"823",55761,2299.24999992363,"do","do",1,3,"v1_v7-_7-",1
"824",55761,766.53499994427,"te","te",1,3,"v1_v7-_7-",2
"825",55761,828.824999975041,"te","te",1,3,"v1_v7-_7-",3
"826",55761,1284.45999999531,"sol","sol",1,3,"v5_v4_v3",1
"827",55761,654.795000096783,"fa","fa",1,3,"v5_v4_v3",2
"828",55761,882.815000135452,"mi","mi",1,3,"v5_v4_v3",3
"829",55761,1521.32000005804,"do","do",1,3,"1_v1+_^2",1
"830",55761,1422.15500003658,"ra","ra",1,3,"1_v1+_^2",2
"831",55761,1704.61499993689,"re","re",1,3,"1_v1+_^2",3
"832",55761,1951.31000014953,"la","la",1,3,"6_^1_v5",1
"833",55761,1384.58999991417,"do","do",1,3,"6_^1_v5",2
"834",55761,1829.29000002332,"sol","sol",1,3,"6_^1_v5",3
"835",55761,3083.39500008151,"do","do",1,3,"^1_v6_v5+",1
"836",55761,1822.55000015721,"le","la",0,3,"^1_v6_v5+",2
"837",55761,1395.50000010058,"sol","le",0,3,"^1_v6_v5+",3
"838",55761,9439.86999988556,"do","do",1,3,"v1_v7-_^7",1
"839",55761,4701.31999999285,"te","te",1,3,"v1_v7-_^7",2
"840",55761,628.990000113845,"ti","ti",1,3,"v1_v7-_^7",3
"841",55761,1848.38500013575,"fa","fa",1,3,"v4_v3_v2",1
"842",55761,789.95000012219,"mi","mi",1,3,"v4_v3_v2",2
"843",55761,965.844999998808,"re","re",1,3,"v4_v3_v2",3
"844",55761,4263.8900000602,"re","re",1,5,"v2_2_^3_^4_v2",1
"845",55761,684.00500016287,"re","re",1,5,"v2_2_^3_^4_v2",2
"846",55761,874.689999967813,"mi","mi",1,5,"v2_2_^3_^4_v2",3
"847",55761,2359.1899999883,"fa","fa",1,5,"v2_2_^3_^4_v2",4
"848",55761,1305.81500008702,"re","re",1,5,"v2_2_^3_^4_v2",5
"849",55761,1610.38500000723,"sol","sol",1,5,"v5_v4_v3_v2_v1",1
"850",55761,686.715000076219,"fa","fa",1,5,"v5_v4_v3_v2_v1",2
"851",55761,589.915000135079,"mi","mi",1,5,"v5_v4_v3_v2_v1",3
"852",55761,869.365000165999,"re","re",1,5,"v5_v4_v3_v2_v1",4
"853",55761,663.120000157505,"do","do",1,5,"v5_v4_v3_v2_v1",5
"854",55761,1554.40499982797,"sol","sol",1,5,"^5_^6_v5_v4_v3",1
"855",55761,649.130000034347,"la","la",1,5,"^5_^6_v5_v4_v3",2
"856",55761,709.92000005208,"sol","sol",1,5,"^5_^6_v5_v4_v3",3
"857",55761,797.855000011623,"fa","fa",1,5,"^5_^6_v5_v4_v3",4
"858",55761,555.374999996275,"mi","mi",1,5,"^5_^6_v5_v4_v3",5
"859",55761,15417.385000037,"le","fi",0,5,"v5-_v3_3_^4+_v3",1
"860",55761,662.170000141487,"fi","mi",0,5,"v5-_v3_3_^4+_v3",2
"861",55761,271.925000008196,"fi","mi",0,5,"v5-_v3_3_^4+_v3",3
"862",55761,633.810000028461,"le","fi",0,5,"v5-_v3_3_^4+_v3",4
"863",55761,669.05999998562,"fi","mi",0,5,"v5-_v3_3_^4+_v3",5
"864",55761,2667.44500002824,"sol","sol",1,5,"v5_^6+_^7_^1_5",1
"865",55761,631.049999967217,"la","te",0,5,"v5_^6+_^7_^1_5",2
"866",55761,581.795000005513,"ti","ti",1,5,"v5_^6+_^7_^1_5",3
"867",55761,605.514999944717,"do","do",1,5,"v5_^6+_^7_^1_5",4
"868",55761,746.76000000909,"sol","sol",1,5,"v5_^6+_^7_^1_5",5
"869",55761,2351.35499993339,"la","la",1,5,"^6_v4_v3_^4_^5",1
"870",55761,1124.7049998492,"fa","fa",1,5,"^6_v4_v3_^4_^5",2
"871",55761,1134.24000004306,"mi","mi",1,5,"^6_v4_v3_^4_^5",3
"872",55761,2000.01000007614,"fa","fa",1,5,"^6_v4_v3_^4_^5",4
"873",55761,1395.620000083,"sol","sol",1,5,"^6_v4_v3_^4_^5",5
"874",55761,1317.60000018403,"la","la",1,5,"^6_v5_v4_v3_v2",1
"875",55761,774.394999956712,"sol","sol",1,5,"^6_v5_v4_v3_v2",2
"876",55761,664.920000126585,"fa","fa",1,5,"^6_v5_v4_v3_v2",3
"877",55761,662.879999959841,"mi","mi",1,5,"^6_v5_v4_v3_v2",4
"878",55761,1006.3000000082,"re","re",1,5,"^6_v5_v4_v3_v2",5
"879",55761,1023.49500008859,"sol","sol",1,5,"v5_v4_v3_v2_v1 ",1
"880",55761,660.739999962971,"fa","fa",1,5,"v5_v4_v3_v2_v1 ",2
"881",55761,606.424999888986,"mi","mi",1,5,"v5_v4_v3_v2_v1 ",3
"882",55761,758.099999977276,"re","re",1,5,"v5_v4_v3_v2_v1 ",4
"883",55761,642.764999996871,"do","1 ",0,5,"v5_v4_v3_v2_v1 ",5
"884",55761,8392.51500018872,"le","fa",0,7,"^4_v6-_v5-_^6-_^4_v2-_2-",1
"885",55761,2014.88000014797,"me","le",0,7,"^4_v6-_v5-_^6-_^4_v2-_2-",2
"886",55761,526.009999914095,"re","fi",0,7,"^4_v6-_v5-_^6-_^4_v2-_2-",3
"887",55761,503.675000043586,"me","le",0,7,"^4_v6-_v5-_^6-_^4_v2-_2-",4
"888",55761,820.210000034422,"le","fa",0,7,"^4_v6-_v5-_^6-_^4_v2-_2-",5
"889",55761,716.784999938682,"sol","ra",0,7,"^4_v6-_v5-_^6-_^4_v2-_2-",6
"890",55761,331.209999974817,"sol","ra",0,7,"^4_v6-_v5-_^6-_^4_v2-_2-",7
"891",55761,1249.80000010692,"do","do",1,7,"^1_v7_v6_v5_v4_v3_v2",1
"892",55761,578.794999979436,"ti","ti",1,7,"^1_v7_v6_v5_v4_v3_v2",2
"893",55761,696.445000125095,"la","la",1,7,"^1_v7_v6_v5_v4_v3_v2",3
"894",55761,717.169999843463,"sol","sol",1,7,"^1_v7_v6_v5_v4_v3_v2",4
"895",55761,774.459999985993,"fa","fa",1,7,"^1_v7_v6_v5_v4_v3_v2",5
"896",55761,569.499999983236,"mi","mi",1,7,"^1_v7_v6_v5_v4_v3_v2",6
"897",55761,845.355000114068,"re","re",1,7,"^1_v7_v6_v5_v4_v3_v2",7
"898",55761,1174.94000005536,"sol","sol",1,7,"^5_^6_v5_v4_v3_v2_v1",1
"899",55761,650.870000012219,"la","la",1,7,"^5_^6_v5_v4_v3_v2_v1",2
"900",55761,949.900000123307,"sol","sol",1,7,"^5_^6_v5_v4_v3_v2_v1",3
"901",55761,728.06500014849,"fa","fa",1,7,"^5_^6_v5_v4_v3_v2_v1",4
"902",55761,568.955000024289,"mi","mi",1,7,"^5_^6_v5_v4_v3_v2_v1",5
"903",55761,728.025000076741,"re","re",1,7,"^5_^6_v5_v4_v3_v2_v1",6
"904",55761,757.039999822155,"do","do",1,7,"^5_^6_v5_v4_v3_v2_v1",7
"905",55761,2950.33500017598,"do","do",1,7,"1_^3_v1_^5_v3_v2_^3",1
"906",55761,3377.33500008471,"mi","mi",1,7,"1_^3_v1_^5_v3_v2_^3",2
"907",55761,3285.36999993958,"do","do",1,7,"1_^3_v1_^5_v3_v2_^3",3
"908",55761,1927.35000001267,"sol","sol",1,7,"1_^3_v1_^5_v3_v2_^3",4
"909",55761,926.699999952689,"fa","mi",0,7,"1_^3_v1_^5_v3_v2_^3",5
"910",55761,980.389999924228,"mi","re",0,7,"1_^3_v1_^5_v3_v2_^3",6
"911",55761,5817.55000003614,"mi","mi",1,7,"1_^3_v1_^5_v3_v2_^3",7
"912",55761,903.339999960735,"fa","fa",1,7,"^4_^5_^6_v5_v4_v3_v2",1
"913",55761,744.545000139624,"sol","sol",1,7,"^4_^5_^6_v5_v4_v3_v2",2
"914",55761,702.675000065938,"la","la",1,7,"^4_^5_^6_v5_v4_v3_v2",3
"915",55761,668.425000039861,"sol","sol",1,7,"^4_^5_^6_v5_v4_v3_v2",4
"916",55761,664.474999997765,"fa","fa",1,7,"^4_^5_^6_v5_v4_v3_v2",5
"917",55761,1220.36000015214,"mi","mi",1,7,"^4_^5_^6_v5_v4_v3_v2",6
"918",55761,729.044999927282,"re","re",1,7,"^4_^5_^6_v5_v4_v3_v2",7
"919",55761,7349.6799999848,"do","do",1,7,"v1_^2_v1_v7_^1_^3_v2",1
"920",55761,869.690000079572,"re","re",1,7,"v1_^2_v1_v7_^1_^3_v2",2
"921",55761,785.665000090376,"do","do",1,7,"v1_^2_v1_v7_^1_^3_v2",3
"922",55761,1278.05999992415,"ti","ti",1,7,"v1_^2_v1_v7_^1_^3_v2",4
"923",55761,1820.00999990851,"do","do",1,7,"v1_^2_v1_v7_^1_^3_v2",5
"924",55761,1550.92499987222,"mi","mi",1,7,"v1_^2_v1_v7_^1_^3_v2",6
"925",55761,1045.274999924,"re","re",1,7,"v1_^2_v1_v7_^1_^3_v2",7
"926",55761,1085.73499997146,"do","la",0,7,"^6_v5+_v4_^5+_v3_v1_v7-",1
"927",55761,5858.00000000745,"te","le",0,7,"^6_v5+_v4_^5+_v3_v1_v7-",2
"928",55761,688.205000013113,"le","fa",0,7,"^6_v5+_v4_^5+_v3_v1_v7-",3
"929",55761,604.065000079572,"te","le",0,7,"^6_v5+_v4_^5+_v3_v1_v7-",4
"930",55761,646.139999851584,"le","mi",0,7,"^6_v5+_v4_^5+_v3_v1_v7-",5
"931",55761,4765.76999993995,"fi","do",0,7,"^6_v5+_v4_^5+_v3_v1_v7-",6
"932",55761,818.210000172257,"mi","te",0,7,"^6_v5+_v4_^5+_v3_v1_v7-",7
"933",55761,3675.41999998502,"mi","mi",1,9,"^3_^4_^5 _^6_v5_v4_v3_v2_v1",1
"934",55761,621.935000177473,"fa","fa",1,9,"^3_^4_^5 _^6_v5_v4_v3_v2_v1",2
"935",55761,709.47500015609,"sol","5 ",0,9,"^3_^4_^5 _^6_v5_v4_v3_v2_v1",3
"936",55761,666.855000192299,"la","la",1,9,"^3_^4_^5 _^6_v5_v4_v3_v2_v1",4
"937",55761,646.420000120997,"sol","sol",1,9,"^3_^4_^5 _^6_v5_v4_v3_v2_v1",5
"938",55761,1029.62499996647,"fa","fa",1,9,"^3_^4_^5 _^6_v5_v4_v3_v2_v1",6
"939",55761,893.655000021681,"mi","mi",1,9,"^3_^4_^5 _^6_v5_v4_v3_v2_v1",7
"940",55761,2801.90999992192,"re","re",1,9,"^3_^4_^5 _^6_v5_v4_v3_v2_v1",8
"941",55761,849.194999784231,"do","do",1,9,"^3_^4_^5 _^6_v5_v4_v3_v2_v1",9
"942",55761,1392.91499997489,"re","re",1,9,"^2_^3_^4_^5_^6_v5_v4_v3_v2",1
"943",55761,2587.30000001378,"fa","mi",0,9,"^2_^3_^4_^5_^6_v5_v4_v3_v2",2
"944",55761,800.969999982044,"sol","fa",0,9,"^2_^3_^4_^5_^6_v5_v4_v3_v2",3
"945",55761,751.784999854863,"la","sol",0,9,"^2_^3_^4_^5_^6_v5_v4_v3_v2",4
"946",55761,1123.69000003673,"sol","la",0,9,"^2_^3_^4_^5_^6_v5_v4_v3_v2",5
"947",55761,805.320000043139,"fa","sol",0,9,"^2_^3_^4_^5_^6_v5_v4_v3_v2",6
"948",55761,1510.71500009857,"mi","fa",0,9,"^2_^3_^4_^5_^6_v5_v4_v3_v2",7
"949",55761,750.075000105426,"re","mi",0,9,"^2_^3_^4_^5_^6_v5_v4_v3_v2",8
"950",55761,3202.25500012748,"re","re",1,9,"^2_^3_^4_^5_^6_v5_v4_v3_v2",9
"951",55761,2306.22499994934,"sol","sol",1,9,"^5_^6_v5_v4_v3_v2_v1_^2_^3",1
"952",55761,1038.93000003882,"la","la",1,9,"^5_^6_v5_v4_v3_v2_v1_^2_^3",2
"953",55761,895.245000021532,"sol","sol",1,9,"^5_^6_v5_v4_v3_v2_v1_^2_^3",3
"954",55761,783.170000184327,"fa","fa",1,9,"^5_^6_v5_v4_v3_v2_v1_^2_^3",4
"955",55761,606.64499993436,"mi","mi",1,9,"^5_^6_v5_v4_v3_v2_v1_^2_^3",5
"956",55761,774.350000079721,"re","re",1,9,"^5_^6_v5_v4_v3_v2_v1_^2_^3",6
"957",55761,791.36999999173,"do","do",1,9,"^5_^6_v5_v4_v3_v2_v1_^2_^3",7
"958",55761,759.390000021085,"re","re",1,9,"^5_^6_v5_v4_v3_v2_v1_^2_^3",8
"959",55761,812.864999985322,"mi","mi",1,9,"^5_^6_v5_v4_v3_v2_v1_^2_^3",9
"960",55761,1510.33999980427,"re","re",1,9,"^2_^4_v3_v2_v1_v3_v2+_^3_^5+",1
"961",55761,2188.56499996036,"fa","fa",1,9,"^2_^4_v3_v2_v1_v3_v2+_^3_^5+",2
"962",55761,630.249999929219,"mi","mi",1,9,"^2_^4_v3_v2_v1_v3_v2+_^3_^5+",3
"963",55761,820.349999936298,"re","re",1,9,"^2_^4_v3_v2_v1_v3_v2+_^3_^5+",4
"964",55761,1536.48500004783,"do","do",1,9,"^2_^4_v3_v2_v1_v3_v2+_^3_^5+",5
"965",55761,6584.80999991298,"fi","mi",0,9,"^2_^4_v3_v2_v1_v3_v2+_^3_^5+",6
"966",55761,3251.71999982558,"le","me",0,9,"^2_^4_v3_v2_v1_v3_v2+_^3_^5+",7
"967",55761,1231.89499997534,"ra","mi",0,9,"^2_^4_v3_v2_v1_v3_v2+_^3_^5+",8
"968",55761,1194.75999986753,"te","le",0,9,"^2_^4_v3_v2_v1_v3_v2+_^3_^5+",9
"969",55761,1860.82999990322,"ti","ti",1,9,"v7_v6_v5_^6_v5_v4_^5_^6_v5",1
"970",55761,3981.35000001639,"la","la",1,9,"v7_v6_v5_^6_v5_v4_^5_^6_v5",2
"971",55761,1012.31999997981,"sol","sol",1,9,"v7_v6_v5_^6_v5_v4_^5_^6_v5",3
"972",55761,829.81999986805,"fi","la",0,9,"v7_v6_v5_^6_v5_v4_^5_^6_v5",4
"973",55761,587.195000145584,"sol","sol",1,9,"v7_v6_v5_^6_v5_v4_^5_^6_v5",5
"974",55761,997.585000004619,"la","fa",0,9,"v7_v6_v5_^6_v5_v4_^5_^6_v5",6
"975",55761,884.155000094324,"ti","sol",0,9,"v7_v6_v5_^6_v5_v4_^5_^6_v5",7
"976",55761,1921.91000003368,"la","la",1,9,"v7_v6_v5_^6_v5_v4_^5_^6_v5",8
"977",55761,3805.21999998018,"sol","sol",1,9,"v7_v6_v5_^6_v5_v4_^5_^6_v5",9
"978",55761,3259.55999991857,"sol","sol",1,9,"v5_v4_v6+_^7_^3+_v3_v2_v5_^4",1
"979",55761,965.444999979809,"fa","fa",1,9,"v5_v4_v6+_^7_^3+_v3_v2_v5_^4",2
"980",55761,1664.01499998756,"la","te",0,9,"v5_v4_v6+_^7_^3+_v3_v2_v5_^4",3
"981",55761,655.435000080615,"ti","ti",1,9,"v5_v4_v6+_^7_^3+_v3_v2_v5_^4",4
"982",55761,3103.71000017039,"me","3+",0,9,"v5_v4_v6+_^7_^3+_v3_v2_v5_^4",5
"983",55761,746.095000067726,"re","mi",0,9,"v5_v4_v6+_^7_^3+_v3_v2_v5_^4",6
"984",55761,6347.33500005677,"fi","re",0,9,"v5_v4_v6+_^7_^3+_v3_v2_v5_^4",7
"985",55761,506.750000175089,"fa","sol",0,9,"v5_v4_v6+_^7_^3+_v3_v2_v5_^4",8
"986",55761,549.265000037849,"mi","fa",0,9,"v5_v4_v6+_^7_^3+_v3_v2_v5_^4",9
"987",55761,5470.5149999354,"mi","mi",1,9,"^3_^4_v2_v7_^1_^2_^3_3_^4",1
"988",55761,606.759999878705,"fa","fa",1,9,"^3_^4_v2_v7_^1_^2_^3_3_^4",2
"989",55761,613.874999806285,"mi","re",0,9,"^3_^4_v2_v7_^1_^2_^3_3_^4",3
"990",55761,4435.83499989472,"do","ti",0,9,"^3_^4_v2_v7_^1_^2_^3_3_^4",4
"991",55761,704.499999992549,"re","do",0,9,"^3_^4_v2_v7_^1_^2_^3_3_^4",5
"992",55761,756.730000022799,"mi","re",0,9,"^3_^4_v2_v7_^1_^2_^3_3_^4",6
"993",55761,2558.18499997258,"do","mi",0,9,"^3_^4_v2_v7_^1_^2_^3_3_^4",7
"994",55761,587.234999984503,"re","mi",0,9,"^3_^4_v2_v7_^1_^2_^3_3_^4",8
"995",55761,655.289999907836,"mi","fa",0,9,"^3_^4_v2_v7_^1_^2_^3_3_^4",9
"996",69510,5411.04499999713,"do","mi",0,2,"3_^6",1
"997",69510,1967.37500000012,"fa","la",0,2,"3_^6",2
"998",69510,2047.599999998,"re","sol",0,2,"^5_^1+",1
"999",69510,3012.70500000101,"le","ra",0,2,"^5_^1+",2
"1000",69510,1984.01000000013,"re","mi",0,2,"^3_v4+",1
"1001",69510,2444.02999999863,"me","fi",0,2,"^3_v4+",2
"1002",69510,832.884999999893,"do","do",1,2,"^1_^2+",1
"1003",69510,680.185000001104,"me","me",1,2,"^1_^2+",2
"1004",69510,3144.20500000054,"do","fa",0,2,"v4_v3",1
"1005",69510,2832.47499999928,"ti","mi",0,2,"v4_v3",2
"1006",69510,1421.64500000223,"do","re",0,2,"^2_v7-",1
"1007",69510,3549.1399999992,"la","te",0,2,"^2_v7-",2
"1008",69510,2680.8549999987,"re","mi",0,2,"v3_v2",1
"1009",69510,776.314999999246,"ti","re",0,2,"v3_v2",2
"1010",69510,1010.42500000051,"re","re",1,2,"v2_v1",1
"1011",69510,1192.5499999997,"do","do",1,2,"v2_v1",2
"1012",69510,5902.97499999718,"me","ti",0,2,"v7_v3",1
"1013",69510,740.685000000638,"te","mi",0,2,"v7_v3",2
"1014",69510,5881.99000000174,"fa","sol",0,2,"v5_v1+",1
"1015",69510,1072.53499999933,"ti","ra",0,2,"v5_v1+",2
"1016",69510,5370.35000000114,"mi","do",0,3,"v1_v7-_^7",1
"1017",69510,605.685000002268,"ra","te",0,3,"v1_v7-_^7",2
"1018",69510,800.715000001132,"re","ti",0,3,"v1_v7-_^7",3
"1019",69510,3394.19000000274,"me","fa",0,3,"v4_v3_v2",1
"1020",69510,540.1749999983,"re","mi",0,3,"v4_v3_v2",2
"1021",69510,692.425000001094,"do","re",0,3,"v4_v3_v2",3
"1022",69510,1944.98999999999,"me","re",0,3,"v2_v5_^3",1
"1023",69510,606.935000003432,"fa","sol",0,3,"v2_v5_^3",2
"1024",69510,1444.43000000319,"re","mi",0,3,"v2_v5_^3",3
"1025",69510,5147.19500000146,"fa","sol",0,3,"v5_v4_v3",1
"1026",69510,791.439999997267,"mi","fa",0,3,"v5_v4_v3",2
"1027",69510,780.109999999637,"re","mi",0,3,"v5_v4_v3",3
"1028",69510,1940.1199999993,"mi","mi",1,3,"v3_v2_v1",1
"1029",69510,655.039999997825,"re","re",1,3,"v3_v2_v1",2
"1030",69510,534.179999998771,"do","do",1,3,"v3_v2_v1",3
"1031",69510,4702.49999999942,"ti","do",0,3,"^1_v6_v5+",1
"1032",69510,1573.56000000075,"la","la",1,3,"^1_v6_v5+",2
"1033",69510,440.689999999362,"le","le",1,3,"^1_v6_v5+",3
"1034",69510,4539.59499999846,"la","la",1,3,"6_^1_v5",1
"1035",69510,1353.74000000232,"ti","do",0,3,"6_^1_v5",2
"1036",69510,1190.25000000326,"sol","sol",1,3,"6_^1_v5",3
"1037",69510,1225.0250000034,"do","do",1,3,"1_v1+_^2",1
"1038",69510,726.325000003213,"ra","ra",1,3,"1_v1+_^2",2
"1039",69510,1040.57499999902,"me","re",0,3,"1_v1+_^2",3
"1040",69510,4933.75499999826,"me","do",0,3,"v1_v7-_7-",1
"1041",69510,439.845000000787,"re","te",0,3,"v1_v7-_7-",2
"1042",69510,358.295000001788,"re","te",0,3,"v1_v7-_7-",3
"1043",69510,9844.9099999998,"re","fi",0,5,"v5-_v3_3_^4+_v3",1
"1044",69510,2331.93000000028,"re","mi",0,5,"v5-_v3_3_^4+_v3",2
"1045",69510,1520.30500000191,"re","mi",0,5,"v5-_v3_3_^4+_v3",3
"1046",69510,334.520000000368,"re","fi",0,5,"v5-_v3_3_^4+_v3",4
"1047",69510,702.300000000861,"re","mi",0,5,"v5-_v3_3_^4+_v3",5
"1048",69510,3256.3599999994,"ra","re",0,5,"v2_2_^3_^4_v2",1
"1049",69510,498.120000000228,"ra","re",0,5,"v2_2_^3_^4_v2",2
"1050",69510,999.469999998808,"mi","mi",1,5,"v2_2_^3_^4_v2",3
"1051",69510,528.484999998822,"fa","fa",1,5,"v2_2_^3_^4_v2",4
"1052",69510,1146.38500000001,"ra","re",0,5,"v2_2_^3_^4_v2",5
"1053",69510,7935.75000000058,"mi","sol",0,5,"^5_^6_v5_v4_v3",1
"1054",69510,568.070000001113,"fa","la",0,5,"^5_^6_v5_v4_v3",2
"1055",69510,746.484999999753,"mi","sol",0,5,"^5_^6_v5_v4_v3",3
"1056",69510,1128.39500000339,"re","fa",0,5,"^5_^6_v5_v4_v3",4
"1057",69510,2700.52999999828,"do","mi",0,5,"^5_^6_v5_v4_v3",5
"1058",69510,2964.92000000214,"do","sol",0,5,"v5_^6+_^7_^1_5",1
"1059",69510,1162.44000000006,"mi","te",0,5,"v5_^6+_^7_^1_5",2
"1060",69510,840.364999999991,"fa","ti",0,5,"v5_^6+_^7_^1_5",3
"1061",69510,712.559999999939,"sol","do",0,5,"v5_^6+_^7_^1_5",4
"1062",69510,1370.24999999988,"mi","sol",0,5,"v5_^6+_^7_^1_5",5
"1063",69510,2816.96999999997,"do","sol",0,5,"v5_v4_v3_v2_v1 ",1
"1064",69510,1480.36000000127,"ti","fa",0,5,"v5_v4_v3_v2_v1 ",2
"1065",69510,4922.054999999,"la","mi",0,5,"v5_v4_v3_v2_v1 ",3
"1066",69510,2967.97999999754,"fa","re",0,5,"v5_v4_v3_v2_v1 ",4
"1067",69510,2052.27999999991,"do","1 ",0,5,"v5_v4_v3_v2_v1 ",5
"1068",69510,3849.01499999978,"fa","la",0,5,"^6_v5_v4_v3_v2",1
"1069",69510,5346.58500000299,"mi","sol",0,5,"^6_v5_v4_v3_v2",2
"1070",69510,373.980000000331,"me","fa",0,5,"^6_v5_v4_v3_v2",3
"1071",69510,600.419999998761,"re","mi",0,5,"^6_v5_v4_v3_v2",4
"1072",69510,856.220000001485,"do","re",0,5,"^6_v5_v4_v3_v2",5
"1073",69510,4223.89999999723,"sol","sol",1,5,"v5_v4_v3_v2_v1",1
"1074",69510,709.939999997034,"fa","fa",1,5,"v5_v4_v3_v2_v1",2
"1075",69510,532.015000000596,"mi","mi",1,5,"v5_v4_v3_v2_v1",3
"1076",69510,566.155000000377,"re","re",1,5,"v5_v4_v3_v2_v1",4
"1077",69510,567.044999999809,"do","do",1,5,"v5_v4_v3_v2_v1",5
"1078",69510,982.09499999939,"sol","la",0,5,"^6_v4_v3_^4_^5",1
"1079",69510,1696.55000000051,"mi","fa",0,5,"^6_v4_v3_^4_^5",2
"1080",69510,720.304999998887,"re","mi",0,5,"^6_v4_v3_^4_^5",3
"1081",69510,576.629999999539,"mi","fa",0,5,"^6_v4_v3_^4_^5",4
"1082",69510,752.499999998719,"sol","sol",1,5,"^6_v4_v3_^4_^5",5
"1083",69510,4708.200000001,"ti","do",0,7,"^1_v7_v6_v5_v4_v3_v2",1
"1084",69510,735.624999997439,"la","ti",0,7,"^1_v7_v6_v5_v4_v3_v2",2
"1085",69510,946.694999998785,"sol","la",0,7,"^1_v7_v6_v5_v4_v3_v2",3
"1086",69510,672.089999996359,"fa","sol",0,7,"^1_v7_v6_v5_v4_v3_v2",4
"1087",69510,1470.39999999828,"mi","fa",0,7,"^1_v7_v6_v5_v4_v3_v2",5
"1088",69510,608.199999998789,"re","mi",0,7,"^1_v7_v6_v5_v4_v3_v2",6
"1089",69510,1908.46500000043,"ra","re",0,7,"^1_v7_v6_v5_v4_v3_v2",7
"1090",69510,1311.08999999915,"re","fa",0,7,"^4_^5_^6_v5_v4_v3_v2",1
"1091",69510,886.099999999744,"mi","sol",0,7,"^4_^5_^6_v5_v4_v3_v2",2
"1092",69510,1454.60000000091,"sol","la",0,7,"^4_^5_^6_v5_v4_v3_v2",3
"1093",69510,778.415000000736,"fa","sol",0,7,"^4_^5_^6_v5_v4_v3_v2",4
"1094",69510,1140.41999999969,"me","fa",0,7,"^4_^5_^6_v5_v4_v3_v2",5
"1095",69510,584.230000000331,"re","mi",0,7,"^4_^5_^6_v5_v4_v3_v2",6
"1096",69510,1148.26500000339,"do","re",0,7,"^4_^5_^6_v5_v4_v3_v2",7
"1097",69510,1512.3899999999,"do","fa",0,7,"^4_v6-_v5-_^6-_^4_v2-_2-",1
"1098",69510,2860.82499999984,"le","le",1,7,"^4_v6-_v5-_^6-_^4_v2-_2-",2
"1099",69510,692.00500000082,"sol","fi",0,7,"^4_v6-_v5-_^6-_^4_v2-_2-",3
"1100",69510,856.230000001146,"le","le",1,7,"^4_v6-_v5-_^6-_^4_v2-_2-",4
"1101",69510,3122.24000000057,"mi","fa",0,7,"^4_v6-_v5-_^6-_^4_v2-_2-",5
"1102",69510,609.850000000792,"re","ra",0,7,"^4_v6-_v5-_^6-_^4_v2-_2-",6
"1103",69510,190.340000001015,"re","ra",0,7,"^4_v6-_v5-_^6-_^4_v2-_2-",7
"1104",69510,1837.3900000006,"do","la",0,7,"^6_v5+_v4_^5+_v3_v1_v7-",1
"1105",69510,672.344999999041,"ti","le",0,7,"^6_v5+_v4_^5+_v3_v1_v7-",2
"1106",69510,593.365000000689,"te","fa",0,7,"^6_v5+_v4_^5+_v3_v1_v7-",3
"1107",69510,519.755000001169,"ti","le",0,7,"^6_v5+_v4_^5+_v3_v1_v7-",4
"1108",69510,648.379999998724,"la","mi",0,7,"^6_v5+_v4_^5+_v3_v1_v7-",5
"1109",69510,632.299999997602,"sol","do",0,7,"^6_v5+_v4_^5+_v3_v1_v7-",6
"1110",69510,291.965000000317,"sol","te",0,7,"^6_v5+_v4_^5+_v3_v1_v7-",7
"1111",69510,673.330000001471,"do","sol",0,7,"^5_^6_v5_v4_v3_v2_v1",1
"1112",69510,890.244999998715,"re","la",0,7,"^5_^6_v5_v4_v3_v2_v1",2
"1113",69510,2240.82000000263,"do","sol",0,7,"^5_^6_v5_v4_v3_v2_v1",3
"1114",69510,1153.51499999803,"ti","fa",0,7,"^5_^6_v5_v4_v3_v2_v1",4
"1115",69510,758.344999998342,"la","mi",0,7,"^5_^6_v5_v4_v3_v2_v1",5
"1116",69510,1704.1500000013,"sol","re",0,7,"^5_^6_v5_v4_v3_v2_v1",6
"1117",69510,786.144999998156,"fa","do",0,7,"^5_^6_v5_v4_v3_v2_v1",7
"1118",69510,991.855000000214,"do","do",1,7,"1_^3_v1_^5_v3_v2_^3",1
"1119",69510,1222.6950000003,"mi","mi",1,7,"1_^3_v1_^5_v3_v2_^3",2
"1120",69510,1026.22500000149,"re","do",0,7,"1_^3_v1_^5_v3_v2_^3",3
"1121",69510,1744.41500000097,"fa","sol",0,7,"1_^3_v1_^5_v3_v2_^3",4
"1122",69510,3964.37999999756,"mi","mi",1,7,"1_^3_v1_^5_v3_v2_^3",5
"1123",69510,2347.82999999891,"la","re",0,7,"1_^3_v1_^5_v3_v2_^3",6
"1124",69510,712.110000000335,"sol","mi",0,7,"1_^3_v1_^5_v3_v2_^3",7
"1125",69510,859.834999999264,"do","do",1,7,"v1_^2_v1_v7_^1_^3_v2",1
"1126",69510,608.540000001201,"re","re",1,7,"v1_^2_v1_v7_^1_^3_v2",2
"1127",69510,703.789999999572,"do","do",1,7,"v1_^2_v1_v7_^1_^3_v2",3
"1128",69510,2757.0800000031,"te","ti",0,7,"v1_^2_v1_v7_^1_^3_v2",4
"1129",69510,1794.23999999929,"do","do",1,7,"v1_^2_v1_v7_^1_^3_v2",5
"1130",69510,1190.17499999981,"mi","mi",1,7,"v1_^2_v1_v7_^1_^3_v2",6
"1131",69510,3110.41000000108,"re","re",1,7,"v1_^2_v1_v7_^1_^3_v2",7
"1132",69510,3397.05000000307,"do","re",0,9,"^2_^4_v3_v2_v1_v3_v2+_^3_^5+",1
"1133",69510,844.584999999031,"re","fa",0,9,"^2_^4_v3_v2_v1_v3_v2+_^3_^5+",2
"1134",69510,1078.17500000237,"do","mi",0,9,"^2_^4_v3_v2_v1_v3_v2+_^3_^5+",3
"1135",69510,2062.3600000001,"te","re",0,9,"^2_^4_v3_v2_v1_v3_v2+_^3_^5+",4
"1136",69510,1366.30999999773,"re","do",0,9,"^2_^4_v3_v2_v1_v3_v2+_^3_^5+",5
"1137",69510,1246.2200000009,"mi","mi",1,9,"^2_^4_v3_v2_v1_v3_v2+_^3_^5+",6
"1138",69510,386.439999998314,"me","me",1,9,"^2_^4_v3_v2_v1_v3_v2+_^3_^5+",7
"1139",69510,1004.32000000007,"sol","mi",0,9,"^2_^4_v3_v2_v1_v3_v2+_^3_^5+",8
"1140",69510,756.324999998556,"sol","le",0,9,"^2_^4_v3_v2_v1_v3_v2+_^3_^5+",9
"1141",69510,3724.50500000198,"re","re",1,9,"^2_^3_^4_^5_^6_v5_v4_v3_v2",1
"1142",69510,1311.89000000106,"mi","mi",1,9,"^2_^3_^4_^5_^6_v5_v4_v3_v2",2
"1143",69510,736.774999997579,"fa","fa",1,9,"^2_^3_^4_^5_^6_v5_v4_v3_v2",3
"1144",69510,728.305000000633,"sol","sol",1,9,"^2_^3_^4_^5_^6_v5_v4_v3_v2",4
"1145",69510,2070.2399999972,"la","la",1,9,"^2_^3_^4_^5_^6_v5_v4_v3_v2",5
"1146",69510,536.080000001704,"sol","sol",1,9,"^2_^3_^4_^5_^6_v5_v4_v3_v2",6
"1147",69510,986.434999998892,"fa","fa",1,9,"^2_^3_^4_^5_^6_v5_v4_v3_v2",7
"1148",69510,1748.28999999957,"mi","mi",1,9,"^2_^3_^4_^5_^6_v5_v4_v3_v2",8
"1149",69510,576.549999997951,"re","re",1,9,"^2_^3_^4_^5_^6_v5_v4_v3_v2",9
"1150",69510,1013.16500000027,"re","mi",0,9,"^3_^4_^5 _^6_v5_v4_v3_v2_v1",1
"1151",69510,679.874999997905,"mi","fa",0,9,"^3_^4_^5 _^6_v5_v4_v3_v2_v1",2
"1152",69510,869.320000001462,"fa","5 ",0,9,"^3_^4_^5 _^6_v5_v4_v3_v2_v1",3
"1153",69510,2942.06499999925,"la","la",1,9,"^3_^4_^5 _^6_v5_v4_v3_v2_v1",4
"1154",69510,1508.25999999885,"sol","sol",1,9,"^3_^4_^5 _^6_v5_v4_v3_v2_v1",5
"1155",69510,684.5950000023,"fa","fa",1,9,"^3_^4_^5 _^6_v5_v4_v3_v2_v1",6
"1156",69510,932.280000000959,"me","mi",0,9,"^3_^4_^5 _^6_v5_v4_v3_v2_v1",7
"1157",69510,618.354999998817,"re","re",1,9,"^3_^4_^5 _^6_v5_v4_v3_v2_v1",8
"1158",69510,1156.2350000022,"do","do",1,9,"^3_^4_^5 _^6_v5_v4_v3_v2_v1",9
"1159",69510,707.54500000109,"do","sol",0,9,"v5_v4_v6+_^7_^3+_v3_v2_v5_^4",1
"1160",69510,1076.48000000324,"ti","fa",0,9,"v5_v4_v6+_^7_^3+_v3_v2_v5_^4",2
"1161",69510,471.9150000019,"te","te",1,9,"v5_v4_v6+_^7_^3+_v3_v2_v5_^4",3
"1162",69510,784.569999999832,"le","ti",0,9,"v5_v4_v6+_^7_^3+_v3_v2_v5_^4",4
"1163",69510,1832.36000000034,"me","3+",0,9,"v5_v4_v6+_^7_^3+_v3_v2_v5_^4",5
"1164",69510,785.960000000894,"ra","mi",0,9,"v5_v4_v6+_^7_^3+_v3_v2_v5_^4",6
"1165",69510,494.169999998296,"re","re",1,9,"v5_v4_v6+_^7_^3+_v3_v2_v5_^4",7
"1166",69510,594.685000000056,"do","sol",0,9,"v5_v4_v6+_^7_^3+_v3_v2_v5_^4",8
"1167",69510,576.434999999125,"do","fa",0,9,"v5_v4_v6+_^7_^3+_v3_v2_v5_^4",9
"1168",69510,968.879999996629,"do","mi",0,9,"^3_^4_v2_v7_^1_^2_^3_3_^4",1
"1169",69510,576.355000001146,"re","fa",0,9,"^3_^4_v2_v7_^1_^2_^3_3_^4",2
"1170",69510,478.424999997485,"do","re",0,9,"^3_^4_v2_v7_^1_^2_^3_3_^4",3
"1171",69510,1976.36000000057,"la","ti",0,9,"^3_^4_v2_v7_^1_^2_^3_3_^4",4
"1172",69510,1212.58999999915,"do","do",1,9,"^3_^4_v2_v7_^1_^2_^3_3_^4",5
"1173",69510,1530.33000000147,"me","re",0,9,"^3_^4_v2_v7_^1_^2_^3_3_^4",6
"1174",69510,610.179999999702,"re","mi",0,9,"^3_^4_v2_v7_^1_^2_^3_3_^4",7
"1175",69510,308.310000000522,"re","mi",0,9,"^3_^4_v2_v7_^1_^2_^3_3_^4",8
"1176",69510,1052.74499999732,"do","fa",0,9,"^3_^4_v2_v7_^1_^2_^3_3_^4",9
"1177",69510,6595.55499999993,"do","ti",0,9,"v7_v6_v5_^6_v5_v4_^5_^6_v5",1
"1178",69510,1822.29999999981,"re","la",0,9,"v7_v6_v5_^6_v5_v4_^5_^6_v5",2
"1179",69510,648.030000000261,"do","sol",0,9,"v7_v6_v5_^6_v5_v4_^5_^6_v5",3
"1180",69510,986.444999998668,"ti","la",0,9,"v7_v6_v5_^6_v5_v4_^5_^6_v5",4
"1181",69510,1034.42500000144,"re","sol",0,9,"v7_v6_v5_^6_v5_v4_^5_^6_v5",5
"1182",69510,1674.55499999761,"fa","fa",1,9,"v7_v6_v5_^6_v5_v4_^5_^6_v5",6
"1183",69510,720.344999997877,"mi","sol",0,9,"v7_v6_v5_^6_v5_v4_^5_^6_v5",7
"1184",69510,368.435000000289,"me","la",0,9,"v7_v6_v5_^6_v5_v4_^5_^6_v5",8
"1185",69510,912.260000000941,"ra","sol",0,9,"v7_v6_v5_^6_v5_v4_^5_^6_v5",9
"1186",69510,667.395000000484,"do","sol",0,9,"^5_^6_v5_v4_v3_v2_v1_^2_^3",1
"1187",69510,654.719999998575,"re","la",0,9,"^5_^6_v5_v4_v3_v2_v1_^2_^3",2
"1188",69510,792.269999998156,"do","sol",0,9,"^5_^6_v5_v4_v3_v2_v1_^2_^3",3
"1189",69510,1446.56000000052,"ti","fa",0,9,"^5_^6_v5_v4_v3_v2_v1_^2_^3",4
"1190",69510,766.285000001546,"la","mi",0,9,"^5_^6_v5_v4_v3_v2_v1_^2_^3",5
"1191",69510,639.924999999581,"sol","re",0,9,"^5_^6_v5_v4_v3_v2_v1_^2_^3",6
"1192",69510,654.449999998091,"fa","do",0,9,"^5_^6_v5_v4_v3_v2_v1_^2_^3",7
"1193",69510,576.264999999665,"sol","re",0,9,"^5_^6_v5_v4_v3_v2_v1_^2_^3",8
"1194",69510,576.454999998678,"la","mi",0,9,"^5_^6_v5_v4_v3_v2_v1_^2_^3",9
"1195",7361,12571.8999998644,"fi","ti",0,2,"v7_v3",1
"1196",7361,17113.1049999967,"fi","mi",0,2,"v7_v3",2
"1197",7361,1295.29999988154,"fa","fa",1,2,"v4_v3",1
"1198",7361,1963.51999999024,"mi","mi",1,2,"v4_v3",2
"1199",7361,24421.8299998902,"sol","sol",1,2,"v5_v1+",1
"1200",7361,3327.07500015385,"ra","ra",1,2,"v5_v1+",2
"1201",7361,1478.80499996245,"mi","mi",1,2,"v3_v2",1
"1202",7361,1115.96500012092,"re","re",1,2,"v3_v2",2
"1203",7361,8601.64499981329,"mi","mi",1,2,"3_^6",1
"1204",7361,5227.50999988057,"la","la",1,2,"3_^6",2
"1205",7361,7911.71999997459,"do","do",1,2,"^1_^2+",1
"1206",7361,1813.18499986082,"me","me",1,2,"^1_^2+",2
"1207",7361,1514.33500018902,"re","re",1,2,"v2_v1",1
"1208",7361,1456.94499998353,"do","do",1,2,"v2_v1",2
"1209",7361,4966.78000013344,"re","re",1,2,"^2_v7-",1
"1210",7361,5402.72999997251,"te","te",1,2,"^2_v7-",2
"1211",7361,12308.8400000706,"sol","sol",1,2,"^5_^1+",1
"1212",7361,6201.99499977753,"me","ra",0,2,"^5_^1+",2
"1213",7361,8712.53999997862,"mi","mi",1,2,"^3_v4+",1
"1214",7361,5472.04500017688,"fi","fi",1,2,"^3_v4+",2
"1215",7361,6830.13499993831,"do","do",1,3,"^1_v6_v5+",1
"1216",7361,6599.17499986477,"la","la",1,3,"^1_v6_v5+",2
"1217",7361,4475.54999985732,"le","le",1,3,"^1_v6_v5+",3
"1218",7361,1501.58499996178,"mi","mi",1,3,"v3_v2_v1",1
"1219",7361,1631.49500009604,"re","re",1,3,"v3_v2_v1",2
"1220",7361,1504.20999992639,"do","do",1,3,"v3_v2_v1",3
"1221",7361,11478.6450001411,"la","la",1,3,"6_^1_v5",1
"1222",7361,774.724999908358,"do","do",1,3,"6_^1_v5",2
"1223",7361,3168.2949999813,"sol","sol",1,3,"6_^1_v5",3
"1224",7361,666.854999959469,"do","do",1,3,"1_v1+_^2",1
"1225",7361,1685.96499995328,"ra","ra",1,3,"1_v1+_^2",2
"1226",7361,1211.64999995381,"re","re",1,3,"1_v1+_^2",3
"1227",7361,6331.57999999821,"do","do",1,3,"v1_v7-_^7",1
"1228",7361,5489.20499999076,"te","te",1,3,"v1_v7-_^7",2
"1229",7361,3136.61999977194,"ti","ti",1,3,"v1_v7-_^7",3
"1230",7361,4431.44499999471,"sol","sol",1,3,"v5_v4_v3",1
"1231",7361,1282.62999979779,"fa","fa",1,3,"v5_v4_v3",2
"1232",7361,1376.7049999442,"mi","mi",1,3,"v5_v4_v3",3
"1233",7361,1449.8349998612,"re","re",1,3,"v2_v5_^3",1
"1234",7361,4998.57999989763,"sol","sol",1,3,"v2_v5_^3",2
"1235",7361,2225.22500017658,"mi","mi",1,3,"v2_v5_^3",3
"1236",7361,3472.67000004649,"la","do",0,3,"v1_v7-_7-",1
"1237",7361,23952.2000001743,"le","te",0,3,"v1_v7-_7-",2
"1238",7361,901.725000003353,"le","te",0,3,"v1_v7-_7-",3
"1239",7361,1255.91500010341,"fa","fa",1,3,"v4_v3_v2",1
"1240",7361,1512.35500001349,"mi","mi",1,3,"v4_v3_v2",2
"1241",7361,1076.58500014804,"re","re",1,3,"v4_v3_v2",3
"1242",7361,6187.95999977738,"re","re",1,5,"v2_2_^3_^4_v2",1
"1243",7361,1203.07500008494,"re","re",1,5,"v2_2_^3_^4_v2",2
"1244",7361,2598.23999996297,"me","mi",0,5,"v2_2_^3_^4_v2",3
"1245",7361,775.900000007823,"fa","fa",1,5,"v2_2_^3_^4_v2",4
"1246",7361,8024.49500001967,"re","re",1,5,"v2_2_^3_^4_v2",5
"1247",7361,1812.38000001758,"sol","sol",1,5,"v5_v4_v3_v2_v1",1
"1248",7361,950.085000135005,"fa","fa",1,5,"v5_v4_v3_v2_v1",2
"1249",7361,1124.45000000298,"mi","mi",1,5,"v5_v4_v3_v2_v1",3
"1250",7361,1345.64499999397,"re","re",1,5,"v5_v4_v3_v2_v1",4
"1251",7361,2010.96499990672,"do","do",1,5,"v5_v4_v3_v2_v1",5
"1252",7361,1283.0149999354,"la","la",1,5,"^6_v5_v4_v3_v2",1
"1253",7361,916.850000154227,"sol","sol",1,5,"^6_v5_v4_v3_v2",2
"1254",7361,2296.61000007764,"fa","fa",1,5,"^6_v5_v4_v3_v2",3
"1255",7361,911.104999948293,"mi","mi",1,5,"^6_v5_v4_v3_v2",4
"1256",7361,1353.75000000931,"re","re",1,5,"^6_v5_v4_v3_v2",5
"1257",7361,1255.39999990724,"sol","sol",1,5,"v5_v4_v3_v2_v1 ",1
"1258",7361,1274.96000006795,"fa","fa",1,5,"v5_v4_v3_v2_v1 ",2
"1259",7361,1385.790000204,"mi","mi",1,5,"v5_v4_v3_v2_v1 ",3
"1260",7361,1266.11500000581,"re","re",1,5,"v5_v4_v3_v2_v1 ",4
"1261",7361,1584.71000008285,"do","1 ",0,5,"v5_v4_v3_v2_v1 ",5
"1262",7361,2973.21500000544,"fi","fi",1,5,"v5-_v3_3_^4+_v3",1
"1263",7361,8150.21499991417,"mi","mi",1,5,"v5-_v3_3_^4+_v3",2
"1264",7361,878.700000001118,"mi","mi",1,5,"v5-_v3_3_^4+_v3",3
"1265",7361,1211.05999988504,"fi","fi",1,5,"v5-_v3_3_^4+_v3",4
"1266",7361,5424.99500000849,"mi","mi",1,5,"v5-_v3_3_^4+_v3",5
"1267",7361,934.685000218451,"sol","sol",1,5,"v5_^6+_^7_^1_5",1
"1268",7361,1504.30999998935,"la","te",0,5,"v5_^6+_^7_^1_5",2
"1269",7361,1266.39000000432,"ti","ti",1,5,"v5_^6+_^7_^1_5",3
"1270",7361,1226.8449999392,"do","do",1,5,"v5_^6+_^7_^1_5",4
"1271",7361,1369.63499989361,"sol","sol",1,5,"v5_^6+_^7_^1_5",5
"1272",7361,10403.7450000178,"la","la",1,5,"^6_v4_v3_^4_^5",1
"1273",7361,10448.8250000868,"fa","fa",1,5,"^6_v4_v3_^4_^5",2
"1274",7361,10964.3749999814,"fi","mi",0,5,"^6_v4_v3_^4_^5",3
"1275",7361,1155.62500013039,"fa","fa",1,5,"^6_v4_v3_^4_^5",4
"1276",7361,1598.70500001125,"la","sol",0,5,"^6_v4_v3_^4_^5",5
"1277",7361,3366.47499981336,"sol","sol",1,5,"^5_^6_v5_v4_v3",1
"1278",7361,1218.55499991216,"la","la",1,5,"^5_^6_v5_v4_v3",2
"1279",7361,703.350000083447,"sol","sol",1,5,"^5_^6_v5_v4_v3",3
"1280",7361,822.664999868721,"fa","fa",1,5,"^5_^6_v5_v4_v3",4
"1281",7361,2201.55499991961,"mi","mi",1,5,"^5_^6_v5_v4_v3",5
"1282",7361,1251.01000000723,"do","do",1,7,"v1_^2_v1_v7_^1_^3_v2",1
"1283",7361,782.935000024736,"re","re",1,7,"v1_^2_v1_v7_^1_^3_v2",2
"1284",7361,1084.38999997452,"do","do",1,7,"v1_^2_v1_v7_^1_^3_v2",3
"1285",7361,1060.62500015832,"ti","ti",1,7,"v1_^2_v1_v7_^1_^3_v2",4
"1286",7361,3080.57499979623,"do","do",1,7,"v1_^2_v1_v7_^1_^3_v2",5
"1287",7361,5182.5799997896,"mi","mi",1,7,"v1_^2_v1_v7_^1_^3_v2",6
"1288",7361,2328.57499993406,"re","re",1,7,"v1_^2_v1_v7_^1_^3_v2",7
"1289",7361,1777.32999995351,"do","do",1,7,"1_^3_v1_^5_v3_v2_^3",1
"1290",7361,2289.27000006661,"mi","mi",1,7,"1_^3_v1_^5_v3_v2_^3",2
"1291",7361,1916.42999998294,"sol","do",0,7,"1_^3_v1_^5_v3_v2_^3",3
"1292",7361,2082.94000010937,"mi","sol",0,7,"1_^3_v1_^5_v3_v2_^3",4
"1293",7361,3620.37999997847,"re","mi",0,7,"1_^3_v1_^5_v3_v2_^3",5
"1294",7361,3009.48500004597,"mi","re",0,7,"1_^3_v1_^5_v3_v2_^3",6
"1295",7361,5900.33000009134,"re","mi",0,7,"1_^3_v1_^5_v3_v2_^3",7
"1296",7361,1786.22499993071,"fa","fa",1,7,"^4_^5_^6_v5_v4_v3_v2",1
"1297",7361,879.344999790192,"sol","sol",1,7,"^4_^5_^6_v5_v4_v3_v2",2
"1298",7361,783.114999998361,"la","la",1,7,"^4_^5_^6_v5_v4_v3_v2",3
"1299",7361,750.809999881312,"sol","sol",1,7,"^4_^5_^6_v5_v4_v3_v2",4
"1300",7361,839.245000155643,"fa","fa",1,7,"^4_^5_^6_v5_v4_v3_v2",5
"1301",7361,1100.60500004329,"mi","mi",1,7,"^4_^5_^6_v5_v4_v3_v2",6
"1302",7361,1163.45999995247,"re","re",1,7,"^4_^5_^6_v5_v4_v3_v2",7
"1303",7361,10106.1150000896,"mi","fa",0,7,"^4_v6-_v5-_^6-_^4_v2-_2-",1
"1304",7361,9705.4749999661,"la","le",0,7,"^4_v6-_v5-_^6-_^4_v2-_2-",2
"1305",7361,9941.67500012554,"fa","fi",0,7,"^4_v6-_v5-_^6-_^4_v2-_2-",3
"1306",7361,11145.3750000801,"fa","le",0,7,"^4_v6-_v5-_^6-_^4_v2-_2-",4
"1307",7361,2588.89500005171,"mi","fa",0,7,"^4_v6-_v5-_^6-_^4_v2-_2-",5
"1308",7361,2637.14500004426,"la","ra",0,7,"^4_v6-_v5-_^6-_^4_v2-_2-",6
"1309",7361,4712.5249998644,"me","ra",0,7,"^4_v6-_v5-_^6-_^4_v2-_2-",7
"1310",7361,1336.59500000067,"le","la",0,7,"^6_v5+_v4_^5+_v3_v1_v7-",1
"1311",7361,1369.604999898,"sol","le",0,7,"^6_v5+_v4_^5+_v3_v1_v7-",2
"1312",7361,8010.12499979697,"fa","fa",1,7,"^6_v5+_v4_^5+_v3_v1_v7-",3
"1313",7361,1195.68000012077,"sol","le",0,7,"^6_v5+_v4_^5+_v3_v1_v7-",4
"1314",7361,1321.5799999889,"fa","mi",0,7,"^6_v5+_v4_^5+_v3_v1_v7-",5
"1315",7361,2510.92000002973,"mi","do",0,7,"^6_v5+_v4_^5+_v3_v1_v7-",6
"1316",7361,2549.96000020765,"re","te",0,7,"^6_v5+_v4_^5+_v3_v1_v7-",7
"1317",7361,1382.45999999344,"sol","sol",1,7,"^5_^6_v5_v4_v3_v2_v1",1
"1318",7361,807.659999933094,"la","la",1,7,"^5_^6_v5_v4_v3_v2_v1",2
"1319",7361,1021.0149998311,"sol","sol",1,7,"^5_^6_v5_v4_v3_v2_v1",3
"1320",7361,870.445000007749,"fa","fa",1,7,"^5_^6_v5_v4_v3_v2_v1",4
"1321",7361,1337.49000006355,"mi","mi",1,7,"^5_^6_v5_v4_v3_v2_v1",5
"1322",7361,1029.15499988012,"re","re",1,7,"^5_^6_v5_v4_v3_v2_v1",6
"1323",7361,1179.89999987185,"do","do",1,7,"^5_^6_v5_v4_v3_v2_v1",7
"1324",7361,824.06000001356,"do","do",1,7,"^1_v7_v6_v5_v4_v3_v2",1
"1325",7361,1385.65500010736,"ti","ti",1,7,"^1_v7_v6_v5_v4_v3_v2",2
"1326",7361,1027.32499991544,"la","la",1,7,"^1_v7_v6_v5_v4_v3_v2",3
"1327",7361,989.77499990724,"sol","sol",1,7,"^1_v7_v6_v5_v4_v3_v2",4
"1328",7361,1076.18000009097,"fa","fa",1,7,"^1_v7_v6_v5_v4_v3_v2",5
"1329",7361,1084.65499989688,"mi","mi",1,7,"^1_v7_v6_v5_v4_v3_v2",6
"1330",7361,1131.38499995694,"re","re",1,7,"^1_v7_v6_v5_v4_v3_v2",7
"1331",7361,3543.25000010431,"mi","mi",1,9,"^3_^4_^5 _^6_v5_v4_v3_v2_v1",1
"1332",7361,546.164999948815,"fa","fa",1,9,"^3_^4_^5 _^6_v5_v4_v3_v2_v1",2
"1333",7361,656.519999960437,"sol","5 ",0,9,"^3_^4_^5 _^6_v5_v4_v3_v2_v1",3
"1334",7361,838.974999962375,"la","la",1,9,"^3_^4_^5 _^6_v5_v4_v3_v2_v1",4
"1335",7361,639.810000080615,"sol","sol",1,9,"^3_^4_^5 _^6_v5_v4_v3_v2_v1",5
"1336",7361,719.55499984324,"fa","fa",1,9,"^3_^4_^5 _^6_v5_v4_v3_v2_v1",6
"1337",7361,816.154999891296,"mi","mi",1,9,"^3_^4_^5 _^6_v5_v4_v3_v2_v1",7
"1338",7361,1678.04999998771,"re","re",1,9,"^3_^4_^5 _^6_v5_v4_v3_v2_v1",8
"1339",7361,1251.57500011846,"do","do",1,9,"^3_^4_^5 _^6_v5_v4_v3_v2_v1",9
"1340",7361,742.324999999255,"ti","ti",1,9,"v7_v6_v5_^6_v5_v4_^5_^6_v5",1
"1341",7361,2708.21000006981,"la","la",1,9,"v7_v6_v5_^6_v5_v4_^5_^6_v5",2
"1342",7361,806.99499999173,"sol","sol",1,9,"v7_v6_v5_^6_v5_v4_^5_^6_v5",3
"1343",7361,1131.66499999352,"la","la",1,9,"v7_v6_v5_^6_v5_v4_^5_^6_v5",4
"1344",7361,1163.2250000257,"sol","sol",1,9,"v7_v6_v5_^6_v5_v4_^5_^6_v5",5
"1345",7361,2383.44500004314,"fa","fa",1,9,"v7_v6_v5_^6_v5_v4_^5_^6_v5",6
"1346",7361,3929.2500000447,"sol","sol",1,9,"v7_v6_v5_^6_v5_v4_^5_^6_v5",7
"1347",7361,1171.4449999854,"fa","la",0,9,"v7_v6_v5_^6_v5_v4_^5_^6_v5",8
"1348",7361,2415.08499998599,"mi","sol",0,9,"v7_v6_v5_^6_v5_v4_^5_^6_v5",9
"1349",7361,1341.02000016719,"re","re",1,9,"^2_^3_^4_^5_^6_v5_v4_v3_v2",1
"1350",7361,847.115000011399,"mi","mi",1,9,"^2_^3_^4_^5_^6_v5_v4_v3_v2",2
"1351",7361,806.184999877587,"fa","fa",1,9,"^2_^3_^4_^5_^6_v5_v4_v3_v2",3
"1352",7361,673.31500002183,"sol","sol",1,9,"^2_^3_^4_^5_^6_v5_v4_v3_v2",4
"1353",7361,989.589999895543,"la","la",1,9,"^2_^3_^4_^5_^6_v5_v4_v3_v2",5
"1354",7361,798.919999971986,"sol","sol",1,9,"^2_^3_^4_^5_^6_v5_v4_v3_v2",6
"1355",7361,822.89499999024,"fa","fa",1,9,"^2_^3_^4_^5_^6_v5_v4_v3_v2",7
"1356",7361,783.270000014454,"mi","mi",1,9,"^2_^3_^4_^5_^6_v5_v4_v3_v2",8
"1357",7361,917.78999986127,"re","re",1,9,"^2_^3_^4_^5_^6_v5_v4_v3_v2",9
"1358",7361,1303.44000016339,"la","sol",0,9,"v5_v4_v6+_^7_^3+_v3_v2_v5_^4",1
"1359",7361,696.824999991804,"sol","fa",0,9,"v5_v4_v6+_^7_^3+_v3_v2_v5_^4",2
"1360",7361,3358.7299999781,"re","te",0,9,"v5_v4_v6+_^7_^3+_v3_v2_v5_^4",3
"1361",7361,807.055000215769,"mi","ti",0,9,"v5_v4_v6+_^7_^3+_v3_v2_v5_^4",4
"1362",7361,4704.44000000134,"fi","3+",0,9,"v5_v4_v6+_^7_^3+_v3_v2_v5_^4",5
"1363",7361,846.829999936745,"sol","mi",0,9,"v5_v4_v6+_^7_^3+_v3_v2_v5_^4",6
"1364",7361,2074.49500006624,"le","re",0,9,"v5_v4_v6+_^7_^3+_v3_v2_v5_^4",7
"1365",7361,1852.90999989957,"fi","sol",0,9,"v5_v4_v6+_^7_^3+_v3_v2_v5_^4",8
"1366",7361,3239.91500004195,"fa","fa",1,9,"v5_v4_v6+_^7_^3+_v3_v2_v5_^4",9
"1367",7361,1780.46500007622,"sol","sol",1,9,"^5_^6_v5_v4_v3_v2_v1_^2_^3",1
"1368",7361,586.385000031441,"la","la",1,9,"^5_^6_v5_v4_v3_v2_v1_^2_^3",2
"1369",7361,719.844999955967,"sol","sol",1,9,"^5_^6_v5_v4_v3_v2_v1_^2_^3",3
"1370",7361,823.199999984354,"fa","fa",1,9,"^5_^6_v5_v4_v3_v2_v1_^2_^3",4
"1371",7361,854.330000001937,"mi","mi",1,9,"^5_^6_v5_v4_v3_v2_v1_^2_^3",5
"1372",7361,704.559999983758,"re","re",1,9,"^5_^6_v5_v4_v3_v2_v1_^2_^3",6
"1373",7361,862.35999991186,"do","do",1,9,"^5_^6_v5_v4_v3_v2_v1_^2_^3",7
"1374",7361,1013.03000003099,"re","re",1,9,"^5_^6_v5_v4_v3_v2_v1_^2_^3",8
"1375",7361,1084.57000018097,"mi","mi",1,9,"^5_^6_v5_v4_v3_v2_v1_^2_^3",9
"1376",7361,2146.7399999965,"mi","mi",1,9,"^3_^4_v2_v7_^1_^2_^3_3_^4",1
"1377",7361,490.7050000038,"fa","fa",1,9,"^3_^4_v2_v7_^1_^2_^3_3_^4",2
"1378",7361,2391.59500016831,"re","re",1,9,"^3_^4_v2_v7_^1_^2_^3_3_^4",3
"1379",7361,2526.04499994777,"do","ti",0,9,"^3_^4_v2_v7_^1_^2_^3_3_^4",4
"1380",7361,2638.32499994896,"re","do",0,9,"^3_^4_v2_v7_^1_^2_^3_3_^4",5
"1381",7361,640.485000098124,"mi","re",0,9,"^3_^4_v2_v7_^1_^2_^3_3_^4",6
"1382",7361,1773.52500008419,"fa","mi",0,9,"^3_^4_v2_v7_^1_^2_^3_3_^4",7
"1383",7361,4643.15499993972,"sol","mi",0,9,"^3_^4_v2_v7_^1_^2_^3_3_^4",8
"1384",7361,2566.22499995865,"fa","fa",1,9,"^3_^4_v2_v7_^1_^2_^3_3_^4",9
"1385",7361,1974.43999978714,"re","re",1,9,"^2_^4_v3_v2_v1_v3_v2+_^3_^5+",1
"1386",7361,1529.28999997675,"mi","fa",0,9,"^2_^4_v3_v2_v1_v3_v2+_^3_^5+",2
"1387",7361,2486.37500009499,"mi","mi",1,9,"^2_^4_v3_v2_v1_v3_v2+_^3_^5+",3
"1388",7361,847.129999892786,"re","re",1,9,"^2_^4_v3_v2_v1_v3_v2+_^3_^5+",4
"1389",7361,2922.74000006728,"do","do",1,9,"^2_^4_v3_v2_v1_v3_v2+_^3_^5+",5
"1390",7361,2487.25000000559,"me","mi",0,9,"^2_^4_v3_v2_v1_v3_v2+_^3_^5+",6
"1391",7361,4641.6100000497,"fi","me",0,9,"^2_^4_v3_v2_v1_v3_v2+_^3_^5+",7
"1392",7361,3793.81499998271,"sol","mi",0,9,"^2_^4_v3_v2_v1_v3_v2+_^3_^5+",8
"1393",7361,7129.49500000104,"sol","le",0,9,"^2_^4_v3_v2_v1_v3_v2+_^3_^5+",9
"1394",77740,2667.46000002604,"fa","fa",1,2,"v4_v3",1
"1395",77740,1034.74499995355,"mi","mi",1,2,"v4_v3",2
"1396",77740,1129.61499998346,"sol","sol",1,2,"v5_v1+",1
"1397",77740,1617.2249999363,"ra","ra",1,2,"v5_v1+",2
"1398",77740,7320.89500001166,"ti","ti",1,2,"v7_v3",1
"1399",77740,2087.01500005554,"mi","mi",1,2,"v7_v3",2
"1400",77740,845.464999903925,"mi","mi",1,2,"v3_v2",1
"1401",77740,663.034999975935,"re","re",1,2,"v3_v2",2
"1402",77740,750.050000031479,"re","re",1,2,"v2_v1",1
"1403",77740,573.71000002604,"do","do",1,2,"v2_v1",2
"1404",77740,1872.20500002149,"sol","sol",1,2,"^5_^1+",1
"1405",77740,1633.96000000648,"ra","ra",1,2,"^5_^1+",2
"1406",77740,1029.56500009168,"re","re",1,2,"^2_v7-",1
"1407",77740,1131.74999994226,"te","te",1,2,"^2_v7-",2
"1408",77740,724.894999992102,"do","do",1,2,"^1_^2+",1
"1409",77740,700.50999999512,"me","me",1,2,"^1_^2+",2
"1410",77740,3550.4700000165,"mi","mi",1,2,"^3_v4+",1
"1411",77740,775.979999918491,"fi","fi",1,2,"^3_v4+",2
"1412",77740,1252.30499997269,"mi","mi",1,2,"3_^6",1
"1413",77740,1462.78999990318,"la","la",1,2,"3_^6",2
"1414",77740,821.205000043847,"re","re",1,3,"v2_v5_^3",1
"1415",77740,931.51999998372,"sol","sol",1,3,"v2_v5_^3",2
"1416",77740,709.425000008196,"mi","mi",1,3,"v2_v5_^3",3
"1417",77740,1067.13499990292,"la","la",1,3,"6_^1_v5",1
"1418",77740,816.749999998137,"do","do",1,3,"6_^1_v5",2
"1419",77740,806.754999910481,"sol","sol",1,3,"6_^1_v5",3
"1420",77740,925.135000026785,"sol","sol",1,3,"v5_v4_v3",1
"1421",77740,905.479999957606,"fa","fa",1,3,"v5_v4_v3",2
"1422",77740,452.280000085011,"mi","mi",1,3,"v5_v4_v3",3
"1423",77740,699.400000041351,"do","do",1,3,"1_v1+_^2",1
"1424",77740,484.984999988228,"ra","ra",1,3,"1_v1+_^2",2
"1425",77740,403.105000033975,"re","re",1,3,"1_v1+_^2",3
"1426",77740,805.244999937713,"do","do",1,3,"v1_v7-_7-",1
"1427",77740,930.339999962598,"te","te",1,3,"v1_v7-_7-",2
"1428",77740,435.620000003837,"te","te",1,3,"v1_v7-_7-",3
"1429",77740,810.3500000434,"do","do",1,3,"v1_v7-_^7",1
"1430",77740,1019.05499992426,"te","te",1,3,"v1_v7-_^7",2
"1431",77740,435.50999998115,"ti","ti",1,3,"v1_v7-_^7",3
"1432",77740,1008.14499997068,"me","mi",0,3,"v3_v2_v1",1
"1433",77740,2677.20000003465,"re","re",1,3,"v3_v2_v1",2
"1434",77740,1261.79999997839,"do","do",1,3,"v3_v2_v1",3
"1435",77740,3064.30999992881,"do","do",1,3,"^1_v6_v5+",1
"1436",77740,816.224999958649,"la","la",1,3,"^1_v6_v5+",2
"1437",77740,670.559999998659,"le","le",1,3,"^1_v6_v5+",3
"1438",77740,881.760000018403,"fa","fa",1,3,"v4_v3_v2",1
"1439",77740,808.489999966696,"mi","mi",1,3,"v4_v3_v2",2
"1440",77740,872.785000014119,"re","re",1,3,"v4_v3_v2",3
"1441",77740,1311.11999996938,"la","la",1,5,"^6_v4_v3_^4_^5",1
"1442",77740,921.100000035949,"fa","fa",1,5,"^6_v4_v3_^4_^5",2
"1443",77740,553.874999983236,"mi","mi",1,5,"^6_v4_v3_^4_^5",3
"1444",77740,346.64999996312,"fa","fa",1,5,"^6_v4_v3_^4_^5",4
"1445",77740,687.23499996122,"sol","sol",1,5,"^6_v4_v3_^4_^5",5
"1446",77740,1033.46000006422,"fi","fi",1,5,"v5-_v3_3_^4+_v3",1
"1447",77740,671.014999970794,"mi","mi",1,5,"v5-_v3_3_^4+_v3",2
"1448",77740,395.184999913909,"mi","mi",1,5,"v5-_v3_3_^4+_v3",3
"1449",77740,623.159999959171,"fi","fi",1,5,"v5-_v3_3_^4+_v3",4
"1450",77740,540.275000035763,"mi","mi",1,5,"v5-_v3_3_^4+_v3",5
"1451",77740,1182.16999992728,"sol","sol",1,5,"v5_^6+_^7_^1_5",1
"1452",77740,848.794999998063,"la","te",0,5,"v5_^6+_^7_^1_5",2
"1453",77740,647.799999918789,"ti","ti",1,5,"v5_^6+_^7_^1_5",3
"1454",77740,508.230000035837,"do","do",1,5,"v5_^6+_^7_^1_5",4
"1455",77740,702.649999991991,"sol","sol",1,5,"v5_^6+_^7_^1_5",5
"1456",77740,934.305000002496,"la","la",1,5,"^6_v5_v4_v3_v2",1
"1457",77740,678.624999942258,"sol","sol",1,5,"^6_v5_v4_v3_v2",2
"1458",77740,665.704999933951,"fa","fa",1,5,"^6_v5_v4_v3_v2",3
"1459",77740,647.23000000231,"mi","mi",1,5,"^6_v5_v4_v3_v2",4
"1460",77740,645.219999947585,"re","re",1,5,"^6_v5_v4_v3_v2",5
"1461",77740,910.819999990053,"sol","sol",1,5,"v5_v4_v3_v2_v1",1
"1462",77740,540.990000008605,"fa","fa",1,5,"v5_v4_v3_v2_v1",2
"1463",77740,588.164999964647,"mi","mi",1,5,"v5_v4_v3_v2_v1",3
"1464",77740,585.639999946579,"re","re",1,5,"v5_v4_v3_v2_v1",4
"1465",77740,678.930000052787,"do","do",1,5,"v5_v4_v3_v2_v1",5
"1466",77740,1210.78500000294,"sol","sol",1,5,"^5_^6_v5_v4_v3",1
"1467",77740,602.759999921545,"la","la",1,5,"^5_^6_v5_v4_v3",2
"1468",77740,645.675000036135,"sol","sol",1,5,"^5_^6_v5_v4_v3",3
"1469",77740,678.669999935664,"fa","fa",1,5,"^5_^6_v5_v4_v3",4
"1470",77740,654.504999984056,"mi","mi",1,5,"^5_^6_v5_v4_v3",5
"1471",77740,943.689999985509,"sol","sol",1,5,"v5_v4_v3_v2_v1 ",1
"1472",77740,638.489999924786,"fa","fa",1,5,"v5_v4_v3_v2_v1 ",2
"1473",77740,569.275000016205,"mi","mi",1,5,"v5_v4_v3_v2_v1 ",3
"1474",77740,565.734999952838,"re","re",1,5,"v5_v4_v3_v2_v1 ",4
"1475",77740,540.929999900982,"do","1 ",0,5,"v5_v4_v3_v2_v1 ",5
"1476",77740,1111.97500000708,"re","re",1,5,"v2_2_^3_^4_v2",1
"1477",77740,492.639999953099,"re","re",1,5,"v2_2_^3_^4_v2",2
"1478",77740,659.074999974109,"mi","mi",1,5,"v2_2_^3_^4_v2",3
"1479",77740,444.269999978133,"fa","fa",1,5,"v2_2_^3_^4_v2",4
"1480",77740,629.214999964461,"re","re",1,5,"v2_2_^3_^4_v2",5
"1481",77740,882.900000084192,"do","do",1,7,"^1_v7_v6_v5_v4_v3_v2",1
"1482",77740,678.044999949634,"ti","ti",1,7,"^1_v7_v6_v5_v4_v3_v2",2
"1483",77740,852.904999977909,"la","la",1,7,"^1_v7_v6_v5_v4_v3_v2",3
"1484",77740,670.934999943711,"sol","sol",1,7,"^1_v7_v6_v5_v4_v3_v2",4
"1485",77740,994.350000051782,"fa","fa",1,7,"^1_v7_v6_v5_v4_v3_v2",5
"1486",77740,606.129999971017,"mi","mi",1,7,"^1_v7_v6_v5_v4_v3_v2",6
"1487",77740,872.830000007525,"re","re",1,7,"^1_v7_v6_v5_v4_v3_v2",7
"1488",77740,1286.16999997757,"la","la",1,7,"^6_v5+_v4_^5+_v3_v1_v7-",1
"1489",77740,701.824999996461,"le","le",1,7,"^6_v5+_v4_^5+_v3_v1_v7-",2
"1490",77740,8439.11000003573,"fa","fa",1,7,"^6_v5+_v4_^5+_v3_v1_v7-",3
"1491",77740,793.019999982789,"le","le",1,7,"^6_v5+_v4_^5+_v3_v1_v7-",4
"1492",77740,5821.89500005916,"mi","mi",1,7,"^6_v5+_v4_^5+_v3_v1_v7-",5
"1493",77740,3633.11000005342,"do","do",1,7,"^6_v5+_v4_^5+_v3_v1_v7-",6
"1494",77740,1771.26000006683,"te","te",1,7,"^6_v5+_v4_^5+_v3_v1_v7-",7
"1495",77740,1577.97500002198,"sol","sol",1,7,"^5_^6_v5_v4_v3_v2_v1",1
"1496",77740,622.465000022203,"la","la",1,7,"^5_^6_v5_v4_v3_v2_v1",2
"1497",77740,573.650000034831,"sol","sol",1,7,"^5_^6_v5_v4_v3_v2_v1",3
"1498",77740,641.865000012331,"fa","fa",1,7,"^5_^6_v5_v4_v3_v2_v1",4
"1499",77740,492.809999966994,"mi","mi",1,7,"^5_^6_v5_v4_v3_v2_v1",5
"1500",77740,549.179999972694,"re","re",1,7,"^5_^6_v5_v4_v3_v2_v1",6
"1501",77740,1011.00999990012,"do","do",1,7,"^5_^6_v5_v4_v3_v2_v1",7
"1502",77740,1378.12000000849,"do","do",1,7,"1_^3_v1_^5_v3_v2_^3",1
"1503",77740,1141.0100000212,"mi","mi",1,7,"1_^3_v1_^5_v3_v2_^3",2
"1504",77740,929.315000073984,"do","do",1,7,"1_^3_v1_^5_v3_v2_^3",3
"1505",77740,1468.57499994803,"sol","sol",1,7,"1_^3_v1_^5_v3_v2_^3",4
"1506",77740,840.094999992289,"mi","mi",1,7,"1_^3_v1_^5_v3_v2_^3",5
"1507",77740,631.640000035986,"re","re",1,7,"1_^3_v1_^5_v3_v2_^3",6
"1508",77740,540.090000024065,"mi","mi",1,7,"1_^3_v1_^5_v3_v2_^3",7
"1509",77740,4417.55000001285,"fa","fa",1,7,"^4_v6-_v5-_^6-_^4_v2-_2-",1
"1510",77740,16964.1350000165,"le","le",1,7,"^4_v6-_v5-_^6-_^4_v2-_2-",2
"1511",77740,912.84500004258,"sol","fi",0,7,"^4_v6-_v5-_^6-_^4_v2-_2-",3
"1512",77740,800.790000008419,"le","le",1,7,"^4_v6-_v5-_^6-_^4_v2-_2-",4
"1513",77740,848.125000018626,"fa","fa",1,7,"^4_v6-_v5-_^6-_^4_v2-_2-",5
"1514",77740,844.500000006519,"ra","ra",1,7,"^4_v6-_v5-_^6-_^4_v2-_2-",6
"1515",77740,654.489999986254,"ra","ra",1,7,"^4_v6-_v5-_^6-_^4_v2-_2-",7
"1516",77740,1222.94000000693,"fa","fa",1,7,"^4_^5_^6_v5_v4_v3_v2",1
"1517",77740,620.794999995269,"sol","sol",1,7,"^4_^5_^6_v5_v4_v3_v2",2
"1518",77740,638.98499996867,"la","la",1,7,"^4_^5_^6_v5_v4_v3_v2",3
"1519",77740,580.959999933839,"sol","sol",1,7,"^4_^5_^6_v5_v4_v3_v2",4
