"","subject","rt","button_pressed_vector_c","trial_answer","score","trial_length","stimulus","serial_order"
"1",22189,8895.46499995049,"re","mi",0,2,"3_^6",1
"2",22189,5564.97000006493,"sol","la",0,2,"3_^6",2
"3",22189,14950.9799999651,"mi","mi",1,2,"v3_v2",1
"4",22189,903.240000014193,"re","re",1,2,"v3_v2",2
"5",22189,3822.56999996025,"do","re",0,2,"^2_v7-",1
"6",22189,17797.6100000087,"sol","te",0,2,"^2_v7-",2
"7",22189,11954.9549999647,"la","sol",0,2,"v5_v1+",1
"8",22189,19848.2749999966,"re","ra",0,2,"v5_v1+",2
"9",22189,11023.0549999978,"re","sol",0,2,"^5_^1+",1
"10",22189,3861.91500001587,"le","ra",0,2,"^5_^1+",2
"11",22189,34501.569999964,"le","mi",0,2,"^3_v4+",1
"12",22189,840.169999981299,"la","fi",0,2,"^3_v4+",2
"13",22189,27795.8050000016,"fa","fa",1,2,"v4_v3",1
"14",22189,5164.21499999706,"mi","mi",1,2,"v4_v3",2
"15",22189,14180.534999934,"fi","ti",0,2,"v7_v3",1
"16",22189,1671.36999999639,"ra","mi",0,2,"v7_v3",2
"17",22189,1553.31499991007,"do","do",1,2,"^1_^2+",1
"18",22189,5882.40000000224,"me","me",1,2,"^1_^2+",2
"19",22189,3452.98499998171,"ra","re",0,2,"v2_v1",1
"20",22189,2218.28999998979,"ti","do",0,2,"v2_v1",2
"21",22189,11433.480000007,"do","do",1,3,"^1_v6_v5+",1
"22",22189,8025.44999995735,"te","la",0,3,"^1_v6_v5+",2
"23",22189,1239.09500008449,"la","le",0,3,"^1_v6_v5+",3
"24",22189,13680.8650000021,"do","do",1,3,"v1_v7-_^7",1
"25",22189,2585.59999999125,"la","te",0,3,"v1_v7-_^7",2
"26",22189,605.045000091195,"te","ti",0,3,"v1_v7-_^7",3
"27",22189,8118.00999997649,"re","do",0,3,"1_v1+_^2",1
"28",22189,520.549999899231,"me","ra",0,3,"1_v1+_^2",2
"29",22189,540.440000011586,"mi","re",0,3,"1_v1+_^2",3
"30",22189,22899.3300000438,"do","la",0,3,"6_^1_v5",1
"31",22189,4531.33999998681,"mi","do",0,3,"6_^1_v5",2
"32",22189,563.419999903999,"fa","sol",0,3,"6_^1_v5",3
"33",22189,19301.7100000288,"do","re",0,3,"v2_v5_^3",1
"34",22189,1512.86500005517,"sol","sol",1,3,"v2_v5_^3",2
"35",22189,1262.89999997243,"mi","mi",1,3,"v2_v5_^3",3
"36",22189,21087.5450000167,"fa","fa",1,3,"v4_v3_v2",1
"37",22189,738.060000003316,"mi","mi",1,3,"v4_v3_v2",2
"38",22189,711.24500001315,"re","re",1,3,"v4_v3_v2",3
"39",22189,2030.03999998327,"mi","mi",1,3,"v3_v2_v1",1
"40",22189,660.885000019334,"re","re",1,3,"v3_v2_v1",2
"41",22189,767.529999953695,"do","do",1,3,"v3_v2_v1",3
"42",22189,11262.1250000084,"sol","sol",1,3,"v5_v4_v3",1
"43",22189,1684.44499990437,"fa","fa",1,3,"v5_v4_v3",2
"44",22189,1593.24000007473,"mi","mi",1,3,"v5_v4_v3",3
"45",22189,27495.0749999844,"me","do",0,3,"v1_v7-_7-",1
"46",22189,1305.92499999329,"do","te",0,3,"v1_v7-_7-",2
"47",22189,611.890000058338,"do","te",0,3,"v1_v7-_7-",3
"48",22189,17878.7399999565,"me","fi",0,5,"v5-_v3_3_^4+_v3",1
"49",22189,1011.6299999645,"re","mi",0,5,"v5-_v3_3_^4+_v3",2
"50",22189,454.524999950081,"re","mi",0,5,"v5-_v3_3_^4+_v3",3
"51",22189,561.744999955408,"me","fi",0,5,"v5-_v3_3_^4+_v3",4
"52",22189,575.454999925569,"re","mi",0,5,"v5-_v3_3_^4+_v3",5
"53",22189,2341.86500008218,"sol","sol",1,5,"v5_v4_v3_v2_v1 ",1
"54",22189,941.684999968857,"fa","fa",1,5,"v5_v4_v3_v2_v1 ",2
"55",22189,940.760000026785,"mi","mi",1,5,"v5_v4_v3_v2_v1 ",3
"56",22189,833.059999975376,"re","re",1,5,"v5_v4_v3_v2_v1 ",4
"57",22189,928.550000069663,"do","1 ",0,5,"v5_v4_v3_v2_v1 ",5
"58",22189,14346.8700000085,"sol","sol",1,5,"^5_^6_v5_v4_v3",1
"59",22189,1563.44000005629,"fa","la",0,5,"^5_^6_v5_v4_v3",2
"60",22189,3259.84499999322,"sol","sol",1,5,"^5_^6_v5_v4_v3",3
"61",22189,952.129999990575,"fa","fa",1,5,"^5_^6_v5_v4_v3",4
"62",22189,540.670000016689,"mi","mi",1,5,"^5_^6_v5_v4_v3",5
"63",22189,2231.68000008445,"sol","sol",1,5,"v5_v4_v3_v2_v1",1
"64",22189,1026.91000001505,"fa","fa",1,5,"v5_v4_v3_v2_v1",2
"65",22189,561.814999906346,"mi","mi",1,5,"v5_v4_v3_v2_v1",3
"66",22189,661.784999887459,"re","re",1,5,"v5_v4_v3_v2_v1",4
"67",22189,755.284999962896,"do","do",1,5,"v5_v4_v3_v2_v1",5
"68",22189,6107.90999990422,"ra","re",0,5,"v2_2_^3_^4_v2",1
"69",22189,765.485000098124,"ra","re",0,5,"v2_2_^3_^4_v2",2
"70",22189,5651.37500001583,"me","mi",0,5,"v2_2_^3_^4_v2",3
"71",22189,6587.65999996103,"mi","fa",0,5,"v2_2_^3_^4_v2",4
"72",22189,5072.71000009496,"ra","re",0,5,"v2_2_^3_^4_v2",5
"73",22189,22689.1900000628,"la","la",1,5,"^6_v4_v3_^4_^5",1
"74",22189,1649.5049999794,"sol","fa",0,5,"^6_v4_v3_^4_^5",2
"75",22189,1248.54499998037,"fa","mi",0,5,"^6_v4_v3_^4_^5",3
"76",22189,1097.84000006039,"mi","fa",0,5,"^6_v4_v3_^4_^5",4
"77",22189,1564.49500005692,"me","sol",0,5,"^6_v4_v3_^4_^5",5
"78",22189,23778.5999999614,"la","la",1,5,"^6_v5_v4_v3_v2",1
"79",22189,832.554999971762,"sol","sol",1,5,"^6_v5_v4_v3_v2",2
"80",22189,740.044999984093,"fa","fa",1,5,"^6_v5_v4_v3_v2",3
"81",22189,1665.06999998819,"mi","mi",1,5,"^6_v5_v4_v3_v2",4
"82",22189,948.949999990873,"re","re",1,5,"^6_v5_v4_v3_v2",5
"83",22189,16619.2049999954,"fa","sol",0,5,"v5_^6+_^7_^1_5",1
"84",22189,346.209999988787,"fa","te",0,5,"v5_^6+_^7_^1_5",2
"85",22189,1399.92499991786,"sol","ti",0,5,"v5_^6+_^7_^1_5",3
"86",22189,5701.2050000485,"le","do",0,5,"v5_^6+_^7_^1_5",4
"87",22189,810.749999945983,"fa","sol",0,5,"v5_^6+_^7_^1_5",5
"88",22189,18177.7800000273,"fa","la",0,7,"^6_v5+_v4_^5+_v3_v1_v7-",1
"89",22189,1141.13000000361,"me","le",0,7,"^6_v5+_v4_^5+_v3_v1_v7-",2
"90",22189,2771.7699999921,"re","fa",0,7,"^6_v5+_v4_^5+_v3_v1_v7-",3
"91",22189,927.219999954104,"do","le",0,7,"^6_v5+_v4_^5+_v3_v1_v7-",4
"92",22189,2352.04500006512,"la","mi",0,7,"^6_v5+_v4_^5+_v3_v1_v7-",5
"93",22189,694.825000013225,"ti","do",0,7,"^6_v5+_v4_^5+_v3_v1_v7-",6
"94",22189,1105.01499997918,"la","te",0,7,"^6_v5+_v4_^5+_v3_v1_v7-",7
"95",22189,5405.69000004325,"re","fa",0,7,"^4_^5_^6_v5_v4_v3_v2",1
"96",22189,838.909999933094,"mi","sol",0,7,"^4_^5_^6_v5_v4_v3_v2",2
"97",22189,669.484999962151,"re","la",0,7,"^4_^5_^6_v5_v4_v3_v2",3
"98",22189,654.53499997966,"do","sol",0,7,"^4_^5_^6_v5_v4_v3_v2",4
"99",22189,1628.34000005387,"ti","fa",0,7,"^4_^5_^6_v5_v4_v3_v2",5
"100",22189,583.220000029542,"la","mi",0,7,"^4_^5_^6_v5_v4_v3_v2",6
"101",22189,1391.98499999475,"sol","re",0,7,"^4_^5_^6_v5_v4_v3_v2",7
"102",22189,1264.96999990195,"do","do",1,7,"^1_v7_v6_v5_v4_v3_v2",1
"103",22189,669.755000039004,"ti","ti",1,7,"^1_v7_v6_v5_v4_v3_v2",2
"104",22189,633.085000095889,"la","la",1,7,"^1_v7_v6_v5_v4_v3_v2",3
"105",22189,632.759999949485,"sol","sol",1,7,"^1_v7_v6_v5_v4_v3_v2",4
"106",22189,762.204999919049,"fa","fa",1,7,"^1_v7_v6_v5_v4_v3_v2",5
"107",22189,690.850000013597,"mi","mi",1,7,"^1_v7_v6_v5_v4_v3_v2",6
"108",22189,2366.8399999151,"re","re",1,7,"^1_v7_v6_v5_v4_v3_v2",7
"109",22189,4479.25500001293,"la","fa",0,7,"^4_v6-_v5-_^6-_^4_v2-_2-",1
"110",22189,976.165000000037,"re","le",0,7,"^4_v6-_v5-_^6-_^4_v2-_2-",2
"111",22189,796.400000108406,"mi","fi",0,7,"^4_v6-_v5-_^6-_^4_v2-_2-",3
"112",22189,1891.44500007387,"re","le",0,7,"^4_v6-_v5-_^6-_^4_v2-_2-",4
"113",22189,1048.56999998447,"la","fa",0,7,"^4_v6-_v5-_^6-_^4_v2-_2-",5
"114",22189,1479.50499993749,"fi","ra",0,7,"^4_v6-_v5-_^6-_^4_v2-_2-",6
"115",22189,517.735000001267,"fi","ra",0,7,"^4_v6-_v5-_^6-_^4_v2-_2-",7
"116",22189,1461.81000000797,"me","do",0,7,"1_^3_v1_^5_v3_v2_^3",1
"117",22189,1173.13500004821,"ti","mi",0,7,"1_^3_v1_^5_v3_v2_^3",2
"118",22189,765.654999995604,"le","do",0,7,"1_^3_v1_^5_v3_v2_^3",3
"119",22189,856.904999935068,"fi","sol",0,7,"1_^3_v1_^5_v3_v2_^3",4
"120",22189,667.765000020154,"le","mi",0,7,"1_^3_v1_^5_v3_v2_^3",5
"121",22189,2423.53999998886,"fi","re",0,7,"1_^3_v1_^5_v3_v2_^3",6
"122",22189,1701.20999997016,"te","mi",0,7,"1_^3_v1_^5_v3_v2_^3",7
"123",22189,10592.1700000763,"sol","sol",1,7,"^5_^6_v5_v4_v3_v2_v1",1
"124",22189,901.169999968261,"la","la",1,7,"^5_^6_v5_v4_v3_v2_v1",2
"125",22189,675.879999995232,"sol","sol",1,7,"^5_^6_v5_v4_v3_v2_v1",3
"126",22189,713.034999906085,"fa","fa",1,7,"^5_^6_v5_v4_v3_v2_v1",4
"127",22189,1033.70000002906,"re","mi",0,7,"^5_^6_v5_v4_v3_v2_v1",5
"128",22189,791.489999974146,"do","re",0,7,"^5_^6_v5_v4_v3_v2_v1",6
"129",22189,626.784999971278,"do","do",1,7,"^5_^6_v5_v4_v3_v2_v1",7
"130",22189,5036.6300001042,"te","do",0,7,"v1_^2_v1_v7_^1_^3_v2",1
"131",22189,1236.74000008032,"do","re",0,7,"v1_^2_v1_v7_^1_^3_v2",2
"132",22189,559.705000021495,"te","do",0,7,"v1_^2_v1_v7_^1_^3_v2",3
"133",22189,641.735000070184,"le","ti",0,7,"v1_^2_v1_v7_^1_^3_v2",4
"134",22189,933.184999972582,"fa","do",0,7,"v1_^2_v1_v7_^1_^3_v2",5
"135",22189,740.519999992102,"le","mi",0,7,"v1_^2_v1_v7_^1_^3_v2",6
"136",22189,1491.50999996345,"sol","re",0,7,"v1_^2_v1_v7_^1_^3_v2",7
"137",22189,4003.35999997333,"do","ti",0,9,"v7_v6_v5_^6_v5_v4_^5_^6_v5",1
"138",22189,2315.16500003636,"te","la",0,9,"v7_v6_v5_^6_v5_v4_^5_^6_v5",2
"139",22189,1522.62000006158,"do","sol",0,9,"v7_v6_v5_^6_v5_v4_^5_^6_v5",3
"140",22189,696.409999975003,"te","la",0,9,"v7_v6_v5_^6_v5_v4_^5_^6_v5",4
"141",22189,912.600000039674,"le","sol",0,9,"v7_v6_v5_^6_v5_v4_^5_^6_v5",5
"142",22189,1699.3149999762,"fi","fa",0,9,"v7_v6_v5_^6_v5_v4_^5_^6_v5",6
"143",22189,861.83000006713,"le","sol",0,9,"v7_v6_v5_^6_v5_v4_^5_^6_v5",7
"144",22189,1078.28500005417,"fi","la",0,9,"v7_v6_v5_^6_v5_v4_^5_^6_v5",8
"145",22189,769.854999962263,"fa","sol",0,9,"v7_v6_v5_^6_v5_v4_^5_^6_v5",9
"146",22189,2716.04500000831,"fa","mi",0,9,"^3_^4_v2_v7_^1_^2_^3_3_^4",1
"147",22189,772.035000030883,"sol","fa",0,9,"^3_^4_v2_v7_^1_^2_^3_3_^4",2
"148",22189,574.619999970309,"fa","re",0,9,"^3_^4_v2_v7_^1_^2_^3_3_^4",3
"149",22189,2051.46499990951,"re","ti",0,9,"^3_^4_v2_v7_^1_^2_^3_3_^4",4
"150",22189,1907.04499999993,"mi","do",0,9,"^3_^4_v2_v7_^1_^2_^3_3_^4",5
"151",22189,577.580000041053,"re","re",1,9,"^3_^4_v2_v7_^1_^2_^3_3_^4",6
"152",22189,661.730000050738,"do","mi",0,9,"^3_^4_v2_v7_^1_^2_^3_3_^4",7
"153",22189,551.74500006251,"re","mi",0,9,"^3_^4_v2_v7_^1_^2_^3_3_^4",8
"154",22189,790.299999993294,"mi","fa",0,9,"^3_^4_v2_v7_^1_^2_^3_3_^4",9
"155",22189,1363.43500006478,"do","sol",0,9,"v5_v4_v6+_^7_^3+_v3_v2_v5_^4",1
"156",22189,531.929999939166,"ti","fa",0,9,"v5_v4_v6+_^7_^3+_v3_v2_v5_^4",2
"157",22189,809.149999986403,"fi","te",0,9,"v5_v4_v6+_^7_^3+_v3_v2_v5_^4",3
"158",22189,1327.47000001837,"te","ti",0,9,"v5_v4_v6+_^7_^3+_v3_v2_v5_^4",4
"159",22189,746.805000002496,"le","3+",0,9,"v5_v4_v6+_^7_^3+_v3_v2_v5_^4",5
"160",22189,1071.01499999408,"me","mi",0,9,"v5_v4_v6+_^7_^3+_v3_v2_v5_^4",6
"161",22189,1306.37499992736,"sol","re",0,9,"v5_v4_v6+_^7_^3+_v3_v2_v5_^4",7
"162",22189,554.810000001453,"fi","sol",0,9,"v5_v4_v6+_^7_^3+_v3_v2_v5_^4",8
"163",22189,1213.23999995366,"re","fa",0,9,"v5_v4_v6+_^7_^3+_v3_v2_v5_^4",9
"164",22189,1651.25999995507,"re","re",1,9,"^2_^4_v3_v2_v1_v3_v2+_^3_^5+",1
"165",22189,814.110000035726,"te","fa",0,9,"^2_^4_v3_v2_v1_v3_v2+_^3_^5+",2
"166",22189,1083.23500002734,"la","mi",0,9,"^2_^4_v3_v2_v1_v3_v2+_^3_^5+",3
"167",22189,1700.52499999292,"sol","re",0,9,"^2_^4_v3_v2_v1_v3_v2+_^3_^5+",4
"168",22189,925.979999941774,"fa","do",0,9,"^2_^4_v3_v2_v1_v3_v2+_^3_^5+",5
"169",22189,675.285000004806,"le","mi",0,9,"^2_^4_v3_v2_v1_v3_v2+_^3_^5+",6
"170",22189,625.024999957532,"sol","me",0,9,"^2_^4_v3_v2_v1_v3_v2+_^3_^5+",7
"171",22189,648.010000004433,"mi","mi",1,9,"^2_^4_v3_v2_v1_v3_v2+_^3_^5+",8
"172",22189,857.390000019222,"re","le",0,9,"^2_^4_v3_v2_v1_v3_v2+_^3_^5+",9
"173",22189,2410.96999996807,"sol","sol",1,9,"^5_^6_v5_v4_v3_v2_v1_^2_^3",1
"174",22189,590.059999958612,"la","la",1,9,"^5_^6_v5_v4_v3_v2_v1_^2_^3",2
"175",22189,1040.76499992516,"sol","sol",1,9,"^5_^6_v5_v4_v3_v2_v1_^2_^3",3
"176",22189,740.434999926947,"fa","fa",1,9,"^5_^6_v5_v4_v3_v2_v1_^2_^3",4
"177",22189,741.049999953248,"mi","mi",1,9,"^5_^6_v5_v4_v3_v2_v1_^2_^3",5
"178",22189,848.35500002373,"re","re",1,9,"^5_^6_v5_v4_v3_v2_v1_^2_^3",6
"179",22189,1592.79499994591,"do","do",1,9,"^5_^6_v5_v4_v3_v2_v1_^2_^3",7
"180",22189,725.609999964945,"re","re",1,9,"^5_^6_v5_v4_v3_v2_v1_^2_^3",8
"181",22189,683.770000003278,"mi","mi",1,9,"^5_^6_v5_v4_v3_v2_v1_^2_^3",9
"182",22189,16950.130000012,"do","re",0,9,"^2_^3_^4_^5_^6_v5_v4_v3_v2",1
"183",22189,655.660000047646,"re","mi",0,9,"^2_^3_^4_^5_^6_v5_v4_v3_v2",2
"184",22189,510.540000046603,"me","fa",0,9,"^2_^3_^4_^5_^6_v5_v4_v3_v2",3
"185",22189,719.144999980927,"fa","sol",0,9,"^2_^3_^4_^5_^6_v5_v4_v3_v2",4
"186",22189,770.295000053011,"sol","la",0,9,"^2_^3_^4_^5_^6_v5_v4_v3_v2",5
"187",22189,740.699999965727,"fa","sol",0,9,"^2_^3_^4_^5_^6_v5_v4_v3_v2",6
"188",22189,733.224999974482,"me","fa",0,9,"^2_^3_^4_^5_^6_v5_v4_v3_v2",7
"189",22189,612.959999940358,"re","mi",0,9,"^2_^3_^4_^5_^6_v5_v4_v3_v2",8
"190",22189,1262.88000005297,"do","re",0,9,"^2_^3_^4_^5_^6_v5_v4_v3_v2",9
"191",22189,2581.14499994554,"fa","mi",0,9,"^3_^4_^5 _^6_v5_v4_v3_v2_v1",1
"192",22189,3253.81999998353,"sol","fa",0,9,"^3_^4_^5 _^6_v5_v4_v3_v2_v1",2
"193",22189,1005.34999999218,"fa","5 ",0,9,"^3_^4_^5 _^6_v5_v4_v3_v2_v1",3
"194",22189,1320.4600000754,"mi","la",0,9,"^3_^4_^5 _^6_v5_v4_v3_v2_v1",4
"195",22189,915.860000066459,"re","sol",0,9,"^3_^4_^5 _^6_v5_v4_v3_v2_v1",5
"196",22189,2889.36999998987,"do","fa",0,9,"^3_^4_^5 _^6_v5_v4_v3_v2_v1",6
"197",22189,1055.64499995671,"la","mi",0,9,"^3_^4_^5 _^6_v5_v4_v3_v2_v1",7
"198",22189,776.799999992363,"sol","re",0,9,"^3_^4_^5 _^6_v5_v4_v3_v2_v1",8
"199",22189,590.304999961518,"la","do",0,9,"^3_^4_^5 _^6_v5_v4_v3_v2_v1",9
"200",43104,5712.88500074297,"re","re",1,2,"^2_v7-",1
"201",43104,918.270000256598,"te","te",1,2,"^2_v7-",2
"202",43104,3165.26000015438,"sol","sol",1,2,"v5_v1+",1
"203",43104,7839.39999993891,"ra","ra",1,2,"v5_v1+",2
"204",43104,4238.02000004798,"ti","ti",1,2,"v7_v3",1
"205",43104,998.970000073314,"mi","mi",1,2,"v7_v3",2
"206",43104,1376.58499926329,"fa","fa",1,2,"v4_v3",1
"207",43104,334.459999576211,"mi","mi",1,2,"v4_v3",2
"208",43104,3678.07499971241,"mi","mi",1,2,"^3_v4+",1
"209",43104,574.829999357462,"fi","fi",1,2,"^3_v4+",2
"210",43104,1015.97500033677,"do","do",1,2,"^1_^2+",1
"211",43104,967.024999670684,"me","me",1,2,"^1_^2+",2
"212",43104,3311.7800001055,"me","mi",0,2,"3_^6",1
"213",43104,1886.95499952883,"la","la",1,2,"3_^6",2
"214",43104,2372.63499945402,"sol","sol",1,2,"^5_^1+",1
"215",43104,7734.43999979645,"do","ra",0,2,"^5_^1+",2
"216",43104,1729.63999956846,"mi","mi",1,2,"v3_v2",1
"217",43104,630.785000510514,"re","re",1,2,"v3_v2",2
"218",43104,1271.82499971241,"re","re",1,2,"v2_v1",1
"219",43104,565.840000286698,"do","do",1,2,"v2_v1",2
"220",43104,1856.22000042349,"sol","sol",1,3,"v5_v4_v3",1
"221",43104,582.755000330508,"fa","fa",1,3,"v5_v4_v3",2
"222",43104,1134.99499950558,"mi","mi",1,3,"v5_v4_v3",3
"223",43104,754.025000147521,"do","do",1,3,"v1_v7-_^7",1
"224",43104,542.999999597669,"te","te",1,3,"v1_v7-_^7",2
"225",43104,287.045000120997,"ti","ti",1,3,"v1_v7-_^7",3
"226",43104,1158.01999997348,"do","do",1,3,"v1_v7-_7-",1
"227",43104,662.995000369847,"te","te",1,3,"v1_v7-_7-",2
"228",43104,423.174999654293,"te","te",1,3,"v1_v7-_7-",3
"229",43104,958.265000022948,"do","do",1,3,"1_v1+_^2",1
"230",43104,390.94499964267,"ra","ra",1,3,"1_v1+_^2",2
"231",43104,479.209999553859,"re","re",1,3,"1_v1+_^2",3
"232",43104,2112.46500071138,"la","la",1,3,"6_^1_v5",1
"233",43104,670.904999598861,"do","do",1,3,"6_^1_v5",2
"234",43104,1031.05000033975,"sol","sol",1,3,"6_^1_v5",3
"235",43104,1048.30499924719,"do","do",1,3,"^1_v6_v5+",1
"236",43104,878.825000487268,"la","la",1,3,"^1_v6_v5+",2
"237",43104,342.69000031054,"le","le",1,3,"^1_v6_v5+",3
"238",43104,1432.06999916583,"mi","mi",1,3,"v3_v2_v1",1
"239",43104,526.829999871552,"re","re",1,3,"v3_v2_v1",2
"240",43104,494.934999383986,"do","do",1,3,"v3_v2_v1",3
"241",43104,1832.03999977559,"fa","fa",1,3,"v4_v3_v2",1
"242",43104,623.010000213981,"mi","mi",1,3,"v4_v3_v2",2
"243",43104,566.894999705255,"re","re",1,3,"v4_v3_v2",3
"244",43104,1713.50499987602,"re","re",1,3,"v2_v5_^3",1
"245",43104,1086.75500005484,"sol","sol",1,3,"v2_v5_^3",2
"246",43104,758.909999392927,"mi","mi",1,3,"v2_v5_^3",3
"247",43104,1560.06999965757,"la","la",1,5,"^6_v5_v4_v3_v2",1
"248",43104,470.729999244213,"sol","sol",1,5,"^6_v5_v4_v3_v2",2
"249",43104,630.939999595284,"fa","fa",1,5,"^6_v5_v4_v3_v2",3
"250",43104,1079.09500040114,"mi","mi",1,5,"^6_v5_v4_v3_v2",4
"251",43104,502.489999867976,"re","re",1,5,"^6_v5_v4_v3_v2",5
"252",43104,1938.80999926478,"fi","fi",1,5,"v5-_v3_3_^4+_v3",1
"253",43104,951.054999604821,"mi","mi",1,5,"v5-_v3_3_^4+_v3",2
"254",43104,455.064999870956,"mi","mi",1,5,"v5-_v3_3_^4+_v3",3
"255",43104,591.105000115931,"fi","fi",1,5,"v5-_v3_3_^4+_v3",4
"256",43104,462.975000031292,"mi","mi",1,5,"v5-_v3_3_^4+_v3",5
"257",43104,1392.76500046253,"la","la",1,5,"^6_v4_v3_^4_^5",1
"258",43104,1006.83999992907,"fa","fa",1,5,"^6_v4_v3_^4_^5",2
"259",43104,606.864999979734,"mi","mi",1,5,"^6_v4_v3_^4_^5",3
"260",43104,399.469999596477,"fa","fa",1,5,"^6_v4_v3_^4_^5",4
"261",43104,526.689999736845,"sol","sol",1,5,"^6_v4_v3_^4_^5",5
"262",43104,1592.16499980539,"re","re",1,5,"v2_2_^3_^4_v2",1
"263",43104,494.974999688566,"re","re",1,5,"v2_2_^3_^4_v2",2
"264",43104,815.065000206232,"mi","mi",1,5,"v2_2_^3_^4_v2",3
"265",43104,463.105000555515,"fa","fa",1,5,"v2_2_^3_^4_v2",4
"266",43104,614.819999784231,"re","re",1,5,"v2_2_^3_^4_v2",5
"267",43104,1589.78000003844,"sol","sol",1,5,"v5_^6+_^7_^1_5",1
"268",43104,574.420000426471,"la","te",0,5,"v5_^6+_^7_^1_5",2
"269",43104,743.07500012219,"ti","ti",1,5,"v5_^6+_^7_^1_5",3
"270",43104,447.064999490976,"do","do",1,5,"v5_^6+_^7_^1_5",4
"271",43104,670.664999634027,"sol","sol",1,5,"v5_^6+_^7_^1_5",5
"272",43104,1312.40000016987,"sol","sol",1,5,"v5_v4_v3_v2_v1",1
"273",43104,478.674999438226,"fa","fa",1,5,"v5_v4_v3_v2_v1",2
"274",43104,487.075000070035,"me","mi",0,5,"v5_v4_v3_v2_v1",3
"275",43104,1807.1650005877,"re","re",1,5,"v5_v4_v3_v2_v1",4
"276",43104,495.009999722242,"do","do",1,5,"v5_v4_v3_v2_v1",5
"277",43104,1219.90500018001,"sol","sol",1,5,"v5_v4_v3_v2_v1 ",1
"278",43104,887.079999782145,"fa","fa",1,5,"v5_v4_v3_v2_v1 ",2
"279",43104,447.344999760389,"mi","mi",1,5,"v5_v4_v3_v2_v1 ",3
"280",43104,678.740000352263,"re","re",1,5,"v5_v4_v3_v2_v1 ",4
"281",43104,767.505000345409,"do","1 ",0,5,"v5_v4_v3_v2_v1 ",5
"282",43104,1460.49000043422,"sol","sol",1,5,"^5_^6_v5_v4_v3",1
"283",43104,686.819999478757,"la","la",1,5,"^5_^6_v5_v4_v3",2
"284",43104,502.980000339448,"sol","sol",1,5,"^5_^6_v5_v4_v3",3
"285",43104,591.175000183284,"fa","fa",1,5,"^5_^6_v5_v4_v3",4
"286",43104,383.100000210106,"mi","mi",1,5,"^5_^6_v5_v4_v3",5
"287",43104,1684.10000018775,"la","la",1,7,"^6_v5+_v4_^5+_v3_v1_v7-",1
"288",43104,1862.89000045508,"fa","le",0,7,"^6_v5+_v4_^5+_v3_v1_v7-",2
"289",43104,703.014999628067,"mi","fa",0,7,"^6_v5+_v4_^5+_v3_v1_v7-",3
"290",43104,2551.10999941826,"fi","le",0,7,"^6_v5+_v4_^5+_v3_v1_v7-",4
"291",43104,1359.36500038952,"mi","mi",1,7,"^6_v5+_v4_^5+_v3_v1_v7-",5
"292",43104,1372.39999976009,"do","do",1,7,"^6_v5+_v4_^5+_v3_v1_v7-",6
"293",43104,2447.1950000152,"te","te",1,7,"^6_v5+_v4_^5+_v3_v1_v7-",7
"294",43104,1798.11500012875,"do","do",1,7,"v1_^2_v1_v7_^1_^3_v2",1
"295",43104,663.145000115037,"re","re",1,7,"v1_^2_v1_v7_^1_^3_v2",2
"296",43104,519.074999727309,"do","do",1,7,"v1_^2_v1_v7_^1_^3_v2",3
"297",43104,1094.98499985784,"ti","ti",1,7,"v1_^2_v1_v7_^1_^3_v2",4
"298",43104,1094.96499970555,"do","do",1,7,"v1_^2_v1_v7_^1_^3_v2",5
"299",43104,1327.23000086844,"mi","mi",1,7,"v1_^2_v1_v7_^1_^3_v2",6
"300",43104,646.954999305308,"re","re",1,7,"v1_^2_v1_v7_^1_^3_v2",7
"301",43104,1386.50499936193,"fa","fa",1,7,"^4_^5_^6_v5_v4_v3_v2",1
"302",43104,598.939999938011,"sol","sol",1,7,"^4_^5_^6_v5_v4_v3_v2",2
"303",43104,646.339999511838,"la","la",1,7,"^4_^5_^6_v5_v4_v3_v2",3
"304",43104,527.025000192225,"sol","sol",1,7,"^4_^5_^6_v5_v4_v3_v2",4
"305",43104,623.234999366105,"fa","fa",1,7,"^4_^5_^6_v5_v4_v3_v2",5
"306",43104,750.99499989301,"mi","mi",1,7,"^4_^5_^6_v5_v4_v3_v2",6
"307",43104,550.830000080168,"re","re",1,7,"^4_^5_^6_v5_v4_v3_v2",7
"308",43104,4624.07999951392,"fa","fa",1,7,"^4_v6-_v5-_^6-_^4_v2-_2-",1
"309",43104,6854.67500053346,"le","le",1,7,"^4_v6-_v5-_^6-_^4_v2-_2-",2
"310",43104,1053.99500019848,"fi","fi",1,7,"^4_v6-_v5-_^6-_^4_v2-_2-",3
"311",43104,903.005000203848,"le","le",1,7,"^4_v6-_v5-_^6-_^4_v2-_2-",4
"312",43104,2245.88500056416,"fa","fa",1,7,"^4_v6-_v5-_^6-_^4_v2-_2-",5
"313",43104,3350.36499984562,"ra","ra",1,7,"^4_v6-_v5-_^6-_^4_v2-_2-",6
"314",43104,455.114999786019,"ra","ra",1,7,"^4_v6-_v5-_^6-_^4_v2-_2-",7
"315",43104,1248.29499982297,"sol","sol",1,7,"^5_^6_v5_v4_v3_v2_v1",1
"316",43104,583.034999668598,"la","la",1,7,"^5_^6_v5_v4_v3_v2_v1",2
"317",43104,575.015000067651,"sol","sol",1,7,"^5_^6_v5_v4_v3_v2_v1",3
"318",43104,559.155000373721,"fa","fa",1,7,"^5_^6_v5_v4_v3_v2_v1",4
"319",43104,591.025000438094,"mi","mi",1,7,"^5_^6_v5_v4_v3_v2_v1",5
"320",43104,486.899999901652,"re","re",1,7,"^5_^6_v5_v4_v3_v2_v1",6
"321",43104,751.07999984175,"do","do",1,7,"^5_^6_v5_v4_v3_v2_v1",7
"322",43104,1112.79499996454,"do","do",1,7,"1_^3_v1_^5_v3_v2_^3",1
"323",43104,1559.09499991685,"mi","mi",1,7,"1_^3_v1_^5_v3_v2_^3",2
"324",43104,615.135000087321,"do","do",1,7,"1_^3_v1_^5_v3_v2_^3",3
"325",43104,1007.11499992758,"sol","sol",1,7,"1_^3_v1_^5_v3_v2_^3",4
"326",43104,1599.19499978423,"mi","mi",1,7,"1_^3_v1_^5_v3_v2_^3",5
"327",43104,502.925000153482,"re","re",1,7,"1_^3_v1_^5_v3_v2_^3",6
"328",43104,455.044999718666,"mi","mi",1,7,"1_^3_v1_^5_v3_v2_^3",7
"329",43104,1401.2050004676,"do","do",1,7,"^1_v7_v6_v5_v4_v3_v2",1
"330",43104,766.93999953568,"ti","ti",1,7,"^1_v7_v6_v5_v4_v3_v2",2
"331",43104,1303.07999998331,"la","la",1,7,"^1_v7_v6_v5_v4_v3_v2",3
"332",43104,574.874999932945,"sol","sol",1,7,"^1_v7_v6_v5_v4_v3_v2",4
"333",43104,638.985000550747,"fa","fa",1,7,"^1_v7_v6_v5_v4_v3_v2",5
"334",43104,559.025000780821,"mi","mi",1,7,"^1_v7_v6_v5_v4_v3_v2",6
"335",43104,1183.00500046462,"re","re",1,7,"^1_v7_v6_v5_v4_v3_v2",7
"336",43104,1412.28500008583,"sol","sol",1,9,"v5_v4_v6+_^7_^3+_v3_v2_v5_^4",1
"337",43104,478.885000571609,"fa","fa",1,9,"v5_v4_v6+_^7_^3+_v3_v2_v5_^4",2
"338",43104,1071.15999981761,"la","te",0,9,"v5_v4_v6+_^7_^3+_v3_v2_v5_^4",3
"339",43104,822.885000146925,"ti","ti",1,9,"v5_v4_v6+_^7_^3+_v3_v2_v5_^4",4
"340",43104,2134.89499967545,"mi","3+",0,9,"v5_v4_v6+_^7_^3+_v3_v2_v5_^4",5
"341",43104,743.095000274479,"re","mi",0,9,"v5_v4_v6+_^7_^3+_v3_v2_v5_^4",6
"342",43104,2223.26499968767,"sol","re",0,9,"v5_v4_v6+_^7_^3+_v3_v2_v5_^4",7
"343",43104,1430.8449998498,"fa","sol",0,9,"v5_v4_v6+_^7_^3+_v3_v2_v5_^4",8
"344",43104,1311.14500015974,"re","fa",0,9,"v5_v4_v6+_^7_^3+_v3_v2_v5_^4",9
"345",43104,1826.13500021398,"mi","mi",1,9,"^3_^4_^5 _^6_v5_v4_v3_v2_v1",1
"346",43104,510.815000161529,"fa","fa",1,9,"^3_^4_^5 _^6_v5_v4_v3_v2_v1",2
"347",43104,647.150000557303,"sol","5 ",0,9,"^3_^4_^5 _^6_v5_v4_v3_v2_v1",3
"348",43104,471.005000174046,"la","la",1,9,"^3_^4_^5 _^6_v5_v4_v3_v2_v1",4
"349",43104,519.094999879599,"sol","sol",1,9,"^3_^4_^5 _^6_v5_v4_v3_v2_v1",5
"350",43104,543.000000528991,"fa","fa",1,9,"^3_^4_^5 _^6_v5_v4_v3_v2_v1",6
"351",43104,463.034999556839,"mi","mi",1,9,"^3_^4_^5 _^6_v5_v4_v3_v2_v1",7
"352",43104,678.919999860227,"re","re",1,9,"^3_^4_^5 _^6_v5_v4_v3_v2_v1",8
"353",43104,615.114999935031,"do","do",1,9,"^3_^4_^5 _^6_v5_v4_v3_v2_v1",9
"354",43104,2201.9499996677,"mi","mi",1,9,"^3_^4_v2_v7_^1_^2_^3_3_^4",1
"355",43104,556.734999641776,"fa","fa",1,9,"^3_^4_v2_v7_^1_^2_^3_3_^4",2
"356",43104,1302.99500003457,"re","re",1,9,"^3_^4_v2_v7_^1_^2_^3_3_^4",3
"357",43104,799.180000089109,"ti","ti",1,9,"^3_^4_v2_v7_^1_^2_^3_3_^4",4
"358",43104,942.514999769628,"do","do",1,9,"^3_^4_v2_v7_^1_^2_^3_3_^4",5
"359",43104,687.01499979943,"re","re",1,9,"^3_^4_v2_v7_^1_^2_^3_3_^4",6
"360",43104,542.255000211298,"mi","mi",1,9,"^3_^4_v2_v7_^1_^2_^3_3_^4",7
"361",43104,439.180000685155,"mi","mi",1,9,"^3_^4_v2_v7_^1_^2_^3_3_^4",8
"362",43104,479.035000316799,"fa","fa",1,9,"^3_^4_v2_v7_^1_^2_^3_3_^4",9
"363",43104,2188.28999996185,"mi","re",0,9,"^2_^4_v3_v2_v1_v3_v2+_^3_^5+",1
"364",43104,398.954999633133,"fa","fa",1,9,"^2_^4_v3_v2_v1_v3_v2+_^3_^5+",2
"365",43104,1079.15499992669,"re","mi",0,9,"^2_^4_v3_v2_v1_v3_v2+_^3_^5+",3
"366",43104,1583.1649992615,"ti","re",0,9,"^2_^4_v3_v2_v1_v3_v2+_^3_^5+",4
"367",43104,638.829999603331,"do","do",1,9,"^2_^4_v3_v2_v1_v3_v2+_^3_^5+",5
"368",43104,2046.65500018746,"mi","mi",1,9,"^2_^4_v3_v2_v1_v3_v2+_^3_^5+",6
"369",43104,2695.12999989092,"re","me",0,9,"^2_^4_v3_v2_v1_v3_v2+_^3_^5+",7
"370",43104,3819.58500016481,"mi","mi",1,9,"^2_^4_v3_v2_v1_v3_v2+_^3_^5+",8
"371",43104,639.144999906421,"fi","le",0,9,"^2_^4_v3_v2_v1_v3_v2+_^3_^5+",9
"372",43104,1482.54500050098,"re","re",1,9,"^2_^3_^4_^5_^6_v5_v4_v3_v2",1
"373",43104,646.95500023663,"mi","mi",1,9,"^2_^3_^4_^5_^6_v5_v4_v3_v2",2
"374",43104,463.059999980032,"fa","fa",1,9,"^2_^3_^4_^5_^6_v5_v4_v3_v2",3
"375",43104,615.004999563098,"sol","sol",1,9,"^2_^3_^4_^5_^6_v5_v4_v3_v2",4
"376",43104,735.085000284016,"la","la",1,9,"^2_^3_^4_^5_^6_v5_v4_v3_v2",5
"377",43104,686.940000392497,"sol","sol",1,9,"^2_^3_^4_^5_^6_v5_v4_v3_v2",6
"378",43104,551.075000315905,"fa","fa",1,9,"^2_^3_^4_^5_^6_v5_v4_v3_v2",7
"379",43104,462.939999997616,"mi","mi",1,9,"^2_^3_^4_^5_^6_v5_v4_v3_v2",8
"380",43104,470.900000073016,"re","re",1,9,"^2_^3_^4_^5_^6_v5_v4_v3_v2",9
"381",43104,1384.02500003576,"ti","ti",1,9,"v7_v6_v5_^6_v5_v4_^5_^6_v5",1
"382",43104,542.995000258088,"la","la",1,9,"v7_v6_v5_^6_v5_v4_^5_^6_v5",2
"383",43104,478.254999965429,"sol","sol",1,9,"v7_v6_v5_^6_v5_v4_^5_^6_v5",3
"384",43104,575.060000643134,"la","la",1,9,"v7_v6_v5_^6_v5_v4_^5_^6_v5",4
"385",43104,471.060000360012,"sol","sol",1,9,"v7_v6_v5_^6_v5_v4_^5_^6_v5",5
"386",43104,567.374999634922,"fa","fa",1,9,"v7_v6_v5_^6_v5_v4_^5_^6_v5",6
"387",43104,614.225000143051,"mi","sol",0,9,"v7_v6_v5_^6_v5_v4_^5_^6_v5",7
"388",43104,639.024999924004,"fa","la",0,9,"v7_v6_v5_^6_v5_v4_^5_^6_v5",8
"389",43104,471.080000512302,"sol","sol",1,9,"v7_v6_v5_^6_v5_v4_^5_^6_v5",9
"390",43104,1297.70499933511,"sol","sol",1,9,"^5_^6_v5_v4_v3_v2_v1_^2_^3",1
"391",43104,543.189999647439,"la","la",1,9,"^5_^6_v5_v4_v3_v2_v1_^2_^3",2
"392",43104,566.964999772608,"sol","sol",1,9,"^5_^6_v5_v4_v3_v2_v1_^2_^3",3
"393",43104,470.844999887049,"fa","fa",1,9,"^5_^6_v5_v4_v3_v2_v1_^2_^3",4
"394",43104,1351.51000041515,"mi","mi",1,9,"^5_^6_v5_v4_v3_v2_v1_^2_^3",5
"395",43104,526.335000060499,"re","re",1,9,"^5_^6_v5_v4_v3_v2_v1_^2_^3",6
"396",43104,575.059999711812,"do","do",1,9,"^5_^6_v5_v4_v3_v2_v1_^2_^3",7
"397",43104,487.255000509322,"re","re",1,9,"^5_^6_v5_v4_v3_v2_v1_^2_^3",8
"398",43104,495.110000483692,"mi","mi",1,9,"^5_^6_v5_v4_v3_v2_v1_^2_^3",9
"399",4559,1525.08499997202,"do","do",1,2,"^1_^2+",1
"400",4559,1505.28500007931,"me","me",1,2,"^1_^2+",2
"401",4559,1293.95500000101,"re","re",1,2,"^2_v7-",1
"402",4559,1066.51500007138,"te","te",1,2,"^2_v7-",2
"403",4559,967.049999977462,"re","re",1,2,"v2_v1",1
"404",4559,864.844999974594,"do","do",1,2,"v2_v1",2
"405",4559,1218.5649999883,"mi","mi",1,2,"^3_v4+",1
"406",4559,673.640000051819,"fi","fi",1,2,"^3_v4+",2
"407",4559,1165.29999999329,"fa","fa",1,2,"v4_v3",1
"408",4559,426.184999989346,"mi","mi",1,2,"v4_v3",2
"409",4559,1169.24000007566,"sol","sol",1,2,"v5_v1+",1
"410",4559,628.625000012107,"ra","ra",1,2,"v5_v1+",2
"411",4559,996.820000000298,"mi","mi",1,2,"v3_v2",1
"412",4559,482.480000006035,"re","re",1,2,"v3_v2",2
"413",4559,938.090000068769,"mi","mi",1,2,"3_^6",1
"414",4559,988.664999953471,"la","la",1,2,"3_^6",2
"415",4559,998.660000041127,"sol","sol",1,2,"^5_^1+",1
"416",4559,718.394999974407,"ra","ra",1,2,"^5_^1+",2
"417",4559,792.589999968186,"ti","ti",1,2,"v7_v3",1
"418",4559,840.94499994535,"mi","mi",1,2,"v7_v3",2
"419",4559,1039.77500007022,"fa","fa",1,3,"v4_v3_v2",1
"420",4559,470.865000039339,"mi","mi",1,3,"v4_v3_v2",2
"421",4559,730.054999934509,"re","re",1,3,"v4_v3_v2",3
"422",4559,757.734999991953,"do","do",1,3,"v1_v7-_^7",1
"423",4559,504.935000091791,"te","te",1,3,"v1_v7-_^7",2
"424",4559,369.485000032,"ti","ti",1,3,"v1_v7-_^7",3
"425",4559,770.985000068322,"do","do",1,3,"^1_v6_v5+",1
"426",4559,776.190000004135,"la","la",1,3,"^1_v6_v5+",2
"427",4559,435.949999955483,"le","le",1,3,"^1_v6_v5+",3
"428",4559,1282.44999994058,"la","la",1,3,"6_^1_v5",1
"429",4559,808.365000062622,"do","do",1,3,"6_^1_v5",2
"430",4559,831.450000056066,"sol","sol",1,3,"6_^1_v5",3
"431",4559,1045.69499997888,"sol","sol",1,3,"v5_v4_v3",1
"432",4559,540.55499995593,"fa","fa",1,3,"v5_v4_v3",2
"433",4559,357.135000056587,"mi","mi",1,3,"v5_v4_v3",3
"434",4559,527.590000070632,"do","do",1,3,"1_v1+_^2",1
"435",4559,1011.18999999017,"re","ra",0,3,"1_v1+_^2",2
"436",4559,2563.33999999333,"re","re",1,3,"1_v1+_^2",3
"437",4559,1397.23000000231,"mi","mi",1,3,"v3_v2_v1",1
"438",4559,875.239999964833,"re","re",1,3,"v3_v2_v1",2
"439",4559,629.164999932982,"do","do",1,3,"v3_v2_v1",3
"440",4559,1302.51999991015,"do","do",1,3,"v1_v7-_7-",1
"441",4559,640.064999926835,"te","te",1,3,"v1_v7-_7-",2
"442",4559,302.374999970198,"te","te",1,3,"v1_v7-_7-",3
"443",4559,1035.55000002962,"re","re",1,3,"v2_v5_^3",1
"444",4559,1056.42000003718,"sol","sol",1,3,"v2_v5_^3",2
"445",4559,662.144999951124,"mi","mi",1,3,"v2_v5_^3",3
"446",4559,1042.3750000773,"sol","sol",1,5,"v5_^6+_^7_^1_5",1
"447",4559,584.140000049956,"la","te",0,5,"v5_^6+_^7_^1_5",2
"448",4559,594.859999953769,"ti","ti",1,5,"v5_^6+_^7_^1_5",3
"449",4559,472.964999964461,"do","do",1,5,"v5_^6+_^7_^1_5",4
"450",4559,807.144999969751,"sol","sol",1,5,"v5_^6+_^7_^1_5",5
"451",4559,1494.2850000225,"fi","fi",1,5,"v5-_v3_3_^4+_v3",1
"452",4559,471.55500005465,"mi","mi",1,5,"v5-_v3_3_^4+_v3",2
"453",4559,201.079999911599,"mi","mi",1,5,"v5-_v3_3_^4+_v3",3
"454",4559,887.970000039786,"fi","fi",1,5,"v5-_v3_3_^4+_v3",4
"455",4559,582.480000099167,"mi","mi",1,5,"v5-_v3_3_^4+_v3",5
"456",4559,1069.85500000883,"sol","sol",1,5,"^5_^6_v5_v4_v3",1
"457",4559,752.345000044443,"la","la",1,5,"^5_^6_v5_v4_v3",2
"458",4559,505.030000000261,"sol","sol",1,5,"^5_^6_v5_v4_v3",3
"459",4559,504.904999979772,"fa","fa",1,5,"^5_^6_v5_v4_v3",4
"460",4559,437.740000081249,"mi","mi",1,5,"^5_^6_v5_v4_v3",5
"461",4559,1050.84499996156,"sol","sol",1,5,"v5_v4_v3_v2_v1",1
"462",4559,504.914999939501,"fa","fa",1,5,"v5_v4_v3_v2_v1",2
"463",4559,527.780000003986,"mi","mi",1,5,"v5_v4_v3_v2_v1",3
"464",4559,1125.06999995094,"re","re",1,5,"v5_v4_v3_v2_v1",4
"465",4559,627.500000060536,"do","do",1,5,"v5_v4_v3_v2_v1",5
"466",4559,890.100000076927,"re","re",1,5,"v2_2_^3_^4_v2",1
"467",4559,302.585000055842,"re","re",1,5,"v2_2_^3_^4_v2",2
"468",4559,617.654999950901,"mi","mi",1,5,"v2_2_^3_^4_v2",3
"469",4559,572.200000053272,"fa","fa",1,5,"v2_2_^3_^4_v2",4
"470",4559,1011.5700000897,"re","re",1,5,"v2_2_^3_^4_v2",5
"471",4559,1338.38500001002,"la","la",1,5,"^6_v4_v3_^4_^5",1
"472",4559,1292.40999999456,"fa","fa",1,5,"^6_v4_v3_^4_^5",2
"473",4559,640.030000009574,"mi","mi",1,5,"^6_v4_v3_^4_^5",3
"474",4559,448.689999990165,"fa","fa",1,5,"^6_v4_v3_^4_^5",4
"475",4559,549.759999965318,"sol","sol",1,5,"^6_v4_v3_^4_^5",5
"476",4559,1368.26500005554,"sol","sol",1,5,"v5_v4_v3_v2_v1 ",1
"477",4559,863.610000000335,"fa","fa",1,5,"v5_v4_v3_v2_v1 ",2
"478",4559,447.825000039302,"mi","mi",1,5,"v5_v4_v3_v2_v1 ",3
"479",4559,527.484999969602,"re","re",1,5,"v5_v4_v3_v2_v1 ",4
"480",4559,786.699999938719,"do","1 ",0,5,"v5_v4_v3_v2_v1 ",5
"481",4559,966.634999960661,"la","la",1,5,"^6_v5_v4_v3_v2",1
"482",4559,730.23500002455,"sol","sol",1,5,"^6_v5_v4_v3_v2",2
"483",4559,572.299999999814,"fa","fa",1,5,"^6_v5_v4_v3_v2",3
"484",4559,527.790000080131,"mi","mi",1,5,"^6_v5_v4_v3_v2",4
"485",4559,527.560000075027,"re","re",1,5,"^6_v5_v4_v3_v2",5
"486",4559,903.060000040568,"sol","sol",1,7,"^5_^6_v5_v4_v3_v2_v1",1
"487",4559,672.414999920875,"la","la",1,7,"^5_^6_v5_v4_v3_v2_v1",2
"488",4559,707.915000035428,"sol","sol",1,7,"^5_^6_v5_v4_v3_v2_v1",3
"489",4559,572.624999913387,"fa","fa",1,7,"^5_^6_v5_v4_v3_v2_v1",4
"490",4559,448.500000056811,"mi","mi",1,7,"^5_^6_v5_v4_v3_v2_v1",5
"491",4559,527.559999958612,"re","re",1,7,"^5_^6_v5_v4_v3_v2_v1",6
"492",4559,673.83499990683,"do","do",1,7,"^5_^6_v5_v4_v3_v2_v1",7
"493",4559,883.694999967702,"fa","fa",1,7,"^4_^5_^6_v5_v4_v3_v2",1
"494",4559,595.229999977164,"sol","sol",1,7,"^4_^5_^6_v5_v4_v3_v2",2
"495",4559,775.979999918491,"la","la",1,7,"^4_^5_^6_v5_v4_v3_v2",3
"496",4559,728.899999987334,"sol","sol",1,7,"^4_^5_^6_v5_v4_v3_v2",4
"497",4559,808.539999998175,"fa","fa",1,7,"^4_^5_^6_v5_v4_v3_v2",5
"498",4559,482.649999903515,"mi","mi",1,7,"^4_^5_^6_v5_v4_v3_v2",6
"499",4559,730.04499997478,"re","re",1,7,"^4_^5_^6_v5_v4_v3_v2",7
"500",4559,3775.67499992438,"la","la",1,7,"^6_v5+_v4_^5+_v3_v1_v7-",1
"501",4559,1753.84000001941,"le","le",1,7,"^6_v5+_v4_^5+_v3_v1_v7-",2
"502",4559,1719.8549999157,"fa","fa",1,7,"^6_v5+_v4_^5+_v3_v1_v7-",3
"503",4559,2451.24499988742,"le","le",1,7,"^6_v5+_v4_^5+_v3_v1_v7-",4
"504",4559,1348.46500004642,"fa","mi",0,7,"^6_v5+_v4_^5+_v3_v1_v7-",5
"505",4559,471.474999911152,"mi","do",0,7,"^6_v5+_v4_^5+_v3_v1_v7-",6
"506",4559,786.069999914616,"te","te",1,7,"^6_v5+_v4_^5+_v3_v1_v7-",7
"507",4559,1067.80499999877,"do","do",1,7,"v1_^2_v1_v7_^1_^3_v2",1
"508",4559,902.170000015758,"ti","re",0,7,"v1_^2_v1_v7_^1_^3_v2",2
"509",4559,1602.93000005186,"do","do",1,7,"v1_^2_v1_v7_^1_^3_v2",3
"510",4559,595.35999991931,"re","ti",0,7,"v1_^2_v1_v7_^1_^3_v2",4
"511",4559,707.599999965169,"do","do",1,7,"v1_^2_v1_v7_^1_^3_v2",5
"512",4559,932.159999967553,"mi","mi",1,7,"v1_^2_v1_v7_^1_^3_v2",6
"513",4559,493.725000065751,"re","re",1,7,"v1_^2_v1_v7_^1_^3_v2",7
"514",4559,986.900000018068,"do","do",1,7,"^1_v7_v6_v5_v4_v3_v2",1
"515",4559,460.675000096671,"ti","ti",1,7,"^1_v7_v6_v5_v4_v3_v2",2
"516",4559,516.660000081174,"la","la",1,7,"^1_v7_v6_v5_v4_v3_v2",3
"517",4559,683.720000088215,"sol","sol",1,7,"^1_v7_v6_v5_v4_v3_v2",4
"518",4559,1066.53000006918,"fa","fa",1,7,"^1_v7_v6_v5_v4_v3_v2",5
"519",4559,595.165000064299,"mi","mi",1,7,"^1_v7_v6_v5_v4_v3_v2",6
"520",4559,606.230000033975,"re","re",1,7,"^1_v7_v6_v5_v4_v3_v2",7
"521",4559,1661.59999999218,"do","do",1,7,"1_^3_v1_^5_v3_v2_^3",1
"522",4559,752.545000053942,"mi","mi",1,7,"1_^3_v1_^5_v3_v2_^3",2
"523",4559,853.980000014417,"do","do",1,7,"1_^3_v1_^5_v3_v2_^3",3
"524",4559,1258.99000000209,"sol","sol",1,7,"1_^3_v1_^5_v3_v2_^3",4
"525",4559,966.295000049286,"mi","mi",1,7,"1_^3_v1_^5_v3_v2_^3",5
"526",4559,482.604999910109,"re","re",1,7,"1_^3_v1_^5_v3_v2_^3",6
"527",4559,696.209999965504,"mi","mi",1,7,"1_^3_v1_^5_v3_v2_^3",7
"528",4559,5603.14000002109,"fa","fa",1,7,"^4_v6-_v5-_^6-_^4_v2-_2-",1
"529",4559,1258.64000001457,"le","le",1,7,"^4_v6-_v5-_^6-_^4_v2-_2-",2
"530",4559,561.320000095293,"sol","fi",0,7,"^4_v6-_v5-_^6-_^4_v2-_2-",3
"531",4559,448.730000061914,"le","le",1,7,"^4_v6-_v5-_^6-_^4_v2-_2-",4
"532",4559,3508.82999994792,"fa","fa",1,7,"^4_v6-_v5-_^6-_^4_v2-_2-",5
"533",4559,1078.7400000263,"do","ra",0,7,"^4_v6-_v5-_^6-_^4_v2-_2-",6
"534",4559,212.640000041574,"do","ra",0,7,"^4_v6-_v5-_^6-_^4_v2-_2-",7
"535",4559,1356.73999995925,"sol","sol",1,9,"^5_^6_v5_v4_v3_v2_v1_^2_^3",1
"536",4559,761.83500001207,"la","la",1,9,"^5_^6_v5_v4_v3_v2_v1_^2_^3",2
"537",4559,605.630000005476,"sol","sol",1,9,"^5_^6_v5_v4_v3_v2_v1_^2_^3",3
"538",4559,628.370000049472,"fa","fa",1,9,"^5_^6_v5_v4_v3_v2_v1_^2_^3",4
"539",4559,674.054999952205,"mi","mi",1,9,"^5_^6_v5_v4_v3_v2_v1_^2_^3",5
"540",4559,876.329999999143,"re","re",1,9,"^5_^6_v5_v4_v3_v2_v1_^2_^3",6
"541",4559,583.650000044145,"do","do",1,9,"^5_^6_v5_v4_v3_v2_v1_^2_^3",7
"542",4559,707.724999985658,"re","re",1,9,"^5_^6_v5_v4_v3_v2_v1_^2_^3",8
"543",4559,617.450000019744,"mi","mi",1,9,"^5_^6_v5_v4_v3_v2_v1_^2_^3",9
"544",4559,1479.2900000466,"re","re",1,9,"^2_^4_v3_v2_v1_v3_v2+_^3_^5+",1
"545",4559,977.064999984577,"fa","fa",1,9,"^2_^4_v3_v2_v1_v3_v2+_^3_^5+",2
"546",4559,786.495000007562,"mi","mi",1,9,"^2_^4_v3_v2_v1_v3_v2+_^3_^5+",3
"547",4559,1032.850000076,"do","re",0,9,"^2_^4_v3_v2_v1_v3_v2+_^3_^5+",4
"548",4559,1967.8600000916,"re","do",0,9,"^2_^4_v3_v2_v1_v3_v2+_^3_^5+",5
"549",4559,1224.97500001919,"do","mi",0,9,"^2_^4_v3_v2_v1_v3_v2+_^3_^5+",6
"550",4559,2305.26499997359,"mi","me",0,9,"^2_^4_v3_v2_v1_v3_v2+_^3_^5+",7
"551",4559,966.220000060275,"sol","mi",0,9,"^2_^4_v3_v2_v1_v3_v2+_^3_^5+",8
"552",4559,437.314999988303,"le","le",1,9,"^2_^4_v3_v2_v1_v3_v2+_^3_^5+",9
"553",4559,1312.09000002127,"re","re",1,9,"^2_^3_^4_^5_^6_v5_v4_v3_v2",1
"554",4559,730.175000033341,"mi","mi",1,9,"^2_^3_^4_^5_^6_v5_v4_v3_v2",2
"555",4559,504.979999968782,"fa","fa",1,9,"^2_^3_^4_^5_^6_v5_v4_v3_v2",3
"556",4559,549.804999958724,"sol","sol",1,9,"^2_^3_^4_^5_^6_v5_v4_v3_v2",4
"557",4559,696.564999991097,"la","la",1,9,"^2_^3_^4_^5_^6_v5_v4_v3_v2",5
"558",4559,685.060000047088,"sol","sol",1,9,"^2_^3_^4_^5_^6_v5_v4_v3_v2",6
"559",4559,582.500000018626,"fa","fa",1,9,"^2_^3_^4_^5_^6_v5_v4_v3_v2",7
"560",4559,573.790000053123,"mi","mi",1,9,"^2_^3_^4_^5_^6_v5_v4_v3_v2",8
"561",4559,595.515000051819,"re","re",1,9,"^2_^3_^4_^5_^6_v5_v4_v3_v2",9
"562",4559,1113.9049999183,"ti","ti",1,9,"v7_v6_v5_^6_v5_v4_^5_^6_v5",1
"563",4559,572.33500003349,"la","la",1,9,"v7_v6_v5_^6_v5_v4_^5_^6_v5",2
"564",4559,865.044999984093,"sol","sol",1,9,"v7_v6_v5_^6_v5_v4_^5_^6_v5",3
"565",4559,741.310000070371,"la","la",1,9,"v7_v6_v5_^6_v5_v4_^5_^6_v5",4
"566",4559,606.350000016391,"sol","sol",1,9,"v7_v6_v5_^6_v5_v4_^5_^6_v5",5
"567",4559,526.895000017248,"fa","fa",1,9,"v7_v6_v5_^6_v5_v4_^5_^6_v5",6
"568",4559,696.32999994792,"sol","sol",1,9,"v7_v6_v5_^6_v5_v4_^5_^6_v5",7
"569",4559,707.345000002533,"la","la",1,9,"v7_v6_v5_^6_v5_v4_^5_^6_v5",8
"570",4559,572.294999961741,"sol","sol",1,9,"v7_v6_v5_^6_v5_v4_^5_^6_v5",9
"571",4559,4545.09499995038,"sol","sol",1,9,"v5_v4_v6+_^7_^3+_v3_v2_v5_^4",1
"572",4559,605.874999891967,"fi","fa",0,9,"v5_v4_v6+_^7_^3+_v3_v2_v5_^4",2
"573",4559,493.900000001304,"fa","te",0,9,"v5_v4_v6+_^7_^3+_v3_v2_v5_^4",3
"574",4559,1348.29500003252,"la","ti",0,9,"v5_v4_v6+_^7_^3+_v3_v2_v5_^4",4
"575",4559,875.579999992624,"mi","3+",0,9,"v5_v4_v6+_^7_^3+_v3_v2_v5_^4",5
"576",4559,1371.16000009701,"me","mi",0,9,"v5_v4_v6+_^7_^3+_v3_v2_v5_^4",6
"577",4559,729.954999987967,"re","re",1,9,"v5_v4_v6+_^7_^3+_v3_v2_v5_^4",7
"578",4559,1393.71999993455,"le","sol",0,9,"v5_v4_v6+_^7_^3+_v3_v2_v5_^4",8
"579",4559,887.180000077933,"fa","fa",1,9,"v5_v4_v6+_^7_^3+_v3_v2_v5_^4",9
"580",4559,1395.35999996588,"mi","mi",1,9,"^3_^4_^5 _^6_v5_v4_v3_v2_v1",1
"581",4559,617.8549999604,"fa","fa",1,9,"^3_^4_^5 _^6_v5_v4_v3_v2_v1",2
"582",4559,538.575000013225,"sol","5 ",0,9,"^3_^4_^5 _^6_v5_v4_v3_v2_v1",3
"583",4559,550.329999998212,"la","la",1,9,"^3_^4_^5 _^6_v5_v4_v3_v2_v1",4
"584",4559,1078.46499991138,"sol","sol",1,9,"^3_^4_^5 _^6_v5_v4_v3_v2_v1",5
"585",4559,707.614999962971,"fa","fa",1,9,"^3_^4_^5 _^6_v5_v4_v3_v2_v1",6
"586",4559,809.024999965914,"mi","mi",1,9,"^3_^4_^5 _^6_v5_v4_v3_v2_v1",7
"587",4559,572.539999964647,"re","re",1,9,"^3_^4_^5 _^6_v5_v4_v3_v2_v1",8
"588",4559,752.399999997579,"do","do",1,9,"^3_^4_^5 _^6_v5_v4_v3_v2_v1",9
"589",4559,1161.88999998849,"mi","mi",1,9,"^3_^4_v2_v7_^1_^2_^3_3_^4",1
"590",4559,471.235000062734,"fa","fa",1,9,"^3_^4_v2_v7_^1_^2_^3_3_^4",2
"591",4559,617.804999928921,"re","re",1,9,"^3_^4_v2_v7_^1_^2_^3_3_^4",3
"592",4559,944.115000078455,"ti","ti",1,9,"^3_^4_v2_v7_^1_^2_^3_3_^4",4
"593",4559,1022.46499992907,"do","do",1,9,"^3_^4_v2_v7_^1_^2_^3_3_^4",5
"594",4559,741.380000021309,"re","re",1,9,"^3_^4_v2_v7_^1_^2_^3_3_^4",6
"595",4559,775.124999927357,"mi","mi",1,9,"^3_^4_v2_v7_^1_^2_^3_3_^4",7
"596",4559,403.595000039786,"mi","mi",1,9,"^3_^4_v2_v7_^1_^2_^3_3_^4",8
"597",4559,426.474999985658,"fa","fa",1,9,"^3_^4_v2_v7_^1_^2_^3_3_^4",9
"598",48542,8012.01500000025,"mi","re",0,2,"^2_v7-",1
"599",48542,8951.56499999936,"re","te",0,2,"^2_v7-",2
"600",48542,9027.95500000136,"fa","mi",0,2,"v3_v2",1
"601",48542,1426.4049999984,"me","re",0,2,"v3_v2",2
"602",48542,8467.74000000011,"re","re",1,2,"v2_v1",1
"603",48542,842.120000001159,"do","do",1,2,"v2_v1",2
"604",48542,5601.93500000238,"sol","mi",0,2,"^3_v4+",1
"605",48542,752.764999997453,"la","fi",0,2,"^3_v4+",2
"606",48542,7825.4649999981,"ti","ti",1,2,"v7_v3",1
"607",48542,1858.54499999911,"sol","mi",0,2,"v7_v3",2
"608",48542,4795.97999999905,"do","do",1,2,"^1_^2+",1
"609",48542,2000.36499999987,"me","me",1,2,"^1_^2+",2
"610",48542,7772.03000000014,"te","sol",0,2,"^5_^1+",1
"611",48542,1125.75500000082,"do","ra",0,2,"^5_^1+",2
"612",48542,3396.90499999782,"sol","sol",1,2,"v5_v1+",1
"613",48542,4875.43999999983,"ra","ra",1,2,"v5_v1+",2
"614",48542,14341.6400000023,"fa","mi",0,2,"3_^6",1
"615",48542,1835.33499999973,"la","la",1,2,"3_^6",2
"616",48542,10932.6149999979,"fa","fa",1,2,"v4_v3",1
"617",48542,2295.4299999983,"me","mi",0,2,"v4_v3",2
"618",48542,2144.5299999977,"sol","sol",1,3,"v5_v4_v3",1
"619",48542,680.745000001509,"fa","fa",1,3,"v5_v4_v3",2
"620",48542,1268.35999999824,"mi","mi",1,3,"v5_v4_v3",3
"621",48542,2387.91000000131,"mi","mi",1,3,"v3_v2_v1",1
"622",48542,638.699999999604,"re","re",1,3,"v3_v2_v1",2
"623",48542,842.609999999637,"do","do",1,3,"v3_v2_v1",3
"624",48542,7716.41499999899,"ti","do",0,3,"v1_v7-_^7",1
"625",48542,1450.33999999939,"sol","te",0,3,"v1_v7-_^7",2
"626",48542,1074.86000000068,"la","ti",0,3,"v1_v7-_^7",3
"627",48542,6936.2849999998,"mi","re",0,3,"v2_v5_^3",1
"628",48542,1618.01999999804,"la","sol",0,3,"v2_v5_^3",2
"629",48542,760.865000000107,"sol","mi",0,3,"v2_v5_^3",3
"630",48542,5630.17999999644,"la","la",1,3,"6_^1_v5",1
"631",48542,4035.84000000043,"do","do",1,3,"6_^1_v5",2
"632",48542,2216.71000000054,"ti","sol",0,3,"6_^1_v5",3
"633",48542,6736.41999999748,"do","do",1,3,"^1_v6_v5+",1
"634",48542,4160.59500000125,"le","la",0,3,"^1_v6_v5+",2
"635",48542,3169.33500000229,"sol","le",0,3,"^1_v6_v5+",3
"636",48542,4782.00500000105,"fa","fa",1,3,"v4_v3_v2",1
"637",48542,984.294999998296,"mi","mi",1,3,"v4_v3_v2",2
"638",48542,4388.3850000021,"re","re",1,3,"v4_v3_v2",3
"639",48542,1100.83500000113,"do","do",1,3,"1_v1+_^2",1
"640",48542,510.409999998985,"ra","ra",1,3,"1_v1+_^2",2
"641",48542,644.370000001742,"re","re",1,3,"1_v1+_^2",3
"642",48542,12246.4000000001,"mi","do",0,3,"v1_v7-_7-",1
"643",48542,403.935000002151,"me","te",0,3,"v1_v7-_7-",2
"644",48542,216.39499999932,"me","te",0,3,"v1_v7-_7-",3
"645",48542,4022.50999999885,"ra","re",0,5,"v2_2_^3_^4_v2",1
"646",48542,672.20499999891,"ra","re",0,5,"v2_2_^3_^4_v2",2
"647",48542,2056.91999999923,"mi","mi",1,5,"v2_2_^3_^4_v2",3
"648",48542,974.494999998482,"fa","fa",1,5,"v2_2_^3_^4_v2",4
"649",48542,1524.52500000084,"ra","re",0,5,"v2_2_^3_^4_v2",5
"650",48542,3364.13499999978,"la","la",1,5,"^6_v5_v4_v3_v2",1
"651",48542,1070.9300000018,"sol","sol",1,5,"^6_v5_v4_v3_v2",2
"652",48542,606.475000000559,"fa","fa",1,5,"^6_v5_v4_v3_v2",3
"653",48542,4996.7099999995,"mi","mi",1,5,"^6_v5_v4_v3_v2",4
"654",48542,2776.35999999987,"re","re",1,5,"^6_v5_v4_v3_v2",5
"655",48542,6867.92000000062,"me","fi",0,5,"v5-_v3_3_^4+_v3",1
"656",48542,543.46499999892,"re","mi",0,5,"v5-_v3_3_^4+_v3",2
"657",48542,492.409999998985,"re","mi",0,5,"v5-_v3_3_^4+_v3",3
"658",48542,632.804999997607,"me","fi",0,5,"v5-_v3_3_^4+_v3",4
"659",48542,1110.66500000027,"re","mi",0,5,"v5-_v3_3_^4+_v3",5
"660",48542,2020.12000000104,"sol","sol",1,5,"v5_v4_v3_v2_v1 ",1
"661",48542,695.74500000081,"fa","fa",1,5,"v5_v4_v3_v2_v1 ",2
"662",48542,680.70499999891,"me","mi",0,5,"v5_v4_v3_v2_v1 ",3
"663",48542,1795.20499999844,"re","re",1,5,"v5_v4_v3_v2_v1 ",4
"664",48542,778.975000001024,"do","1 ",0,5,"v5_v4_v3_v2_v1 ",5
"665",48542,11400.9650000008,"re","sol",0,5,"v5_^6+_^7_^1_5",1
"666",48542,1426.59999999893,"mi","te",0,5,"v5_^6+_^7_^1_5",2
"667",48542,1132.19500000193,"fa","ti",0,5,"v5_^6+_^7_^1_5",3
"668",48542,1102.71999999904,"sol","do",0,5,"v5_^6+_^7_^1_5",4
"669",48542,3642.57499999809,"fa","sol",0,5,"v5_^6+_^7_^1_5",5
"670",48542,5044.64499999816,"sol","sol",1,5,"^5_^6_v5_v4_v3",1
"671",48542,1322.13500000234,"la","la",1,5,"^5_^6_v5_v4_v3",2
"672",48542,705.405000000726,"sol","sol",1,5,"^5_^6_v5_v4_v3",3
"673",48542,932.440000000643,"fa","fa",1,5,"^5_^6_v5_v4_v3",4
"674",48542,4660.46999999881,"mi","mi",1,5,"^5_^6_v5_v4_v3",5
"675",48542,3594.39500000002,"sol","sol",1,5,"v5_v4_v3_v2_v1",1
"676",48542,957.115000001155,"fa","fa",1,5,"v5_v4_v3_v2_v1",2
"677",48542,875.840000000549,"mi","mi",1,5,"v5_v4_v3_v2_v1",3
"678",48542,930.580000000075,"re","re",1,5,"v5_v4_v3_v2_v1",4
"679",48542,1716.92000000272,"do","do",1,5,"v5_v4_v3_v2_v1",5
"680",48542,4501.91500000074,"la","la",1,5,"^6_v4_v3_^4_^5",1
"681",48542,696.664999999572,"sol","fa",0,5,"^6_v4_v3_^4_^5",2
"682",48542,1484.28999999654,"fa","mi",0,5,"^6_v4_v3_^4_^5",3
"683",48542,1622.64000000153,"mi","fa",0,5,"^6_v4_v3_^4_^5",4
"684",48542,8313.05499999877,"la","sol",0,5,"^6_v4_v3_^4_^5",5
"685",48542,11875.8699999999,"do","do",1,7,"^1_v7_v6_v5_v4_v3_v2",1
"686",48542,2420.37500000163,"ti","ti",1,7,"^1_v7_v6_v5_v4_v3_v2",2
"687",48542,698.270000000717,"la","la",1,7,"^1_v7_v6_v5_v4_v3_v2",3
"688",48542,784.674999998882,"sol","sol",1,7,"^1_v7_v6_v5_v4_v3_v2",4
"689",48542,1400.96000000276,"fa","fa",1,7,"^1_v7_v6_v5_v4_v3_v2",5
"690",48542,2602.9600000002,"mi","mi",1,7,"^1_v7_v6_v5_v4_v3_v2",6
"691",48542,1018.6699999976,"re","re",1,7,"^1_v7_v6_v5_v4_v3_v2",7
"692",48542,7126.79500000016,"sol","sol",1,7,"^5_^6_v5_v4_v3_v2_v1",1
"693",48542,795.600000001257,"la","la",1,7,"^5_^6_v5_v4_v3_v2_v1",2
"694",48542,688.945000001695,"sol","sol",1,7,"^5_^6_v5_v4_v3_v2_v1",3
"695",48542,656.759999997914,"fa","fa",1,7,"^5_^6_v5_v4_v3_v2_v1",4
"696",48542,846.495000001509,"mi","mi",1,7,"^5_^6_v5_v4_v3_v2_v1",5
"697",48542,566.674999998184,"re","re",1,7,"^5_^6_v5_v4_v3_v2_v1",6
"698",48542,827.034999998286,"do","do",1,7,"^5_^6_v5_v4_v3_v2_v1",7
"699",48542,2594.88000000059,"fa","fa",1,7,"^4_^5_^6_v5_v4_v3_v2",1
"700",48542,1038.96499999985,"sol","sol",1,7,"^4_^5_^6_v5_v4_v3_v2",2
"701",48542,696.410000000615,"la","la",1,7,"^4_^5_^6_v5_v4_v3_v2",3
"702",48542,688.554999997141,"sol","sol",1,7,"^4_^5_^6_v5_v4_v3_v2",4
"703",48542,770.725000002189,"fa","fa",1,7,"^4_^5_^6_v5_v4_v3_v2",5
"704",48542,654.790000000503,"me","mi",0,7,"^4_^5_^6_v5_v4_v3_v2",6
"705",48542,1732.69000000064,"re","re",1,7,"^4_^5_^6_v5_v4_v3_v2",7
"706",48542,1053.38000000105,"do","do",1,7,"1_^3_v1_^5_v3_v2_^3",1
"707",48542,6648.71000000136,"mi","mi",1,7,"1_^3_v1_^5_v3_v2_^3",2
"708",48542,637.859999998705,"do","do",1,7,"1_^3_v1_^5_v3_v2_^3",3
"709",48542,4071.724999998,"sol","sol",1,7,"1_^3_v1_^5_v3_v2_^3",4
"710",48542,3886.88500000001,"do","mi",0,7,"1_^3_v1_^5_v3_v2_^3",5
"711",48542,5018.22499999986,"fa","re",0,7,"1_^3_v1_^5_v3_v2_^3",6
"712",48542,712.774999999907,"mi","mi",1,7,"1_^3_v1_^5_v3_v2_^3",7
"713",48542,8728.76999999792,"ti","fa",0,7,"^4_v6-_v5-_^6-_^4_v2-_2-",1
"714",48542,1694.6399999978,"la","le",0,7,"^4_v6-_v5-_^6-_^4_v2-_2-",2
"715",48542,518.350000001956,"sol","fi",0,7,"^4_v6-_v5-_^6-_^4_v2-_2-",3
"716",48542,558.809999998659,"la","le",0,7,"^4_v6-_v5-_^6-_^4_v2-_2-",4
"717",48542,632.574999999721,"ti","fa",0,7,"^4_v6-_v5-_^6-_^4_v2-_2-",5
"718",48542,680.829999997513,"la","ra",0,7,"^4_v6-_v5-_^6-_^4_v2-_2-",6
"719",48542,2240.35499999789,"la","ra",0,7,"^4_v6-_v5-_^6-_^4_v2-_2-",7
"720",48542,8248.4150000019,"te","la",0,7,"^6_v5+_v4_^5+_v3_v1_v7-",1
"721",48542,2709.80499999854,"le","le",1,7,"^6_v5+_v4_^5+_v3_v1_v7-",2
"722",48542,590.660000001779,"sol","fa",0,7,"^6_v5+_v4_^5+_v3_v1_v7-",3
"723",48542,568.749999998603,"fi","le",0,7,"^6_v5+_v4_^5+_v3_v1_v7-",4
"724",48542,530.885000000009,"fa","mi",0,7,"^6_v5+_v4_^5+_v3_v1_v7-",5
"725",48542,2068.82499999856,"mi","do",0,7,"^6_v5+_v4_^5+_v3_v1_v7-",6
"726",48542,4070.3600000015,"me","te",0,7,"^6_v5+_v4_^5+_v3_v1_v7-",7
"727",48542,1403.45999999763,"do","do",1,7,"v1_^2_v1_v7_^1_^3_v2",1
"728",48542,1152.66500000143,"re","re",1,7,"v1_^2_v1_v7_^1_^3_v2",2
"729",48542,736.300000000279,"do","do",1,7,"v1_^2_v1_v7_^1_^3_v2",3
"730",48542,1834.30999999843,"ti","ti",1,7,"v1_^2_v1_v7_^1_^3_v2",4
"731",48542,10240.5099999995,"do","do",1,7,"v1_^2_v1_v7_^1_^3_v2",5
"732",48542,976.320000001695,"mi","mi",1,7,"v1_^2_v1_v7_^1_^3_v2",6
"733",48542,876.664999999804,"re","re",1,7,"v1_^2_v1_v7_^1_^3_v2",7
"734",48542,4161.09499999951,"re","re",1,9,"^2_^3_^4_^5_^6_v5_v4_v3_v2",1
"735",48542,963.980000000447,"mi","mi",1,9,"^2_^3_^4_^5_^6_v5_v4_v3_v2",2
"736",48542,1618.75499999942,"fa","fa",1,9,"^2_^3_^4_^5_^6_v5_v4_v3_v2",3
"737",48542,648.525000000605,"sol","sol",1,9,"^2_^3_^4_^5_^6_v5_v4_v3_v2",4
"738",48542,720.88500000257,"la","la",1,9,"^2_^3_^4_^5_^6_v5_v4_v3_v2",5
"739",48542,836.584999997169,"sol","sol",1,9,"^2_^3_^4_^5_^6_v5_v4_v3_v2",6
"740",48542,818.520000000717,"fa","fa",1,9,"^2_^3_^4_^5_^6_v5_v4_v3_v2",7
"741",48542,713.175000000745,"mi","mi",1,9,"^2_^3_^4_^5_^6_v5_v4_v3_v2",8
"742",48542,869.01500000013,"re","re",1,9,"^2_^3_^4_^5_^6_v5_v4_v3_v2",9
"743",48542,5324.51500000013,"sol","sol",1,9,"v5_v4_v6+_^7_^3+_v3_v2_v5_^4",1
"744",48542,3193.1100000001,"mi","fa",0,9,"v5_v4_v6+_^7_^3+_v3_v2_v5_^4",2
"745",48542,891.69000000041,"re","te",0,9,"v5_v4_v6+_^7_^3+_v3_v2_v5_^4",3
"746",48542,2230.71999999951,"do","ti",0,9,"v5_v4_v6+_^7_^3+_v3_v2_v5_^4",4
"747",48542,2186.92499999795,"ti","3+",0,9,"v5_v4_v6+_^7_^3+_v3_v2_v5_^4",5
"748",48542,2314.80000000028,"le","mi",0,9,"v5_v4_v6+_^7_^3+_v3_v2_v5_^4",6
"749",48542,610.029999999795,"sol","re",0,9,"v5_v4_v6+_^7_^3+_v3_v2_v5_^4",7
"750",48542,901.109999998938,"le","sol",0,9,"v5_v4_v6+_^7_^3+_v3_v2_v5_^4",8
"751",48542,1130.69499999983,"la","fa",0,9,"v5_v4_v6+_^7_^3+_v3_v2_v5_^4",9
"752",48542,5314.11999999918,"re","re",1,9,"^2_^4_v3_v2_v1_v3_v2+_^3_^5+",1
"753",48542,3730.445000001,"mi","fa",0,9,"^2_^4_v3_v2_v1_v3_v2+_^3_^5+",2
"754",48542,834.655000002356,"fa","mi",0,9,"^2_^4_v3_v2_v1_v3_v2+_^3_^5+",3
"755",48542,470.734999998938,"mi","re",0,9,"^2_^4_v3_v2_v1_v3_v2+_^3_^5+",4
"756",48542,1361.96500000008,"re","do",0,9,"^2_^4_v3_v2_v1_v3_v2+_^3_^5+",5
"757",48542,726.749999997905,"do","mi",0,9,"^2_^4_v3_v2_v1_v3_v2+_^3_^5+",6
"758",48542,1004.82999999798,"te","me",0,9,"^2_^4_v3_v2_v1_v3_v2+_^3_^5+",7
"759",48542,640.72999999905,"ti","mi",0,9,"^2_^4_v3_v2_v1_v3_v2+_^3_^5+",8
"760",48542,534.749999999069,"do","le",0,9,"^2_^4_v3_v2_v1_v3_v2+_^3_^5+",9
"761",48542,8795.1399999985,"mi","mi",1,9,"^3_^4_v2_v7_^1_^2_^3_3_^4",1
"762",48542,798.399999999674,"fa","fa",1,9,"^3_^4_v2_v7_^1_^2_^3_3_^4",2
"763",48542,460.730000002543,"mi","re",0,9,"^3_^4_v2_v7_^1_^2_^3_3_^4",3
"764",48542,720.849999997998,"re","ti",0,9,"^3_^4_v2_v7_^1_^2_^3_3_^4",4
"765",48542,2746.68499999819,"mi","do",0,9,"^3_^4_v2_v7_^1_^2_^3_3_^4",5
"766",48542,568.149999999208,"fa","re",0,9,"^3_^4_v2_v7_^1_^2_^3_3_^4",6
"767",48542,1231.67500000261,"sol","mi",0,9,"^3_^4_v2_v7_^1_^2_^3_3_^4",7
"768",48542,3281.27999999933,"le","mi",0,9,"^3_^4_v2_v7_^1_^2_^3_3_^4",8
"769",48542,2955.9599999995,"la","fa",0,9,"^3_^4_v2_v7_^1_^2_^3_3_^4",9
"770",48542,6585.1799999983,"sol","mi",0,9,"^3_^4_^5 _^6_v5_v4_v3_v2_v1",1
"771",48542,640.374999999069,"la","fa",0,9,"^3_^4_^5 _^6_v5_v4_v3_v2_v1",2
"772",48542,574.62999999919,"sol","5 ",0,9,"^3_^4_^5 _^6_v5_v4_v3_v2_v1",3
"773",48542,550.634999999544,"fa","la",0,9,"^3_^4_^5 _^6_v5_v4_v3_v2_v1",4
"774",48542,566.64500000258,"me","sol",0,9,"^3_^4_^5 _^6_v5_v4_v3_v2_v1",5
"775",48542,1238.08500000089,"re","fa",0,9,"^3_^4_^5 _^6_v5_v4_v3_v2_v1",6
"776",48542,2126.52499999967,"do","mi",0,9,"^3_^4_^5 _^6_v5_v4_v3_v2_v1",7
"777",48542,680.66999999783,"re","re",1,9,"^3_^4_^5 _^6_v5_v4_v3_v2_v1",8
"778",48542,2568.41999999946,"mi","do",0,9,"^3_^4_^5 _^6_v5_v4_v3_v2_v1",9
"779",48542,4622.26999999979,"sol","sol",1,9,"^5_^6_v5_v4_v3_v2_v1_^2_^3",1
"780",48542,1236.72499999893,"la","la",1,9,"^5_^6_v5_v4_v3_v2_v1_^2_^3",2
"781",48542,526.14000000176,"sol","sol",1,9,"^5_^6_v5_v4_v3_v2_v1_^2_^3",3
"782",48542,802.664999999339,"fa","fa",1,9,"^5_^6_v5_v4_v3_v2_v1_^2_^3",4
"783",48542,1036.91999999876,"me","mi",0,9,"^5_^6_v5_v4_v3_v2_v1_^2_^3",5
"784",48542,810.684999996563,"re","re",1,9,"^5_^6_v5_v4_v3_v2_v1_^2_^3",6
"785",48542,928.249999997206,"do","do",1,9,"^5_^6_v5_v4_v3_v2_v1_^2_^3",7
"786",48542,576.50500000082,"re","re",1,9,"^5_^6_v5_v4_v3_v2_v1_^2_^3",8
"787",48542,534.945000003092,"me","mi",0,9,"^5_^6_v5_v4_v3_v2_v1_^2_^3",9
"788",48542,8434.2099999995,"la","ti",0,9,"v7_v6_v5_^6_v5_v4_^5_^6_v5",1
"789",48542,663.9599999981,"sol","la",0,9,"v7_v6_v5_^6_v5_v4_^5_^6_v5",2
"790",48542,519.175000001211,"fi","sol",0,9,"v7_v6_v5_^6_v5_v4_^5_^6_v5",3
"791",48542,451.855000003008,"fa","la",0,9,"v7_v6_v5_^6_v5_v4_^5_^6_v5",4
"792",48542,478.405000001658,"mi","sol",0,9,"v7_v6_v5_^6_v5_v4_^5_^6_v5",5
"793",48542,433.235000000568,"fa","fa",1,9,"v7_v6_v5_^6_v5_v4_^5_^6_v5",6
"794",48542,534.210000001593,"sol","sol",1,9,"v7_v6_v5_^6_v5_v4_^5_^6_v5",7
"795",48542,519.355000000447,"le","la",0,9,"v7_v6_v5_^6_v5_v4_^5_^6_v5",8
"796",48542,1961.85499999789,"ti","sol",0,9,"v7_v6_v5_^6_v5_v4_^5_^6_v5",9
"797",4983,6001.21499993838,"mi","mi",1,2,"^3_v4+",1
"798",4983,3012.94000004418,"fi","fi",1,2,"^3_v4+",2
"799",4983,1512.40999996662,"mi","mi",1,2,"v3_v2",1
"800",4983,1283.84499996901,"re","re",1,2,"v3_v2",2
"801",4983,2200.46500000171,"sol","sol",1,2,"^5_^1+",1
"802",4983,10894.464999903,"ra","ra",1,2,"^5_^1+",2
"803",4983,3744.5000000298,"mi","mi",1,2,"3_^6",1
"804",4983,5444.17000003159,"la","la",1,2,"3_^6",2
"805",4983,851.869999896735,"re","re",1,2,"v2_v1",1
"806",4983,799.700000090525,"do","do",1,2,"v2_v1",2
"807",4983,1702.69000018016,"ti","ti",1,2,"v7_v3",1
"808",4983,2584.21000000089,"mi","mi",1,2,"v7_v3",2
"809",4983,1294.23499992117,"sol","sol",1,2,"v5_v1+",1
"810",4983,3494.16999984533,"ra","ra",1,2,"v5_v1+",2
"811",4983,2380.29000000097,"re","re",1,2,"^2_v7-",1
"812",4983,3008.26000003144,"te","te",1,2,"^2_v7-",2
"813",4983,2345.84999992512,"fa","fa",1,2,"v4_v3",1
"814",4983,1464.3399999477,"mi","mi",1,2,"v4_v3",2
"815",4983,2807.0500001777,"do","do",1,2,"^1_^2+",1
"816",4983,1324.63000016287,"me","me",1,2,"^1_^2+",2
"817",4983,1746.85500003397,"do","do",1,3,"^1_v6_v5+",1
"818",4983,2999.0149999503,"la","la",1,3,"^1_v6_v5+",2
"819",4983,1945.39500004612,"le","le",1,3,"^1_v6_v5+",3
"820",4983,1322.84499984235,"do","do",1,3,"v1_v7-_^7",1
"821",4983,1552.33499989845,"te","te",1,3,"v1_v7-_^7",2
"822",4983,927.389999851584,"ti","ti",1,3,"v1_v7-_^7",3
"823",4983,1450.95500000753,"do","do",1,3,"1_v1+_^2",1
"824",4983,1940.78999990597,"ra","ra",1,3,"1_v1+_^2",2
"825",4983,778.170000063255,"re","re",1,3,"1_v1+_^2",3
"826",4983,2221.39000007883,"re","re",1,3,"v2_v5_^3",1
"827",4983,5200.47000003979,"sol","sol",1,3,"v2_v5_^3",2
"828",4983,1353.45999989659,"mi","mi",1,3,"v2_v5_^3",3
"829",4983,2007.39499996416,"la","la",1,3,"6_^1_v5",1
"830",4983,1710.94999997877,"do","do",1,3,"6_^1_v5",2
"831",4983,1641.83999993838,"sol","sol",1,3,"6_^1_v5",3
"832",4983,854.659999953583,"do","do",1,3,"v1_v7-_7-",1
"833",4983,2019.73499986343,"te","te",1,3,"v1_v7-_7-",2
"834",4983,554.850000189617,"te","te",1,3,"v1_v7-_7-",3
"835",4983,892.025000182912,"sol","sol",1,3,"v5_v4_v3",1
"836",4983,713.890000013635,"fa","fa",1,3,"v5_v4_v3",2
"837",4983,1246.76499981433,"mi","mi",1,3,"v5_v4_v3",3
"838",4983,983.699999982491,"fa","fa",1,3,"v4_v3_v2",1
"839",4983,892.810000106692,"mi","mi",1,3,"v4_v3_v2",2
"840",4983,1433.94499993883,"re","re",1,3,"v4_v3_v2",3
"841",4983,1237.03499999829,"mi","mi",1,3,"v3_v2_v1",1
"842",4983,666.620000032708,"re","re",1,3,"v3_v2_v1",2
"843",4983,611.670000012964,"do","do",1,3,"v3_v2_v1",3
"844",4983,3599.72000005655,"la","la",1,5,"^6_v5_v4_v3_v2",1
"845",4983,751.619999995455,"sol","sol",1,5,"^6_v5_v4_v3_v2",2
"846",4983,918.580000055954,"fa","fa",1,5,"^6_v5_v4_v3_v2",3
"847",4983,2090.07999999449,"mi","mi",1,5,"^6_v5_v4_v3_v2",4
"848",4983,895.944999996573,"re","re",1,5,"^6_v5_v4_v3_v2",5
"849",4983,986.574999988079,"sol","sol",1,5,"v5_v4_v3_v2_v1 ",1
"850",4983,681.379999965429,"fa","fa",1,5,"v5_v4_v3_v2_v1 ",2
"851",4983,838.425000198185,"mi","mi",1,5,"v5_v4_v3_v2_v1 ",3
"852",4983,599.495000205934,"re","re",1,5,"v5_v4_v3_v2_v1 ",4
"853",4983,540.395000018179,"do","1 ",0,5,"v5_v4_v3_v2_v1 ",5
"854",4983,3090.0950001087,"re","re",1,5,"v2_2_^3_^4_v2",1
"855",4983,1052.65500000678,"re","re",1,5,"v2_2_^3_^4_v2",2
"856",4983,900.245000142604,"mi","mi",1,5,"v2_2_^3_^4_v2",3
"857",4983,603.880000067875,"fa","fa",1,5,"v2_2_^3_^4_v2",4
"858",4983,698.199999984354,"re","re",1,5,"v2_2_^3_^4_v2",5
"859",4983,1209.44000012241,"fi","fi",1,5,"v5-_v3_3_^4+_v3",1
"860",4983,1228.17500005476,"mi","mi",1,5,"v5-_v3_3_^4+_v3",2
"861",4983,632.354999892414,"mi","mi",1,5,"v5-_v3_3_^4+_v3",3
"862",4983,870.19499996677,"fi","fi",1,5,"v5-_v3_3_^4+_v3",4
"863",4983,720.059999963269,"mi","mi",1,5,"v5-_v3_3_^4+_v3",5
"864",4983,834.375000093132,"sol","sol",1,5,"v5_^6+_^7_^1_5",1
"865",4983,760.750000132248,"la","te",0,5,"v5_^6+_^7_^1_5",2
"866",4983,789.564999984577,"ti","ti",1,5,"v5_^6+_^7_^1_5",3
"867",4983,596.129999961704,"do","do",1,5,"v5_^6+_^7_^1_5",4
"868",4983,682.280000066385,"sol","sol",1,5,"v5_^6+_^7_^1_5",5
"869",4983,1135.25500008836,"la","la",1,5,"^6_v4_v3_^4_^5",1
"870",4983,1145.86999989115,"fa","fa",1,5,"^6_v4_v3_^4_^5",2
"871",4983,679.735000012442,"mi","mi",1,5,"^6_v4_v3_^4_^5",3
"872",4983,524.379999842495,"fa","fa",1,5,"^6_v4_v3_^4_^5",4
"873",4983,1536.08999983408,"sol","sol",1,5,"^6_v4_v3_^4_^5",5
"874",4983,1321.04000006802,"sol","sol",1,5,"v5_v4_v3_v2_v1",1
"875",4983,642.04499986954,"fa","fa",1,5,"v5_v4_v3_v2_v1",2
"876",4983,1102.32000006363,"mi","mi",1,5,"v5_v4_v3_v2_v1",3
"877",4983,636.189999990165,"re","re",1,5,"v5_v4_v3_v2_v1",4
"878",4983,615.969999926165,"do","do",1,5,"v5_v4_v3_v2_v1",5
"879",4983,1217.98000019044,"sol","sol",1,5,"^5_^6_v5_v4_v3",1
"880",4983,810.270000016317,"la","la",1,5,"^5_^6_v5_v4_v3",2
"881",4983,639.960000058636,"sol","sol",1,5,"^5_^6_v5_v4_v3",3
"882",4983,620.525000151247,"fa","fa",1,5,"^5_^6_v5_v4_v3",4
"883",4983,534.389999927953,"mi","mi",1,5,"^5_^6_v5_v4_v3",5
"884",4983,1494.01500006206,"do","do",1,7,"^1_v7_v6_v5_v4_v3_v2",1
"885",4983,950.294999871403,"ti","ti",1,7,"^1_v7_v6_v5_v4_v3_v2",2
"886",4983,698.205000022426,"la","la",1,7,"^1_v7_v6_v5_v4_v3_v2",3
"887",4983,980.020000133663,"sol","sol",1,7,"^1_v7_v6_v5_v4_v3_v2",4
"888",4983,668.394999811426,"fa","fa",1,7,"^1_v7_v6_v5_v4_v3_v2",5
"889",4983,523.985000094399,"mi","mi",1,7,"^1_v7_v6_v5_v4_v3_v2",6
"890",4983,782.314999960363,"re","re",1,7,"^1_v7_v6_v5_v4_v3_v2",7
"891",4983,1014.1050000675,"do","do",1,7,"1_^3_v1_^5_v3_v2_^3",1
"892",4983,1238.29500004649,"mi","mi",1,7,"1_^3_v1_^5_v3_v2_^3",2
"893",4983,822.970000095665,"do","do",1,7,"1_^3_v1_^5_v3_v2_^3",3
"894",4983,1170.62500002794,"sol","sol",1,7,"1_^3_v1_^5_v3_v2_^3",4
"895",4983,1527.50999992713,"mi","mi",1,7,"1_^3_v1_^5_v3_v2_^3",5
"896",4983,625.844999914989,"re","re",1,7,"1_^3_v1_^5_v3_v2_^3",6
"897",4983,538.36499992758,"mi","mi",1,7,"1_^3_v1_^5_v3_v2_^3",7
"898",4983,5485.32500001602,"fa","fa",1,7,"^4_v6-_v5-_^6-_^4_v2-_2-",1
"899",4983,5776.1200000532,"le","le",1,7,"^4_v6-_v5-_^6-_^4_v2-_2-",2
"900",4983,1378.53000010364,"fi","fi",1,7,"^4_v6-_v5-_^6-_^4_v2-_2-",3
"901",4983,1163.84499985725,"le","le",1,7,"^4_v6-_v5-_^6-_^4_v2-_2-",4
"902",4983,1462.22500014119,"fa","fa",1,7,"^4_v6-_v5-_^6-_^4_v2-_2-",5
"903",4983,12604.9450000282,"ra","ra",1,7,"^4_v6-_v5-_^6-_^4_v2-_2-",6
"904",4983,507.609999971464,"ra","ra",1,7,"^4_v6-_v5-_^6-_^4_v2-_2-",7
"905",4983,3008.8649999816,"la","la",1,7,"^6_v5+_v4_^5+_v3_v1_v7-",1
"906",4983,4923.52499999106,"le","le",1,7,"^6_v5+_v4_^5+_v3_v1_v7-",2
"907",4983,2203.02499993704,"fa","fa",1,7,"^6_v5+_v4_^5+_v3_v1_v7-",3
"908",4983,2756.5150000155,"le","le",1,7,"^6_v5+_v4_^5+_v3_v1_v7-",4
"909",4983,2272.79499988072,"mi","mi",1,7,"^6_v5+_v4_^5+_v3_v1_v7-",5
"910",4983,610.09500012733,"do","do",1,7,"^6_v5+_v4_^5+_v3_v1_v7-",6
"911",4983,312.734999926761,"do","te",0,7,"^6_v5+_v4_^5+_v3_v1_v7-",7
"912",4983,1578.51500017568,"do","do",1,7,"v1_^2_v1_v7_^1_^3_v2",1
"913",4983,879.995000082999,"re","re",1,7,"v1_^2_v1_v7_^1_^3_v2",2
"914",4983,727.629999862984,"do","do",1,7,"v1_^2_v1_v7_^1_^3_v2",3
"915",4983,1308.30999999307,"ti","ti",1,7,"v1_^2_v1_v7_^1_^3_v2",4
"916",4983,1058.04000003263,"do","do",1,7,"v1_^2_v1_v7_^1_^3_v2",5
"917",4983,1569.84000001103,"mi","mi",1,7,"v1_^2_v1_v7_^1_^3_v2",6
"918",4983,586.519999895245,"re","re",1,7,"v1_^2_v1_v7_^1_^3_v2",7
"919",4983,1446.55999983661,"fa","fa",1,7,"^4_^5_^6_v5_v4_v3_v2",1
"920",4983,881.300000008196,"sol","sol",1,7,"^4_^5_^6_v5_v4_v3_v2",2
"921",4983,790.255000116304,"la","la",1,7,"^4_^5_^6_v5_v4_v3_v2",3
"922",4983,671.924999915063,"sol","sol",1,7,"^4_^5_^6_v5_v4_v3_v2",4
"923",4983,674.329999834299,"fa","fa",1,7,"^4_^5_^6_v5_v4_v3_v2",5
"924",4983,844.975000014529,"mi","mi",1,7,"^4_^5_^6_v5_v4_v3_v2",6
"925",4983,633.879999862984,"re","re",1,7,"^4_^5_^6_v5_v4_v3_v2",7
"926",4983,1149.86000000499,"sol","sol",1,7,"^5_^6_v5_v4_v3_v2_v1",1
"927",4983,665.860000066459,"la","la",1,7,"^5_^6_v5_v4_v3_v2_v1",2
"928",4983,682.814999949187,"sol","sol",1,7,"^5_^6_v5_v4_v3_v2_v1",3
"929",4983,599.849999882281,"fa","fa",1,7,"^5_^6_v5_v4_v3_v2_v1",4
"930",4983,632.419999921694,"mi","mi",1,7,"^5_^6_v5_v4_v3_v2_v1",5
"931",4983,539.779999991879,"re","re",1,7,"^5_^6_v5_v4_v3_v2_v1",6
"932",4983,484.319999814034,"do","do",1,7,"^5_^6_v5_v4_v3_v2_v1",7
"933",4983,3409.63499993086,"sol","sol",1,9,"^5_^6_v5_v4_v3_v2_v1_^2_^3",1
"934",4983,617.97000002116,"la","la",1,9,"^5_^6_v5_v4_v3_v2_v1_^2_^3",2
"935",4983,572.230000048876,"sol","sol",1,9,"^5_^6_v5_v4_v3_v2_v1_^2_^3",3
"936",4983,619.76999999024,"fa","fa",1,9,"^5_^6_v5_v4_v3_v2_v1_^2_^3",4
"937",4983,616.604999871925,"mi","mi",1,9,"^5_^6_v5_v4_v3_v2_v1_^2_^3",5
"938",4983,760.354999918491,"re","re",1,9,"^5_^6_v5_v4_v3_v2_v1_^2_^3",6
"939",4983,650.464999955148,"do","do",1,9,"^5_^6_v5_v4_v3_v2_v1_^2_^3",7
"940",4983,546.994999982417,"re","re",1,9,"^5_^6_v5_v4_v3_v2_v1_^2_^3",8
"941",4983,508.004999952391,"mi","mi",1,9,"^5_^6_v5_v4_v3_v2_v1_^2_^3",9
"942",4983,8895.62500012107,"ti","ti",1,9,"v7_v6_v5_^6_v5_v4_^5_^6_v5",1
"943",4983,669.720000121742,"la","la",1,9,"v7_v6_v5_^6_v5_v4_^5_^6_v5",2
"944",4983,962.474999949336,"sol","sol",1,9,"v7_v6_v5_^6_v5_v4_^5_^6_v5",3
"945",4983,1626.30999996327,"fa","la",0,9,"v7_v6_v5_^6_v5_v4_^5_^6_v5",4
"946",4983,842.794999945909,"sol","sol",1,9,"v7_v6_v5_^6_v5_v4_^5_^6_v5",5
"947",4983,828.539999900386,"la","fa",0,9,"v7_v6_v5_^6_v5_v4_^5_^6_v5",6
"948",4983,596.404999960214,"sol","sol",1,9,"v7_v6_v5_^6_v5_v4_^5_^6_v5",7
"949",4983,527.830000035465,"fa","la",0,9,"v7_v6_v5_^6_v5_v4_^5_^6_v5",8
"950",4983,523.144999984652,"sol","sol",1,9,"v7_v6_v5_^6_v5_v4_^5_^6_v5",9
"951",4983,2530.96499992535,"re","re",1,9,"^2_^3_^4_^5_^6_v5_v4_v3_v2",1
"952",4983,2204.48499987833,"mi","mi",1,9,"^2_^3_^4_^5_^6_v5_v4_v3_v2",2
"953",4983,1090.39500006475,"fa","fa",1,9,"^2_^3_^4_^5_^6_v5_v4_v3_v2",3
"954",4983,772.154999896884,"sol","sol",1,9,"^2_^3_^4_^5_^6_v5_v4_v3_v2",4
"955",4983,706.375000067055,"la","la",1,9,"^2_^3_^4_^5_^6_v5_v4_v3_v2",5
"956",4983,648.135000141338,"sol","sol",1,9,"^2_^3_^4_^5_^6_v5_v4_v3_v2",6
"957",4983,656.659999862313,"fa","fa",1,9,"^2_^3_^4_^5_^6_v5_v4_v3_v2",7
"958",4983,523.559999885038,"mi","mi",1,9,"^2_^3_^4_^5_^6_v5_v4_v3_v2",8
"959",4983,1474.36499991454,"re","re",1,9,"^2_^3_^4_^5_^6_v5_v4_v3_v2",9
"960",4983,1832.22500002012,"mi","mi",1,9,"^3_^4_v2_v7_^1_^2_^3_3_^4",1
"961",4983,1525.88500012644,"fa","fa",1,9,"^3_^4_v2_v7_^1_^2_^3_3_^4",2
"962",4983,1617.70999990404,"re","re",1,9,"^3_^4_v2_v7_^1_^2_^3_3_^4",3
"963",4983,1108.51499997079,"ti","ti",1,9,"^3_^4_v2_v7_^1_^2_^3_3_^4",4
"964",4983,6941.52999995276,"do","do",1,9,"^3_^4_v2_v7_^1_^2_^3_3_^4",5
"965",4983,1241.47500004619,"re","re",1,9,"^3_^4_v2_v7_^1_^2_^3_3_^4",6
"966",4983,928.365000057966,"mi","mi",1,9,"^3_^4_v2_v7_^1_^2_^3_3_^4",7
"967",4983,881.909999996424,"mi","mi",1,9,"^3_^4_v2_v7_^1_^2_^3_3_^4",8
"968",4983,592.355000087991,"fa","fa",1,9,"^3_^4_v2_v7_^1_^2_^3_3_^4",9
"969",4983,1624.74999995902,"re","re",1,9,"^2_^4_v3_v2_v1_v3_v2+_^3_^5+",1
"970",4983,944.750000024214,"fa","fa",1,9,"^2_^4_v3_v2_v1_v3_v2+_^3_^5+",2
"971",4983,2020.39499999955,"mi","mi",1,9,"^2_^4_v3_v2_v1_v3_v2+_^3_^5+",3
"972",4983,1094.8699999135,"re","re",1,9,"^2_^4_v3_v2_v1_v3_v2+_^3_^5+",4
"973",4983,11697.5650000386,"ra","do",0,9,"^2_^4_v3_v2_v1_v3_v2+_^3_^5+",5
"974",4983,1576.48500008509,"mi","mi",1,9,"^2_^4_v3_v2_v1_v3_v2+_^3_^5+",6
"975",4983,475.910000037402,"me","me",1,9,"^2_^4_v3_v2_v1_v3_v2+_^3_^5+",7
"976",4983,546.055000042543,"mi","mi",1,9,"^2_^4_v3_v2_v1_v3_v2+_^3_^5+",8
"977",4983,2110.37499993108,"le","le",1,9,"^2_^4_v3_v2_v1_v3_v2+_^3_^5+",9
"978",4983,3391.34999993257,"sol","sol",1,9,"v5_v4_v6+_^7_^3+_v3_v2_v5_^4",1
"979",4983,687.845000065863,"fa","fa",1,9,"v5_v4_v6+_^7_^3+_v3_v2_v5_^4",2
"980",4983,2528.64500018768,"la","te",0,9,"v5_v4_v6+_^7_^3+_v3_v2_v5_^4",3
"981",4983,834.34999990277,"ti","ti",1,9,"v5_v4_v6+_^7_^3+_v3_v2_v5_^4",4
"982",4983,1988.570000045,"mi","3+",0,9,"v5_v4_v6+_^7_^3+_v3_v2_v5_^4",5
"983",4983,1634.2949999962,"re","mi",0,9,"v5_v4_v6+_^7_^3+_v3_v2_v5_^4",6
"984",4983,1510.28500008397,"sol","re",0,9,"v5_v4_v6+_^7_^3+_v3_v2_v5_^4",7
"985",4983,2588.44499988481,"la","sol",0,9,"v5_v4_v6+_^7_^3+_v3_v2_v5_^4",8
"986",4983,2856.71500000171,"mi","fa",0,9,"v5_v4_v6+_^7_^3+_v3_v2_v5_^4",9
"987",4983,1187.36499990337,"mi","mi",1,9,"^3_^4_^5 _^6_v5_v4_v3_v2_v1",1
"988",4983,737.384999869391,"fa","fa",1,9,"^3_^4_^5 _^6_v5_v4_v3_v2_v1",2
"989",4983,726.539999945089,"sol","5 ",0,9,"^3_^4_^5 _^6_v5_v4_v3_v2_v1",3
"990",4983,1007.94999999925,"la","la",1,9,"^3_^4_^5 _^6_v5_v4_v3_v2_v1",4
"991",4983,564.525000052527,"sol","sol",1,9,"^3_^4_^5 _^6_v5_v4_v3_v2_v1",5
"992",4983,718.720000004396,"fa","fa",1,9,"^3_^4_^5 _^6_v5_v4_v3_v2_v1",6
"993",4983,639.379999833182,"mi","mi",1,9,"^3_^4_^5 _^6_v5_v4_v3_v2_v1",7
"994",4983,532.665000064299,"re","re",1,9,"^3_^4_^5 _^6_v5_v4_v3_v2_v1",8
"995",4983,563.740000128746,"do","do",1,9,"^3_^4_^5 _^6_v5_v4_v3_v2_v1",9
"996",51424,1223.505,"do","do",1,2,"^1_^2+",1
"997",51424,700.685000000056,"me","me",1,2,"^1_^2+",2
"998",51424,2052.48999999999,"la","re",0,2,"v2_v1",1
"999",51424,516.524999999907,"sol","do",0,2,"v2_v1",2
"1000",51424,6159.44499999995,"do","sol",0,2,"v5_v1+",1
"1001",51424,3079.22499999998,"fi","ra",0,2,"v5_v1+",2
"1002",51424,10984.61,"re","re",1,2,"^2_v7-",1
"1003",51424,5519.47999999986,"la","te",0,2,"^2_v7-",2
"1004",51424,806.254999999888,"re","mi",0,2,"^3_v4+",1
"1005",51424,583.535000000033,"mi","fi",0,2,"^3_v4+",2
"1006",51424,1522.12499999988,"do","mi",0,2,"3_^6",1
"1007",51424,2416.76000000001,"fa","la",0,2,"3_^6",2
"1008",51424,6916.1050000001,"fi","sol",0,2,"^5_^1+",1
"1009",51424,842.509999999893,"do","ra",0,2,"^5_^1+",2
"1010",51424,10212.8350000001,"mi","mi",1,2,"v3_v2",1
"1011",51424,498.645000000135,"re","re",1,2,"v3_v2",2
"1012",51424,879.985000000102,"fa","fa",1,2,"v4_v3",1
"1013",51424,448.259999999893,"mi","mi",1,2,"v4_v3",2
"1014",51424,1184.11499999999,"do","ti",0,2,"v7_v3",1
"1015",51424,776.5900000002,"sol","mi",0,2,"v7_v3",2
"1016",51424,982.76500000013,"mi","mi",1,3,"v3_v2_v1",1
"1017",51424,659.994999999879,"re","re",1,3,"v3_v2_v1",2
"1018",51424,723.295000000042,"do","do",1,3,"v3_v2_v1",3
"1019",51424,17193.505,"re","do",0,3,"v1_v7-_^7",1
"1020",51424,1460.14500000002,"ti","te",0,3,"v1_v7-_^7",2
"1021",51424,454.380000000121,"do","ti",0,3,"v1_v7-_^7",3
"1022",51424,14500.515,"te","la",0,3,"6_^1_v5",1
"1023",51424,751.209999999963,"do","do",1,3,"6_^1_v5",2
"1024",51424,768.904999999912,"sol","sol",1,3,"6_^1_v5",3
"1025",51424,13758.4300000002,"te","fa",0,3,"v4_v3_v2",1
"1026",51424,662.554999999818,"le","mi",0,3,"v4_v3_v2",2
"1027",51424,796.155000000028,"sol","re",0,3,"v4_v3_v2",3
"1028",51424,13278.21,"re","do",0,3,"v1_v7-_7-",1
"1029",51424,933.115000000107,"ti","te",0,3,"v1_v7-_7-",2
"1030",51424,1922.57499999984,"ti","te",0,3,"v1_v7-_7-",3
"1031",51424,4098.94999999984,"fa","sol",0,3,"v5_v4_v3",1
"1032",51424,575.064999999944,"me","fa",0,3,"v5_v4_v3",2
"1033",51424,732.905000000028,"re","mi",0,3,"v5_v4_v3",3
"1034",51424,4028.33499999996,"ti","do",0,3,"^1_v6_v5+",1
"1035",51424,871.720000000088,"le","la",0,3,"^1_v6_v5+",2
"1036",51424,418.690000000061,"sol","le",0,3,"^1_v6_v5+",3
"1037",51424,9549.56499999994,"re","re",1,3,"v2_v5_^3",1
"1038",51424,716.014999999898,"sol","sol",1,3,"v2_v5_^3",2
"1039",51424,620.335000000079,"fa","mi",0,3,"v2_v5_^3",3
"1040",51424,18223.8499999999,"fa","do",0,3,"1_v1+_^2",1
"1041",51424,586.26500000013,"fi","ra",0,3,"1_v1+_^2",2
"1042",51424,1100.83000000007,"sol","re",0,3,"1_v1+_^2",3
"1043",51424,7752.82999999984,"fa","la",0,5,"^6_v5_v4_v3_v2",1
"1044",51424,504.314999999944,"me","sol",0,5,"^6_v5_v4_v3_v2",2
"1045",51424,440.245000000112,"re","fa",0,5,"^6_v5_v4_v3_v2",3
"1046",51424,570.299999999814,"do","mi",0,5,"^6_v5_v4_v3_v2",4
"1047",51424,1264.49000000022,"ti","re",0,5,"^6_v5_v4_v3_v2",5
"1048",51424,4588.78499999992,"fa","sol",0,5,"^5_^6_v5_v4_v3",1
"1049",51424,568.470000000205,"sol","la",0,5,"^5_^6_v5_v4_v3",2
"1050",51424,514.510000000009,"fa","sol",0,5,"^5_^6_v5_v4_v3",3
"1051",51424,406.540000000037,"mi","fa",0,5,"^5_^6_v5_v4_v3",4
"1052",51424,635.520000000251,"re","mi",0,5,"^5_^6_v5_v4_v3",5
"1053",51424,1293.74000000022,"mi","fi",0,5,"v5-_v3_3_^4+_v3",1
"1054",51424,440.100000000093,"ra","mi",0,5,"v5-_v3_3_^4+_v3",2
"1055",51424,962.824999999721,"re","mi",0,5,"v5-_v3_3_^4+_v3",3
"1056",51424,620.165000000037,"mi","fi",0,5,"v5-_v3_3_^4+_v3",4
"1057",51424,726.004999999888,"re","mi",0,5,"v5-_v3_3_^4+_v3",5
"1058",51424,7388.93999999994,"sol","la",0,5,"^6_v4_v3_^4_^5",1
"1059",51424,855.060000000056,"me","fa",0,5,"^6_v4_v3_^4_^5",2
"1060",51424,726.989999999991,"re","mi",0,5,"^6_v4_v3_^4_^5",3
"1061",51424,1102.51000000001,"me","fa",0,5,"^6_v4_v3_^4_^5",4
"1062",51424,1025.65999999992,"fa","sol",0,5,"^6_v4_v3_^4_^5",5
"1063",51424,18507.51,"sol","sol",1,5,"v5_v4_v3_v2_v1",1
"1064",51424,531.639999999898,"fi","fa",0,5,"v5_v4_v3_v2_v1",2
"1065",51424,690.120000000345,"mi","mi",1,5,"v5_v4_v3_v2_v1",3
"1066",51424,2361.10000000009,"re","re",1,5,"v5_v4_v3_v2_v1",4
"1067",51424,816.064999999944,"do","do",1,5,"v5_v4_v3_v2_v1",5
"1068",51424,20631.0899999999,"do","sol",0,5,"v5_^6+_^7_^1_5",1
"1069",51424,1338.79500000016,"re","te",0,5,"v5_^6+_^7_^1_5",2
"1070",51424,667.510000000009,"me","ti",0,5,"v5_^6+_^7_^1_5",3
"1071",51424,750.930000000168,"fa","do",0,5,"v5_^6+_^7_^1_5",4
"1072",51424,888.65000000014,"do","sol",0,5,"v5_^6+_^7_^1_5",5
"1073",51424,8921.48999999999,"me","re",0,5,"v2_2_^3_^4_v2",1
"1074",51424,227.530000000261,"me","re",0,5,"v2_2_^3_^4_v2",2
"1075",51424,901.149999999907,"fa","mi",0,5,"v2_2_^3_^4_v2",3
"1076",51424,1297.47499999986,"sol","fa",0,5,"v2_2_^3_^4_v2",4
"1077",51424,794.760000000009,"me","re",0,5,"v2_2_^3_^4_v2",5
"1078",51424,3449.78000000026,"sol","sol",1,5,"v5_v4_v3_v2_v1 ",1
"1079",51424,724.679999999702,"fa","fa",1,5,"v5_v4_v3_v2_v1 ",2
"1080",51424,866.925000000279,"me","mi",0,5,"v5_v4_v3_v2_v1 ",3
"1081",51424,431.764999999898,"re","re",1,5,"v5_v4_v3_v2_v1 ",4
"1082",51424,485.979999999981,"do","1 ",0,5,"v5_v4_v3_v2_v1 ",5
"1083",51424,5964.40999999992,"re","fa",0,7,"^4_v6-_v5-_^6-_^4_v2-_2-",1
"1084",51424,1257.96500000032,"fa","le",0,7,"^4_v6-_v5-_^6-_^4_v2-_2-",2
"1085",51424,715.430000000168,"mi","fi",0,7,"^4_v6-_v5-_^6-_^4_v2-_2-",3
"1086",51424,1322.39999999991,"fa","le",0,7,"^4_v6-_v5-_^6-_^4_v2-_2-",4
"1087",51424,2044.93000000017,"re","fa",0,7,"^4_v6-_v5-_^6-_^4_v2-_2-",5
"1088",51424,2442.34499999997,"do","ra",0,7,"^4_v6-_v5-_^6-_^4_v2-_2-",6
"1089",51424,802.305000000168,"do","ra",0,7,"^4_v6-_v5-_^6-_^4_v2-_2-",7
"1090",51424,10258.9400000002,"do","do",1,7,"1_^3_v1_^5_v3_v2_^3",1
"1091",51424,986.295000000158,"mi","mi",1,7,"1_^3_v1_^5_v3_v2_^3",2
"1092",51424,953.904999999795,"do","do",1,7,"1_^3_v1_^5_v3_v2_^3",3
"1093",51424,1061.36499999999,"fa","sol",0,7,"1_^3_v1_^5_v3_v2_^3",4
"1094",51424,602.804999999935,"mi","mi",1,7,"1_^3_v1_^5_v3_v2_^3",5
"1095",51424,808.395000000019,"do","re",0,7,"1_^3_v1_^5_v3_v2_^3",6
"1096",51424,594.465000000084,"re","mi",0,7,"1_^3_v1_^5_v3_v2_^3",7
"1097",51424,978.764999999898,"do","do",1,7,"^1_v7_v6_v5_v4_v3_v2",1
"1098",51424,761.270000000019,"ti","ti",1,7,"^1_v7_v6_v5_v4_v3_v2",2
"1099",51424,909.005000000121,"la","la",1,7,"^1_v7_v6_v5_v4_v3_v2",3
"1100",51424,806.39000000013,"sol","sol",1,7,"^1_v7_v6_v5_v4_v3_v2",4
"1101",51424,995.29000000027,"fa","fa",1,7,"^1_v7_v6_v5_v4_v3_v2",5
"1102",51424,538.404999999795,"mi","mi",1,7,"^1_v7_v6_v5_v4_v3_v2",6
"1103",51424,708.855000000447,"re","re",1,7,"^1_v7_v6_v5_v4_v3_v2",7
"1104",51424,1865.87999999966,"do","do",1,7,"v1_^2_v1_v7_^1_^3_v2",1
"1105",51424,592.31500000041,"re","re",1,7,"v1_^2_v1_v7_^1_^3_v2",2
"1106",51424,570.6800000004,"do","do",1,7,"v1_^2_v1_v7_^1_^3_v2",3
"1107",51424,1704.18500000006,"ti","ti",1,7,"v1_^2_v1_v7_^1_^3_v2",4
"1108",51424,2438.33499999973,"do","do",1,7,"v1_^2_v1_v7_^1_^3_v2",5
"1109",51424,4489.32499999995,"fa","mi",0,7,"v1_^2_v1_v7_^1_^3_v2",6
"1110",51424,735.010000000242,"me","re",0,7,"v1_^2_v1_v7_^1_^3_v2",7
"1111",51424,917.310000000289,"do","fa",0,7,"^4_^5_^6_v5_v4_v3_v2",1
"1112",51424,504.680000000168,"re","sol",0,7,"^4_^5_^6_v5_v4_v3_v2",2
"1113",51424,615.179999999935,"mi","la",0,7,"^4_^5_^6_v5_v4_v3_v2",3
"1114",51424,541.324999999721,"re","sol",0,7,"^4_^5_^6_v5_v4_v3_v2",4
"1115",51424,725.134999999776,"do","fa",0,7,"^4_^5_^6_v5_v4_v3_v2",5
"1116",51424,898.290000000037,"ti","mi",0,7,"^4_^5_^6_v5_v4_v3_v2",6
"1117",51424,602.785000000149,"la","re",0,7,"^4_^5_^6_v5_v4_v3_v2",7
"1118",51424,2126.67000000016,"do","la",0,7,"^6_v5+_v4_^5+_v3_v1_v7-",1
"1119",51424,772.085000000196,"ti","le",0,7,"^6_v5+_v4_^5+_v3_v1_v7-",2
"1120",51424,2428.55000000005,"le","fa",0,7,"^6_v5+_v4_^5+_v3_v1_v7-",3
"1121",51424,5776.95500000031,"ti","le",0,7,"^6_v5+_v4_^5+_v3_v1_v7-",4
"1122",51424,6565.87999999966,"fa","mi",0,7,"^6_v5+_v4_^5+_v3_v1_v7-",5
"1123",51424,1265.55499999993,"me","do",0,7,"^6_v5+_v4_^5+_v3_v1_v7-",6
"1124",51424,838.680000000168,"re","te",0,7,"^6_v5+_v4_^5+_v3_v1_v7-",7
"1125",51424,1288.59999999986,"do","sol",0,7,"^5_^6_v5_v4_v3_v2_v1",1
"1126",51424,578.134999999776,"re","la",0,7,"^5_^6_v5_v4_v3_v2_v1",2
"1127",51424,553.219999999739,"do","sol",0,7,"^5_^6_v5_v4_v3_v2_v1",3
"1128",51424,1580.78500000015,"ti","fa",0,7,"^5_^6_v5_v4_v3_v2_v1",4
"1129",51424,812.394999999786,"la","mi",0,7,"^5_^6_v5_v4_v3_v2_v1",5
"1130",51424,597.199999999721,"sol","re",0,7,"^5_^6_v5_v4_v3_v2_v1",6
"1131",51424,574.225000000326,"fa","do",0,7,"^5_^6_v5_v4_v3_v2_v1",7
"1132",51424,1367.47999999998,"do","mi",0,9,"^3_^4_v2_v7_^1_^2_^3_3_^4",1
"1133",51424,852.505000000354,"me","fa",0,9,"^3_^4_v2_v7_^1_^2_^3_3_^4",2
"1134",51424,675.75,"re","re",1,9,"^3_^4_v2_v7_^1_^2_^3_3_^4",3
"1135",51424,668.649999999674,"do","ti",0,9,"^3_^4_v2_v7_^1_^2_^3_3_^4",4
"1136",51424,2131.00999999954,"ti","do",0,9,"^3_^4_v2_v7_^1_^2_^3_3_^4",5
"1137",51424,1410.82000000007,"do","re",0,9,"^3_^4_v2_v7_^1_^2_^3_3_^4",6
"1138",51424,1759.39999999991,"re","mi",0,9,"^3_^4_v2_v7_^1_^2_^3_3_^4",7
"1139",51424,4508.75,"re","mi",0,9,"^3_^4_v2_v7_^1_^2_^3_3_^4",8
"1140",51424,599.814999999944,"fa","fa",1,9,"^3_^4_v2_v7_^1_^2_^3_3_^4",9
"1141",51424,1468.85000000009,"do","sol",0,9,"v5_v4_v6+_^7_^3+_v3_v2_v5_^4",1
"1142",51424,587.794999999925,"ti","fa",0,9,"v5_v4_v6+_^7_^3+_v3_v2_v5_^4",2
"1143",51424,1013.08999999985,"fa","te",0,9,"v5_v4_v6+_^7_^3+_v3_v2_v5_^4",3
"1144",51424,649.494999999646,"mi","ti",0,9,"v5_v4_v6+_^7_^3+_v3_v2_v5_^4",4
"1145",51424,1771.22500000009,"la","3+",0,9,"v5_v4_v6+_^7_^3+_v3_v2_v5_^4",5
"1146",51424,904.89000000013,"sol","mi",0,9,"v5_v4_v6+_^7_^3+_v3_v2_v5_^4",6
"1147",51424,2246.40000000014,"mi","re",0,9,"v5_v4_v6+_^7_^3+_v3_v2_v5_^4",7
"1148",51424,2464.35000000009,"fa","sol",0,9,"v5_v4_v6+_^7_^3+_v3_v2_v5_^4",8
"1149",51424,2539.12000000034,"fa","fa",1,9,"v5_v4_v6+_^7_^3+_v3_v2_v5_^4",9
"1150",51424,2040.22999999998,"mi","ti",0,9,"v7_v6_v5_^6_v5_v4_^5_^6_v5",1
"1151",51424,562.529999999562,"re","la",0,9,"v7_v6_v5_^6_v5_v4_^5_^6_v5",2
"1152",51424,699.189999999944,"do","sol",0,9,"v7_v6_v5_^6_v5_v4_^5_^6_v5",3
"1153",51424,4820.65999999968,"mi","la",0,9,"v7_v6_v5_^6_v5_v4_^5_^6_v5",4
"1154",51424,520.260000000242,"re","sol",0,9,"v7_v6_v5_^6_v5_v4_^5_^6_v5",5
"1155",51424,683.774999999907,"do","fa",0,9,"v7_v6_v5_^6_v5_v4_^5_^6_v5",6
"1156",51424,1335.68999999994,"ti","sol",0,9,"v7_v6_v5_^6_v5_v4_^5_^6_v5",7
"1157",51424,1773.71499999985,"la","la",1,9,"v7_v6_v5_^6_v5_v4_^5_^6_v5",8
"1158",51424,1305.26999999979,"ti","sol",0,9,"v7_v6_v5_^6_v5_v4_^5_^6_v5",9
"1159",51424,951.344999999972,"do","mi",0,9,"^3_^4_^5 _^6_v5_v4_v3_v2_v1",1
"1160",51424,480.145000000019,"re","fa",0,9,"^3_^4_^5 _^6_v5_v4_v3_v2_v1",2
"1161",51424,633.880000000121,"mi","5 ",0,9,"^3_^4_^5 _^6_v5_v4_v3_v2_v1",3
"1162",51424,654.395000000019,"fi","la",0,9,"^3_^4_^5 _^6_v5_v4_v3_v2_v1",4
"1163",51424,1192.69000000018,"mi","sol",0,9,"^3_^4_^5 _^6_v5_v4_v3_v2_v1",5
"1164",51424,608.914999999804,"re","fa",0,9,"^3_^4_^5 _^6_v5_v4_v3_v2_v1",6
"1165",51424,619.345000000205,"do","mi",0,9,"^3_^4_^5 _^6_v5_v4_v3_v2_v1",7
"1166",51424,1444.48999999976,"ti","re",0,9,"^3_^4_^5 _^6_v5_v4_v3_v2_v1",8
"1167",51424,431.950000000186,"la","do",0,9,"^3_^4_^5 _^6_v5_v4_v3_v2_v1",9
"1168",51424,6179.47500000009,"do","sol",0,9,"^5_^6_v5_v4_v3_v2_v1_^2_^3",1
"1169",51424,2632.84999999986,"mi","la",0,9,"^5_^6_v5_v4_v3_v2_v1_^2_^3",2
"1170",51424,565.479999999749,"re","sol",0,9,"^5_^6_v5_v4_v3_v2_v1_^2_^3",3
"1171",51424,580.194999999832,"do","fa",0,9,"^5_^6_v5_v4_v3_v2_v1_^2_^3",4
"1172",51424,977.844999999972,"ti","mi",0,9,"^5_^6_v5_v4_v3_v2_v1_^2_^3",5
"1173",51424,1068.5149999999,"la","re",0,9,"^5_^6_v5_v4_v3_v2_v1_^2_^3",6
"1174",51424,8412.1799999997,"fa","do",0,9,"^5_^6_v5_v4_v3_v2_v1_^2_^3",7
"1175",51424,585.185000000289,"sol","re",0,9,"^5_^6_v5_v4_v3_v2_v1_^2_^3",8
"1176",51424,889.560000000056,"la","mi",0,9,"^5_^6_v5_v4_v3_v2_v1_^2_^3",9
"1177",51424,948.64000000013,"do","re",0,9,"^2_^3_^4_^5_^6_v5_v4_v3_v2",1
"1178",51424,571.054999999935,"re","mi",0,9,"^2_^3_^4_^5_^6_v5_v4_v3_v2",2
"1179",51424,969.074999999953,"me","fa",0,9,"^2_^3_^4_^5_^6_v5_v4_v3_v2",3
"1180",51424,872.854999999981,"sol","sol",1,9,"^2_^3_^4_^5_^6_v5_v4_v3_v2",4
"1181",51424,715.344999999972,"fa","la",0,9,"^2_^3_^4_^5_^6_v5_v4_v3_v2",5
"1182",51424,1095.53499999992,"me","sol",0,9,"^2_^3_^4_^5_^6_v5_v4_v3_v2",6
"1183",51424,1778.48499999987,"re","fa",0,9,"^2_^3_^4_^5_^6_v5_v4_v3_v2",7
"1184",51424,1746.54499999993,"do","mi",0,9,"^2_^3_^4_^5_^6_v5_v4_v3_v2",8
"1185",51424,3299,"do","re",0,9,"^2_^3_^4_^5_^6_v5_v4_v3_v2",9
"1186",51424,1599.41000000015,"do","re",0,9,"^2_^4_v3_v2_v1_v3_v2+_^3_^5+",1
"1187",51424,1026.84500000044,"me","fa",0,9,"^2_^4_v3_v2_v1_v3_v2+_^3_^5+",2
"1188",51424,768.149999999907,"re","mi",0,9,"^2_^4_v3_v2_v1_v3_v2+_^3_^5+",3
"1189",51424,1150.43999999994,"do","re",0,9,"^2_^4_v3_v2_v1_v3_v2+_^3_^5+",4
"1190",51424,2047.16999999993,"re","do",0,9,"^2_^4_v3_v2_v1_v3_v2+_^3_^5+",5
"1191",51424,1109.33000000007,"do","mi",0,9,"^2_^4_v3_v2_v1_v3_v2+_^3_^5+",6
"1192",51424,2816.84499999997,"la","me",0,9,"^2_^4_v3_v2_v1_v3_v2+_^3_^5+",7
"1193",51424,3403.59999999963,"do","mi",0,9,"^2_^4_v3_v2_v1_v3_v2+_^3_^5+",8
"1194",51424,3169.91500000004,"fa","le",0,9,"^2_^4_v3_v2_v1_v3_v2+_^3_^5+",9
"1195",54631,2280.98499996122,"sol","sol",1,2,"v5_v1+",1
"1196",54631,901.945000048727,"ra","ra",1,2,"v5_v1+",2
"1197",54631,1486.28499999177,"mi","mi",1,2,"^3_v4+",1
"1198",54631,706.744999974035,"fi","fi",1,2,"^3_v4+",2
"1199",54631,1049.04499999247,"sol","sol",1,2,"^5_^1+",1
"1200",54631,918.980000074953,"ra","ra",1,2,"^5_^1+",2
"1201",54631,896.369999973103,"fa","fa",1,2,"v4_v3",1
"1202",54631,561.259999987669,"mi","mi",1,2,"v4_v3",2
"1203",54631,1032.17999998014,"do","do",1,2,"^1_^2+",1
"1204",54631,683.564999955706,"me","me",1,2,"^1_^2+",2
"1205",54631,1026.65500005241,"mi","mi",1,2,"v3_v2",1
"1206",54631,622.674999991432,"re","re",1,2,"v3_v2",2
"1207",54631,1205.74000000488,"re","re",1,2,"^2_v7-",1
"1208",54631,1030.5450001033,"te","te",1,2,"^2_v7-",2
"1209",54631,849.150000023656,"re","re",1,2,"v2_v1",1
"1210",54631,636.015000054613,"do","do",1,2,"v2_v1",2
"1211",54631,776.810000068508,"ti","ti",1,2,"v7_v3",1
"1212",54631,863.460000022314,"mi","mi",1,2,"v7_v3",2
"1213",54631,870.809999993071,"mi","mi",1,2,"3_^6",1
"1214",54631,882.544999942183,"la","la",1,2,"3_^6",2
"1215",54631,758.864999981597,"do","do",1,3,"1_v1+_^2",1
"1216",54631,542.424999992363,"ra","ra",1,3,"1_v1+_^2",2
"1217",54631,727.70499996841,"re","re",1,3,"1_v1+_^2",3
"1218",54631,853.634999948554,"do","do",1,3,"v1_v7-_^7",1
"1219",54631,638.054999988526,"te","te",1,3,"v1_v7-_^7",2
"1220",54631,516.425000037998,"ti","ti",1,3,"v1_v7-_^7",3
"1221",54631,1095.39499995299,"sol","sol",1,3,"v5_v4_v3",1
"1222",54631,564.450000063516,"fa","fa",1,3,"v5_v4_v3",2
"1223",54631,871.239999891259,"mi","mi",1,3,"v5_v4_v3",3
"1224",54631,882.890000008047,"do","do",1,3,"v1_v7-_7-",1
"1225",54631,439.009999972768,"te","te",1,3,"v1_v7-_7-",2
"1226",54631,262.334999977611,"te","te",1,3,"v1_v7-_7-",3
"1227",54631,873.439999995753,"mi","mi",1,3,"v3_v2_v1",1
"1228",54631,414.479999919422,"re","re",1,3,"v3_v2_v1",2
"1229",54631,463.549999985844,"do","do",1,3,"v3_v2_v1",3
"1230",54631,726.155000040308,"la","la",1,3,"6_^1_v5",1
"1231",54631,702.790000010282,"do","do",1,3,"6_^1_v5",2
"1232",54631,661.625000066124,"sol","sol",1,3,"6_^1_v5",3
"1233",54631,951.884999987669,"do","do",1,3,"^1_v6_v5+",1
"1234",54631,502.029999974184,"la","la",1,3,"^1_v6_v5+",2
"1235",54631,447.045000037178,"le","le",1,3,"^1_v6_v5+",3
"1236",54631,1097.21499995794,"fa","fa",1,3,"v4_v3_v2",1
"1237",54631,326.234999927692,"mi","mi",1,3,"v4_v3_v2",2
"1238",54631,599.824999924749,"re","re",1,3,"v4_v3_v2",3
"1239",54631,956.125000026077,"re","re",1,3,"v2_v5_^3",1
"1240",54631,711.41499991063,"sol","sol",1,3,"v2_v5_^3",2
"1241",54631,582.554999971762,"mi","mi",1,3,"v2_v5_^3",3
"1242",54631,1044.54999999143,"sol","sol",1,5,"^5_^6_v5_v4_v3",1
"1243",54631,463.360000052489,"la","la",1,5,"^5_^6_v5_v4_v3",2
"1244",54631,397.665000054985,"sol","sol",1,5,"^5_^6_v5_v4_v3",3
"1245",54631,773.984999977984,"fa","fa",1,5,"^5_^6_v5_v4_v3",4
"1246",54631,543.189999996684,"mi","mi",1,5,"^5_^6_v5_v4_v3",5
"1247",54631,946.029999991879,"la","la",1,5,"^6_v5_v4_v3_v2",1
"1248",54631,550.805000006221,"sol","sol",1,5,"^6_v5_v4_v3_v2",2
"1249",54631,606.819999986328,"fa","fa",1,5,"^6_v5_v4_v3_v2",3
"1250",54631,581.950000021607,"mi","mi",1,5,"^6_v5_v4_v3_v2",4
"1251",54631,743.305000010878,"re","re",1,5,"^6_v5_v4_v3_v2",5
"1252",54631,930.695000104606,"sol","sol",1,5,"v5_^6+_^7_^1_5",1
"1253",54631,462.339999969117,"la","te",0,5,"v5_^6+_^7_^1_5",2
"1254",54631,583.255000063218,"ti","ti",1,5,"v5_^6+_^7_^1_5",3
"1255",54631,575.119999935851,"do","do",1,5,"v5_^6+_^7_^1_5",4
"1256",54631,694.194999989122,"sol","sol",1,5,"v5_^6+_^7_^1_5",5
"1257",54631,825.1600000076,"sol","sol",1,5,"v5_v4_v3_v2_v1",1
"1258",54631,542.994999908842,"fa","fa",1,5,"v5_v4_v3_v2_v1",2
"1259",54631,590.710000018589,"mi","mi",1,5,"v5_v4_v3_v2_v1",3
"1260",54631,446.144999936223,"re","re",1,5,"v5_v4_v3_v2_v1",4
"1261",54631,766.620000009425,"do","do",1,5,"v5_v4_v3_v2_v1",5
"1262",54631,1099.2349999724,"re","re",1,5,"v2_2_^3_^4_v2",1
"1263",54631,367.529999930412,"re","re",1,5,"v2_2_^3_^4_v2",2
"1264",54631,589.474999927916,"mi","mi",1,5,"v2_2_^3_^4_v2",3
"1265",54631,415.569999953732,"fa","fa",1,5,"v2_2_^3_^4_v2",4
"1266",54631,774.345000041649,"re","re",1,5,"v2_2_^3_^4_v2",5
"1267",54631,988.454999984242,"fi","fi",1,5,"v5-_v3_3_^4+_v3",1
"1268",54631,591.000000014901,"mi","mi",1,5,"v5-_v3_3_^4+_v3",2
"1269",54631,310.514999902807,"mi","mi",1,5,"v5-_v3_3_^4+_v3",3
"1270",54631,631.120000034571,"fi","fi",1,5,"v5-_v3_3_^4+_v3",4
"1271",54631,566.074999980628,"mi","mi",1,5,"v5-_v3_3_^4+_v3",5
"1272",54631,999.784999992698,"sol","sol",1,5,"v5_v4_v3_v2_v1 ",1
"1273",54631,462.42999995593,"fa","fa",1,5,"v5_v4_v3_v2_v1 ",2
"1274",54631,439.315000083297,"mi","mi",1,5,"v5_v4_v3_v2_v1 ",3
"1275",54631,574.220000067726,"re","re",1,5,"v5_v4_v3_v2_v1 ",4
"1276",54631,735.029999981634,"do","1 ",0,5,"v5_v4_v3_v2_v1 ",5
"1277",54631,1061.58500001766,"la","la",1,5,"^6_v4_v3_^4_^5",1
"1278",54631,1006.16500002798,"fa","fa",1,5,"^6_v4_v3_^4_^5",2
"1279",54631,678.655000054277,"mi","mi",1,5,"^6_v4_v3_^4_^5",3
"1280",54631,414.664999931119,"fa","fa",1,5,"^6_v4_v3_^4_^5",4
"1281",54631,502.480000024661,"sol","sol",1,5,"^6_v4_v3_^4_^5",5
"1282",54631,938.269999925978,"sol","sol",1,7,"^5_^6_v5_v4_v3_v2_v1",1
"1283",54631,638.374999980442,"la","la",1,7,"^5_^6_v5_v4_v3_v2_v1",2
"1284",54631,454.954999964684,"sol","sol",1,7,"^5_^6_v5_v4_v3_v2_v1",3
"1285",54631,582.770000095479,"fa","fa",1,7,"^5_^6_v5_v4_v3_v2_v1",4
"1286",54631,463.005000026897,"mi","mi",1,7,"^5_^6_v5_v4_v3_v2_v1",5
"1287",54631,814.245000015944,"re","re",1,7,"^5_^6_v5_v4_v3_v2_v1",6
"1288",54631,525.384999928065,"do","do",1,7,"^5_^6_v5_v4_v3_v2_v1",7
"1289",54631,1027.83500007354,"fa","fa",1,7,"^4_^5_^6_v5_v4_v3_v2",1
"1290",54631,615.125000011176,"sol","sol",1,7,"^4_^5_^6_v5_v4_v3_v2",2
"1291",54631,621.519999927841,"la","la",1,7,"^4_^5_^6_v5_v4_v3_v2",3
"1292",54631,471.350000007078,"sol","sol",1,7,"^4_^5_^6_v5_v4_v3_v2",4
"1293",54631,638.340000063181,"fa","fa",1,7,"^4_^5_^6_v5_v4_v3_v2",5
"1294",54631,503.254999988712,"mi","mi",1,7,"^4_^5_^6_v5_v4_v3_v2",6
"1295",54631,534.540000022389,"re","re",1,7,"^4_^5_^6_v5_v4_v3_v2",7
"1296",54631,991.735000046901,"la","la",1,7,"^6_v5+_v4_^5+_v3_v1_v7-",1
"1297",54631,440.089999930933,"le","le",1,7,"^6_v5+_v4_^5+_v3_v1_v7-",2
"1298",54631,852.725000004284,"fa","fa",1,7,"^6_v5+_v4_^5+_v3_v1_v7-",3
"1299",54631,1183.69000009261,"le","le",1,7,"^6_v5+_v4_^5+_v3_v1_v7-",4
"1300",54631,1054.57000003662,"mi","mi",1,7,"^6_v5+_v4_^5+_v3_v1_v7-",5
"1301",54631,822.494999971241,"do","do",1,7,"^6_v5+_v4_^5+_v3_v1_v7-",6
"1302",54631,655.325000057928,"te","te",1,7,"^6_v5+_v4_^5+_v3_v1_v7-",7
"1303",54631,627.494999906048,"do","do",1,7,"1_^3_v1_^5_v3_v2_^3",1
"1304",54631,854.470000020228,"mi","mi",1,7,"1_^3_v1_^5_v3_v2_^3",2
"1305",54631,670.995000051335,"do","do",1,7,"1_^3_v1_^5_v3_v2_^3",3
"1306",54631,974.630000069737,"sol","sol",1,7,"1_^3_v1_^5_v3_v2_^3",4
"1307",54631,559.039999963716,"mi","mi",1,7,"1_^3_v1_^5_v3_v2_^3",5
"1308",54631,438.139999983832,"re","re",1,7,"1_^3_v1_^5_v3_v2_^3",6
"1309",54631,710.655000060797,"mi","mi",1,7,"1_^3_v1_^5_v3_v2_^3",7
"1310",54631,715.105000068434,"do","do",1,7,"v1_^2_v1_v7_^1_^3_v2",1
"1311",54631,639.029999962077,"re","re",1,7,"v1_^2_v1_v7_^1_^3_v2",2
"1312",54631,503.859999938868,"do","do",1,7,"v1_^2_v1_v7_^1_^3_v2",3
"1313",54631,965.525000006892,"ti","ti",1,7,"v1_^2_v1_v7_^1_^3_v2",4
"1314",54631,926.770000020042,"do","do",1,7,"v1_^2_v1_v7_^1_^3_v2",5
"1315",54631,526.779999956489,"mi","mi",1,7,"v1_^2_v1_v7_^1_^3_v2",6
"1316",54631,622.484999941662,"re","re",1,7,"v1_^2_v1_v7_^1_^3_v2",7
"1317",54631,658.86500000488,"do","do",1,7,"^1_v7_v6_v5_v4_v3_v2",1
"1318",54631,558.895000023767,"ti","ti",1,7,"^1_v7_v6_v5_v4_v3_v2",2
"1319",54631,686.375000048429,"la","la",1,7,"^1_v7_v6_v5_v4_v3_v2",3
"1320",54631,678.485000040382,"sol","sol",1,7,"^1_v7_v6_v5_v4_v3_v2",4
"1321",54631,686.200000112876,"fa","fa",1,7,"^1_v7_v6_v5_v4_v3_v2",5
"1322",54631,742.655000067316,"mi","mi",1,7,"^1_v7_v6_v5_v4_v3_v2",6
"1323",54631,542.855000006966,"re","re",1,7,"^1_v7_v6_v5_v4_v3_v2",7
"1324",54631,984.900000039488,"fa","fa",1,7,"^4_v6-_v5-_^6-_^4_v2-_2-",1
"1325",54631,2846.67999995872,"le","le",1,7,"^4_v6-_v5-_^6-_^4_v2-_2-",2
"1326",54631,550.540000083856,"fi","fi",1,7,"^4_v6-_v5-_^6-_^4_v2-_2-",3
"1327",54631,566.504999995232,"le","le",1,7,"^4_v6-_v5-_^6-_^4_v2-_2-",4
"1328",54631,734.985000104643,"fa","fa",1,7,"^4_v6-_v5-_^6-_^4_v2-_2-",5
"1329",54631,934.149999986403,"ra","ra",1,7,"^4_v6-_v5-_^6-_^4_v2-_2-",6
"1330",54631,351.25499998685,"ra","ra",1,7,"^4_v6-_v5-_^6-_^4_v2-_2-",7
"1331",54631,1323.42000002973,"ti","ti",1,9,"v7_v6_v5_^6_v5_v4_^5_^6_v5",1
"1332",54631,654.859999893233,"la","la",1,9,"v7_v6_v5_^6_v5_v4_^5_^6_v5",2
"1333",54631,478.695000056177,"sol","sol",1,9,"v7_v6_v5_^6_v5_v4_^5_^6_v5",3
"1334",54631,558.570000110194,"fa","la",0,9,"v7_v6_v5_^6_v5_v4_^5_^6_v5",4
"1335",54631,535.30500002671,"sol","sol",1,9,"v7_v6_v5_^6_v5_v4_^5_^6_v5",5
"1336",54631,630.04999991972,"la","fa",0,9,"v7_v6_v5_^6_v5_v4_^5_^6_v5",6
"1337",54631,502.570000011474,"sol","sol",1,9,"v7_v6_v5_^6_v5_v4_^5_^6_v5",7
"1338",54631,486.749999923632,"fa","la",0,9,"v7_v6_v5_^6_v5_v4_^5_^6_v5",8
"1339",54631,478.60499995295,"sol","sol",1,9,"v7_v6_v5_^6_v5_v4_^5_^6_v5",9
"1340",54631,746.260000043549,"ra","re",0,9,"^2_^4_v3_v2_v1_v3_v2+_^3_^5+",1
"1341",54631,902.679999941029,"fa","fa",1,9,"^2_^4_v3_v2_v1_v3_v2+_^3_^5+",2
"1342",54631,1166.70499998145,"mi","mi",1,9,"^2_^4_v3_v2_v1_v3_v2+_^3_^5+",3
"1343",54631,598.805000074208,"re","re",1,9,"^2_^4_v3_v2_v1_v3_v2+_^3_^5+",4
"1344",54631,790.329999988899,"do","do",1,9,"^2_^4_v3_v2_v1_v3_v2+_^3_^5+",5
"1345",54631,1310.96999999136,"mi","mi",1,9,"^2_^4_v3_v2_v1_v3_v2+_^3_^5+",6
"1346",54631,494.940000004135,"me","me",1,9,"^2_^4_v3_v2_v1_v3_v2+_^3_^5+",7
"1347",54631,494.594999938272,"mi","mi",1,9,"^2_^4_v3_v2_v1_v3_v2+_^3_^5+",8
"1348",54631,726.95499996189,"le","le",1,9,"^2_^4_v3_v2_v1_v3_v2+_^3_^5+",9
"1349",54631,1190.42500003707,"re","re",1,9,"^2_^3_^4_^5_^6_v5_v4_v3_v2",1
"1350",54631,590.445000096224,"mi","mi",1,9,"^2_^3_^4_^5_^6_v5_v4_v3_v2",2
"1351",54631,454.909999971278,"fa","fa",1,9,"^2_^3_^4_^5_^6_v5_v4_v3_v2",3
"1352",54631,502.670000074431,"sol","sol",1,9,"^2_^3_^4_^5_^6_v5_v4_v3_v2",4
"1353",54631,494.754999992438,"la","la",1,9,"^2_^3_^4_^5_^6_v5_v4_v3_v2",5
"1354",54631,494.76000003051,"sol","sol",1,9,"^2_^3_^4_^5_^6_v5_v4_v3_v2",6
"1355",54631,583.349999971688,"fa","fa",1,9,"^2_^3_^4_^5_^6_v5_v4_v3_v2",7
"1356",54631,494.714999920689,"mi","mi",1,9,"^2_^3_^4_^5_^6_v5_v4_v3_v2",8
"1357",54631,478.830000036396,"re","re",1,9,"^2_^3_^4_^5_^6_v5_v4_v3_v2",9
"1358",54631,1039.80999998748,"mi","mi",1,9,"^3_^4_^5 _^6_v5_v4_v3_v2_v1",1
"1359",54631,462.595000048168,"fa","fa",1,9,"^3_^4_^5 _^6_v5_v4_v3_v2_v1",2
"1360",54631,599.015000043437,"sol","5 ",0,9,"^3_^4_^5 _^6_v5_v4_v3_v2_v1",3
"1361",54631,471.069999970496,"le","la",0,9,"^3_^4_^5 _^6_v5_v4_v3_v2_v1",4
"1362",54631,134.139999980107,"le","sol",0,9,"^3_^4_^5 _^6_v5_v4_v3_v2_v1",5
"1363",54631,1814.62499999907,"fa","fa",1,9,"^3_^4_^5 _^6_v5_v4_v3_v2_v1",6
"1364",54631,583.325000014156,"mi","mi",1,9,"^3_^4_^5 _^6_v5_v4_v3_v2_v1",7
"1365",54631,509.955000015907,"re","re",1,9,"^3_^4_^5 _^6_v5_v4_v3_v2_v1",8
"1366",54631,639.005000004545,"do","do",1,9,"^3_^4_^5 _^6_v5_v4_v3_v2_v1",9
"1367",54631,1149.57999996841,"mi","mi",1,9,"^3_^4_v2_v7_^1_^2_^3_3_^4",1
"1368",54631,526.584999985062,"fa","fa",1,9,"^3_^4_v2_v7_^1_^2_^3_3_^4",2
"1369",54631,862.755000009201,"re","re",1,9,"^3_^4_v2_v7_^1_^2_^3_3_^4",3
"1370",54631,878.254999988712,"ti","ti",1,9,"^3_^4_v2_v7_^1_^2_^3_3_^4",4
"1371",54631,959.320000023581,"do","do",1,9,"^3_^4_v2_v7_^1_^2_^3_3_^4",5
"1372",54631,558.264999999665,"re","re",1,9,"^3_^4_v2_v7_^1_^2_^3_3_^4",6
"1373",54631,678.71499992907,"mi","mi",1,9,"^3_^4_v2_v7_^1_^2_^3_3_^4",7
"1374",54631,310.020000091754,"mi","mi",1,9,"^3_^4_v2_v7_^1_^2_^3_3_^4",8
"1375",54631,446.654999977909,"fa","fa",1,9,"^3_^4_v2_v7_^1_^2_^3_3_^4",9
"1376",54631,1582.5050000567,"sol","sol",1,9,"v5_v4_v6+_^7_^3+_v3_v2_v5_^4",1
"1377",54631,934.280000044964,"fi","fa",0,9,"v5_v4_v6+_^7_^3+_v3_v2_v5_^4",2
"1378",54631,510.574999963865,"fa","te",0,9,"v5_v4_v6+_^7_^3+_v3_v2_v5_^4",3
"1379",54631,1983.00000000745,"la","ti",0,9,"v5_v4_v6+_^7_^3+_v3_v2_v5_^4",4
"1380",54631,862.345000030473,"mi","3+",0,9,"v5_v4_v6+_^7_^3+_v3_v2_v5_^4",5
"1381",54631,478.995000012219,"me","mi",0,9,"v5_v4_v6+_^7_^3+_v3_v2_v5_^4",6
"1382",54631,622.955000028014,"re","re",1,9,"v5_v4_v6+_^7_^3+_v3_v2_v5_^4",7
"1383",54631,1494.64000004809,"sol","sol",1,9,"v5_v4_v6+_^7_^3+_v3_v2_v5_^4",8
"1384",54631,526.139999972656,"fa","fa",1,9,"v5_v4_v6+_^7_^3+_v3_v2_v5_^4",9
"1385",54631,1006.00499997381,"sol","sol",1,9,"^5_^6_v5_v4_v3_v2_v1_^2_^3",1
"1386",54631,470.839999965392,"la","la",1,9,"^5_^6_v5_v4_v3_v2_v1_^2_^3",2
"1387",54631,517.34000002034,"sol","sol",1,9,"^5_^6_v5_v4_v3_v2_v1_^2_^3",3
"1388",54631,663.550000055693,"fa","fa",1,9,"^5_^6_v5_v4_v3_v2_v1_^2_^3",4
"1389",54631,486.344999982975,"mi","mi",1,9,"^5_^6_v5_v4_v3_v2_v1_^2_^3",5
"1390",54631,694.480000063777,"re","re",1,9,"^5_^6_v5_v4_v3_v2_v1_^2_^3",6
"1391",54631,471.220000064932,"do","do",1,9,"^5_^6_v5_v4_v3_v2_v1_^2_^3",7
"1392",54631,758.78500007093,"re","re",1,9,"^5_^6_v5_v4_v3_v2_v1_^2_^3",8
"1393",54631,718.65500009153,"mi","mi",1,9,"^5_^6_v5_v4_v3_v2_v1_^2_^3",9
"1394",55070,1547.75499994867,"do","do",1,2,"^1_^2+",1
"1395",55070,1030.92000004835,"me","me",1,2,"^1_^2+",2
"1396",55070,5705.54499991704,"mi","mi",1,2,"3_^6",1
"1397",55070,1295.18499993719,"la","la",1,2,"3_^6",2
"1398",55070,1044.03999994975,"re","re",1,2,"v2_v1",1
"1399",55070,665.990000008605,"do","do",1,2,"v2_v1",2
"1400",55070,941.509999916889,"fa","fa",1,2,"v4_v3",1
"1401",55070,783.565000048839,"mi","mi",1,2,"v4_v3",2
"1402",55070,2931.03500001598,"re","re",1,2,"^2_v7-",1
"1403",55070,1011.52000005823,"te","te",1,2,"^2_v7-",2
"1404",55070,1255.14000002295,"mi","mi",1,2,"v3_v2",1
"1405",55070,695.505000068806,"re","re",1,2,"v3_v2",2
"1406",55070,12750.0900001032,"sol","sol",1,2,"v5_v1+",1
"1407",55070,1544.21500000171,"ra","ra",1,2,"v5_v1+",2
"1408",55070,10044.579999987,"mi","mi",1,2,"^3_v4+",1
"1409",55070,977.234999998473,"fi","fi",1,2,"^3_v4+",2
"1410",55070,1596.26499994192,"sol","sol",1,2,"^5_^1+",1
"1411",55070,4563.36000002921,"ra","ra",1,2,"^5_^1+",2
"1412",55070,936.989999958314,"ti","ti",1,2,"v7_v3",1
"1413",55070,971.434999955818,"mi","mi",1,2,"v7_v3",2
"1414",55070,1906.09499998391,"re","re",1,3,"v2_v5_^3",1
"1415",55070,2173.94999996759,"sol","sol",1,3,"v2_v5_^3",2
"1416",55070,976.78500006441,"mi","mi",1,3,"v2_v5_^3",3
"1417",55070,2130.39499998558,"do","do",1,3,"^1_v6_v5+",1
"1418",55070,1183.03499999456,"la","la",1,3,"^1_v6_v5+",2
"1419",55070,996.685000020079,"le","le",1,3,"^1_v6_v5+",3
"1420",55070,1121.09999998938,"fa","fa",1,3,"v4_v3_v2",1
"1421",55070,586.36000007391,"mi","mi",1,3,"v4_v3_v2",2
"1422",55070,566.375000053085,"re","re",1,3,"v4_v3_v2",3
"1423",55070,980.619999929331,"sol","sol",1,3,"v5_v4_v3",1
"1424",55070,743.550000013784,"fa","fa",1,3,"v5_v4_v3",2
"1425",55070,621.980000054464,"mi","mi",1,3,"v5_v4_v3",3
"1426",55070,1259.48999996763,"mi","mi",1,3,"v3_v2_v1",1
"1427",55070,593.55999995023,"re","re",1,3,"v3_v2_v1",2
"1428",55070,554.525000043213,"do","do",1,3,"v3_v2_v1",3
"1429",55070,2646.62999997381,"la","la",1,3,"6_^1_v5",1
"1430",55070,680.845000082627,"do","do",1,3,"6_^1_v5",2
"1431",55070,923.94999996759,"sol","sol",1,3,"6_^1_v5",3
"1432",55070,1144.10000003409,"do","do",1,3,"1_v1+_^2",1
"1433",55070,545.849999994971,"ra","ra",1,3,"1_v1+_^2",2
"1434",55070,501.569999963976,"re","re",1,3,"1_v1+_^2",3
"1435",55070,1428.42500004917,"do","do",1,3,"v1_v7-_^7",1
"1436",55070,560.569999972358,"te","te",1,3,"v1_v7-_^7",2
"1437",55070,484.270000015385,"ti","ti",1,3,"v1_v7-_^7",3
"1438",55070,884.925000020303,"do","do",1,3,"v1_v7-_7-",1
"1439",55070,520.774999982677,"te","te",1,3,"v1_v7-_7-",2
"1440",55070,455.339999985881,"te","te",1,3,"v1_v7-_7-",3
"1441",55070,1962.4499999918,"la","la",1,5,"^6_v4_v3_^4_^5",1
"1442",55070,2042.51499997918,"fa","fa",1,5,"^6_v4_v3_^4_^5",2
"1443",55070,1917.91499999817,"mi","mi",1,5,"^6_v4_v3_^4_^5",3
"1444",55070,907.419999944977,"fa","fa",1,5,"^6_v4_v3_^4_^5",4
"1445",55070,677.454999997281,"sol","sol",1,5,"^6_v4_v3_^4_^5",5
"1446",55070,1457.91499991901,"re","re",1,5,"v2_2_^3_^4_v2",1
"1447",55070,540.259999921545,"re","re",1,5,"v2_2_^3_^4_v2",2
"1448",55070,4714.4500000868,"mi","mi",1,5,"v2_2_^3_^4_v2",3
"1449",55070,537.895000074059,"fa","fa",1,5,"v2_2_^3_^4_v2",4
"1450",55070,658.195000025444,"re","re",1,5,"v2_2_^3_^4_v2",5
"1451",55070,901.229999959469,"sol","sol",1,5,"v5_v4_v3_v2_v1 ",1
"1452",55070,517.070000059903,"fa","fa",1,5,"v5_v4_v3_v2_v1 ",2
"1453",55070,407.009999966249,"mi","mi",1,5,"v5_v4_v3_v2_v1 ",3
"1454",55070,510.965000023134,"re","re",1,5,"v5_v4_v3_v2_v1 ",4
"1455",55070,470.994999981485,"do","1 ",0,5,"v5_v4_v3_v2_v1 ",5
"1456",55070,1248.87500004843,"la","la",1,5,"^6_v5_v4_v3_v2",1
"1457",55070,496.099999989383,"sol","sol",1,5,"^6_v5_v4_v3_v2",2
"1458",55070,509.309999994002,"fa","fa",1,5,"^6_v5_v4_v3_v2",3
"1459",55070,410.524999955669,"mi","mi",1,5,"^6_v5_v4_v3_v2",4
"1460",55070,454.209999996237,"re","re",1,5,"^6_v5_v4_v3_v2",5
"1461",55070,1587.93499995954,"sol","sol",1,5,"v5_^6+_^7_^1_5",1
"1462",55070,527.230000006966,"la","te",0,5,"v5_^6+_^7_^1_5",2
"1463",55070,625.804999959655,"ti","ti",1,5,"v5_^6+_^7_^1_5",3
"1464",55070,634.089999948628,"do","do",1,5,"v5_^6+_^7_^1_5",4
"1465",55070,884.144999901764,"sol","sol",1,5,"v5_^6+_^7_^1_5",5
"1466",55070,1241.72499997076,"sol","sol",1,5,"^5_^6_v5_v4_v3",1
"1467",55070,485.895000048913,"la","la",1,5,"^5_^6_v5_v4_v3",2
"1468",55070,532.400000025518,"sol","sol",1,5,"^5_^6_v5_v4_v3",3
"1469",55070,502.9649999924,"fa","fa",1,5,"^5_^6_v5_v4_v3",4
"1470",55070,455.19999996759,"mi","mi",1,5,"^5_^6_v5_v4_v3",5
"1471",55070,3108.22000005282,"fi","fi",1,5,"v5-_v3_3_^4+_v3",1
"1472",55070,521.730000036769,"mi","mi",1,5,"v5-_v3_3_^4+_v3",2
"1473",55070,483.795000007376,"mi","mi",1,5,"v5-_v3_3_^4+_v3",3
"1474",55070,547.325000050478,"fi","fi",1,5,"v5-_v3_3_^4+_v3",4
"1475",55070,501.359999994747,"mi","mi",1,5,"v5-_v3_3_^4+_v3",5
"1476",55070,961.060000001453,"sol","sol",1,5,"v5_v4_v3_v2_v1",1
"1477",55070,481.489999918267,"fa","fa",1,5,"v5_v4_v3_v2_v1",2
"1478",55070,381.41499995254,"mi","mi",1,5,"v5_v4_v3_v2_v1",3
"1479",55070,510.209999978542,"re","re",1,5,"v5_v4_v3_v2_v1",4
"1480",55070,436.099999933504,"do","do",1,5,"v5_v4_v3_v2_v1",5
"1481",55070,1147.54999999423,"do","do",1,7,"^1_v7_v6_v5_v4_v3_v2",1
"1482",55070,462.815000093542,"ti","ti",1,7,"^1_v7_v6_v5_v4_v3_v2",2
"1483",55070,529.025000054389,"la","la",1,7,"^1_v7_v6_v5_v4_v3_v2",3
"1484",55070,577.095000073314,"sol","sol",1,7,"^1_v7_v6_v5_v4_v3_v2",4
"1485",55070,602.529999916442,"fa","fa",1,7,"^1_v7_v6_v5_v4_v3_v2",5
"1486",55070,425.04999996163,"mi","mi",1,7,"^1_v7_v6_v5_v4_v3_v2",6
"1487",55070,491.784999961965,"re","re",1,7,"^1_v7_v6_v5_v4_v3_v2",7
"1488",55070,6706.66000002529,"fa","fa",1,7,"^4_v6-_v5-_^6-_^4_v2-_2-",1
"1489",55070,1981.98500007857,"la","le",0,7,"^4_v6-_v5-_^6-_^4_v2-_2-",2
"1490",55070,621.060000034049,"la","fi",0,7,"^4_v6-_v5-_^6-_^4_v2-_2-",3
"1491",55070,6206.54499996454,"ti","le",0,7,"^4_v6-_v5-_^6-_^4_v2-_2-",4
"1492",55070,1257.80999998096,"fa","fa",1,7,"^4_v6-_v5-_^6-_^4_v2-_2-",5
"1493",55070,1044.38999993727,"la","ra",0,7,"^4_v6-_v5-_^6-_^4_v2-_2-",6
"1494",55070,500.625000102445,"la","ra",0,7,"^4_v6-_v5-_^6-_^4_v2-_2-",7
"1495",55070,10726.9199999282,"fa","fa",1,7,"^4_^5_^6_v5_v4_v3_v2",1
"1496",55070,527.560000075027,"sol","sol",1,7,"^4_^5_^6_v5_v4_v3_v2",2
"1497",55070,545.180000015534,"la","la",1,7,"^4_^5_^6_v5_v4_v3_v2",3
"1498",55070,450.714999926277,"sol","sol",1,7,"^4_^5_^6_v5_v4_v3_v2",4
"1499",55070,416.710000019521,"fa","fa",1,7,"^4_^5_^6_v5_v4_v3_v2",5
"1500",55070,634.659999981523,"mi","mi",1,7,"^4_^5_^6_v5_v4_v3_v2",6
"1501",55070,518.135000020266,"re","re",1,7,"^4_^5_^6_v5_v4_v3_v2",7
"1502",55070,1360.32000009436,"la","la",1,7,"^6_v5+_v4_^5+_v3_v1_v7-",1
"1503",55070,446.274999994785,"le","le",1,7,"^6_v5+_v4_^5+_v3_v1_v7-",2
"1504",55070,948.375000036322,"sol","fa",0,7,"^6_v5+_v4_^5+_v3_v1_v7-",3
"1505",55070,532.540000043809,"le","le",1,7,"^6_v5+_v4_^5+_v3_v1_v7-",4
"1506",55070,2166.5600000415,"fa","mi",0,7,"^6_v5+_v4_^5+_v3_v1_v7-",5
"1507",55070,1174.58500002977,"me","do",0,7,"^6_v5+_v4_^5+_v3_v1_v7-",6
"1508",55070,516.490000067279,"re","te",0,7,"^6_v5+_v4_^5+_v3_v1_v7-",7
"1509",55070,971.075000008568,"sol","sol",1,7,"^5_^6_v5_v4_v3_v2_v1",1
"1510",55070,492.254999931902,"la","la",1,7,"^5_^6_v5_v4_v3_v2_v1",2
"1511",55070,488.144999952056,"sol","sol",1,7,"^5_^6_v5_v4_v3_v2_v1",3
"1512",55070,504.000000073574,"fa","fa",1,7,"^5_^6_v5_v4_v3_v2_v1",4
"1513",55070,395.870000007562,"mi","mi",1,7,"^5_^6_v5_v4_v3_v2_v1",5
"1514",55070,437.450000084937,"re","re",1,7,"^5_^6_v5_v4_v3_v2_v1",6
"1515",55070,415.62999994494,"do","do",1,7,"^5_^6_v5_v4_v3_v2_v1",7
"1516",55070,1669.04999990948,"do","do",1,7,"v1_^2_v1_v7_^1_^3_v2",1
"1517",55070,601.030000019819,"ra","re",0,7,"v1_^2_v1_v7_^1_^3_v2",2
