"","subject","rt","button_pressed_vector_c","trial_answer","score","trial_length","stimulus","serial_order"
"1",14193,7184.77500003204,"me","re",0,2,"^2_v7-",1
"2",14193,3140.4849999845,"do","te",0,2,"^2_v7-",2
"3",14193,1020.97999997064,"sol","mi",0,2,"v3_v2",1
"4",14193,829.259999971837,"fa","re",0,2,"v3_v2",2
"5",14193,999.730000041425,"re","re",1,2,"v2_v1",1
"6",14193,673.110000032932,"do","do",1,2,"v2_v1",2
"7",14193,10779.5000000037,"ti","fa",0,2,"v4_v3",1
"8",14193,672.925000019372,"la","mi",0,2,"v4_v3",2
"9",14193,9618.32000000775,"fi","mi",0,2,"^3_v4+",1
"10",14193,713.244999989867,"sol","fi",0,2,"^3_v4+",2
"11",14193,4775.41499998048,"me","mi",0,2,"3_^6",1
"12",14193,754.249999996275,"sol","la",0,2,"3_^6",2
"13",14193,2727.94999997318,"do","do",1,2,"^1_^2+",1
"14",14193,3436.6600000076,"me","me",1,2,"^1_^2+",2
"15",14193,5712.99000002816,"fi","sol",0,2,"v5_v1+",1
"16",14193,4931.57499999553,"ra","ra",1,2,"v5_v1+",2
"17",14193,1158.88000000268,"ti","ti",1,2,"v7_v3",1
"18",14193,4006.71500002593,"me","mi",0,2,"v7_v3",2
"19",14193,5561.50000001118,"sol","sol",1,2,"^5_^1+",1
"20",14193,4155.84000001848,"ra","ra",1,2,"^5_^1+",2
"21",14193,2651.19999996573,"fa","fa",1,3,"v4_v3_v2",1
"22",14193,427.629999991506,"mi","mi",1,3,"v4_v3_v2",2
"23",14193,585.505000025034,"re","re",1,3,"v4_v3_v2",3
"24",14193,11423.0599999987,"la","la",1,3,"6_^1_v5",1
"25",14193,914.84500002116,"fa","do",0,3,"6_^1_v5",2
"26",14193,1313.47499997541,"mi","sol",0,3,"6_^1_v5",3
"27",14193,1459.45999998227,"re","re",1,3,"v2_v5_^3",1
"28",14193,3598.31499994919,"fa","sol",0,3,"v2_v5_^3",2
"29",14193,760.295000042766,"mi","mi",1,3,"v2_v5_^3",3
"30",14193,10109.6200000048,"sol","sol",1,3,"v5_v4_v3",1
"31",14193,476.350000012666,"fa","fa",1,3,"v5_v4_v3",2
"32",14193,326.960000034422,"mi","mi",1,3,"v5_v4_v3",3
"33",14193,1173.63999999315,"do","do",1,3,"1_v1+_^2",1
"34",14193,351.244999967515,"ra","ra",1,3,"1_v1+_^2",2
"35",14193,382.720000050962,"re","re",1,3,"1_v1+_^2",3
"36",14193,16409.1650000177,"te","do",0,3,"v1_v7-_^7",1
"37",14193,476.495000012219,"la","te",0,3,"v1_v7-_^7",2
"38",14193,515.494999997318,"ti","ti",1,3,"v1_v7-_^7",3
"39",14193,1469.26499996334,"mi","mi",1,3,"v3_v2_v1",1
"40",14193,654.745000008494,"re","re",1,3,"v3_v2_v1",2
"41",14193,579.42500000447,"do","do",1,3,"v3_v2_v1",3
"42",14193,22765.1800000481,"do","do",1,3,"^1_v6_v5+",1
"43",14193,2150.64000000805,"la","la",1,3,"^1_v6_v5+",2
"44",14193,3657.57999999821,"fa","le",0,3,"^1_v6_v5+",3
"45",14193,1651.00500004739,"do","do",1,3,"v1_v7-_v7-",1
"46",14193,719.409999959171,"te","te",1,3,"v1_v7-_v7-",2
"47",14193,358.07499999553,"te","te",1,3,"v1_v7-_v7-",3
"48",14193,1124.3549999781,"sol","sol",1,5,"v5_v4_v3_v2_v1",1
"49",14193,892.514999955893,"fa","fa",1,5,"v5_v4_v3_v2_v1",2
"50",14193,907.255000028759,"mi","mi",1,5,"v5_v4_v3_v2_v1",3
"51",14193,703.414999999106,"re","re",1,5,"v5_v4_v3_v2_v1",4
"52",14193,701.890000026673,"do","do",1,5,"v5_v4_v3_v2_v1",5
"53",14193,3793.89000002667,"sol","sol",1,5,"v5_^6+_^7_^1_5",1
"54",14193,633.635000031441,"la","te",0,5,"v5_^6+_^7_^1_5",2
"55",14193,737.109999988228,"ti","ti",1,5,"v5_^6+_^7_^1_5",3
"56",14193,372.22500000149,"do","do",1,5,"v5_^6+_^7_^1_5",4
"57",14193,797.384999983013,"sol","sol",1,5,"v5_^6+_^7_^1_5",5
"58",14193,1862.01999999955,"fi","fi",1,5,"v5-_v3_3_^4+_v3",1
"59",14193,2246.54500000179,"fa","mi",0,5,"v5-_v3_3_^4+_v3",2
"60",14193,445.160000003874,"fa","mi",0,5,"v5-_v3_3_^4+_v3",3
"61",14193,498.825000017881,"fi","fi",1,5,"v5-_v3_3_^4+_v3",4
"62",14193,562.78500001505,"fa","mi",0,5,"v5-_v3_3_^4+_v3",5
"63",14193,47014.0450000167,"sol","la",0,5,"^6_v4_v3_^4_^5",1
"64",14193,508.834999985993,"fa","fa",1,5,"^6_v4_v3_^4_^5",2
"65",14193,412.63000003621,"mi","mi",1,5,"^6_v4_v3_^4_^5",3
"66",14193,367.384999990463,"fa","fa",1,5,"^6_v4_v3_^4_^5",4
"67",14193,477.35000000149,"sol","sol",1,5,"^6_v4_v3_^4_^5",5
"68",14193,5171.33500001952,"la","la",1,5,"^6_v5_v4_v3_v2",1
"69",14193,516.430000018328,"sol","sol",1,5,"^6_v5_v4_v3_v2",2
"70",14193,898.690000001341,"fa","fa",1,5,"^6_v5_v4_v3_v2",3
"71",14193,1079.28000000492,"mi","mi",1,5,"^6_v5_v4_v3_v2",4
"72",14193,530.804999988526,"re","re",1,5,"^6_v5_v4_v3_v2",5
"73",14193,1262.74999999255,"sol","sol",1,5,"^5_^6_v5_v4_v3",1
"74",14193,500.195000026375,"la","la",1,5,"^5_^6_v5_v4_v3",2
"75",14193,461.015000008047,"sol","sol",1,5,"^5_^6_v5_v4_v3",3
"76",14193,703.735000044107,"fa","fa",1,5,"^5_^6_v5_v4_v3",4
"77",14193,610.46999995783,"mi","mi",1,5,"^5_^6_v5_v4_v3",5
"78",14193,13585.1700000353,"re","re",1,5,"v2_2_^3_^4_v2",1
"79",14193,610.324999958277,"re","re",1,5,"v2_2_^3_^4_v2",2
"80",14193,633.42500000447,"mi","mi",1,5,"v2_2_^3_^4_v2",3
"81",14193,404.634999983013,"fa","fa",1,5,"v2_2_^3_^4_v2",4
"82",14193,563.189999960363,"re","re",1,5,"v2_2_^3_^4_v2",5
"83",14193,924.54999999702,"sol","sol",1,5,"v5_v4_v3_v2_v1",6
"84",14193,641.160000000149,"fa","fa",1,5,"v5_v4_v3_v2_v1",7
"85",14193,406.81000001356,"mi","mi",1,5,"v5_v4_v3_v2_v1",8
"86",14193,485.654999967664,"re","re",1,5,"v5_v4_v3_v2_v1",9
"87",14193,506.934999953955,"do","do",1,5,"v5_v4_v3_v2_v1",10
"88",14193,12294.75,"le","la",0,7,"^6_v5+_v4_^5+_v3_v1_v7-",1
"89",14193,6230.90999998525,"sol","le",0,7,"^6_v5+_v4_^5+_v3_v1_v7-",2
"90",14193,3435.94499997422,"mi","fa",0,7,"^6_v5+_v4_^5+_v3_v1_v7-",3
"91",14193,867.510000012815,"sol","le",0,7,"^6_v5+_v4_^5+_v3_v1_v7-",4
"92",14193,1518.76999996603,"le","mi",0,7,"^6_v5+_v4_^5+_v3_v1_v7-",5
"93",14193,2002.76999996603,"la","do",0,7,"^6_v5+_v4_^5+_v3_v1_v7-",6
"94",14193,335.094999991357,"le","te",0,7,"^6_v5+_v4_^5+_v3_v1_v7-",7
"95",14193,1300.51499995217,"do","do",1,7,"v1_^2_v1_v7_^1_^3_v2",1
"96",14193,641.124999966472,"re","re",1,7,"v1_^2_v1_v7_^1_^3_v2",2
"97",14193,601.035000000149,"do","do",1,7,"v1_^2_v1_v7_^1_^3_v2",3
"98",14193,774.940000031143,"ti","ti",1,7,"v1_^2_v1_v7_^1_^3_v2",4
"99",14193,781.004999998957,"do","do",1,7,"v1_^2_v1_v7_^1_^3_v2",5
"100",14193,1643.31000001356,"me","mi",0,7,"v1_^2_v1_v7_^1_^3_v2",6
"101",14193,742.619999974966,"re","re",1,7,"v1_^2_v1_v7_^1_^3_v2",7
"102",14193,6315.17999997735,"fa","fa",1,7,"^4_^5_^6_v5_v4_v3_v2",1
"103",14193,779.879999984056,"sol","sol",1,7,"^4_^5_^6_v5_v4_v3_v2",2
"104",14193,1041.36500001326,"la","la",1,7,"^4_^5_^6_v5_v4_v3_v2",3
"105",14193,530.830000005662,"sol","sol",1,7,"^4_^5_^6_v5_v4_v3_v2",4
"106",14193,608.729999978095,"fa","fa",1,7,"^4_^5_^6_v5_v4_v3_v2",5
"107",14193,2043.09500002861,"mi","mi",1,7,"^4_^5_^6_v5_v4_v3_v2",6
"108",14193,1156.91000001878,"fa","re",0,7,"^4_^5_^6_v5_v4_v3_v2",7
"109",14193,962.560000017285,"ti","do",0,7,"^1_v7_v6_v5_v4_v3_v2",1
"110",14193,555.389999993145,"la","ti",0,7,"^1_v7_v6_v5_v4_v3_v2",2
"111",14193,687.009999994189,"sol","la",0,7,"^1_v7_v6_v5_v4_v3_v2",3
"112",14193,624.949999965727,"fa","sol",0,7,"^1_v7_v6_v5_v4_v3_v2",4
"113",14193,697.645000007004,"mi","fa",0,7,"^1_v7_v6_v5_v4_v3_v2",5
"114",14193,678.040000025183,"re","mi",0,7,"^1_v7_v6_v5_v4_v3_v2",6
"115",14193,7955.51000000164,"re","re",1,7,"^1_v7_v6_v5_v4_v3_v2",7
"116",14193,11855.7099999748,"sol","fa",0,7,"^4_v6-_v5-_^6-_^4_v2-_2-",1
"117",14193,1241.63999996334,"mi","le",0,7,"^4_v6-_v5-_^6-_^4_v2-_2-",2
"118",14193,1040.81500001624,"re","fi",0,7,"^4_v6-_v5-_^6-_^4_v2-_2-",3
"119",14193,1047.00499999896,"mi","le",0,7,"^4_v6-_v5-_^6-_^4_v2-_2-",4
"120",14193,3342.28000004217,"sol","fa",0,7,"^4_v6-_v5-_^6-_^4_v2-_2-",5
"121",14193,648.564999982715,"mi","ra",0,7,"^4_v6-_v5-_^6-_^4_v2-_2-",6
"122",14193,203.364999964833,"mi","ra",0,7,"^4_v6-_v5-_^6-_^4_v2-_2-",7
"123",14193,11777.7650000043,"sol","sol",1,7,"^5_^6_v5_v4_v3_v2_v1",1
"124",14193,452.56499998644,"la","la",1,7,"^5_^6_v5_v4_v3_v2_v1",2
"125",14193,436.690000001341,"sol","sol",1,7,"^5_^6_v5_v4_v3_v2_v1",3
"126",14193,602.814999990165,"fa","fa",1,7,"^5_^6_v5_v4_v3_v2_v1",4
"127",14193,406.034999992698,"mi","mi",1,7,"^5_^6_v5_v4_v3_v2_v1",5
"128",14193,796.365000016987,"re","re",1,7,"^5_^6_v5_v4_v3_v2_v1",6
"129",14193,562.925000034273,"do","do",1,7,"^5_^6_v5_v4_v3_v2_v1",7
"130",14193,1513.12999997661,"do","do",1,7,"1_^3_v1_^5_v3_v2_^3",1
"131",14193,3082.66499999538,"mi","mi",1,7,"1_^3_v1_^5_v3_v2_^3",2
"132",14193,931.340000011027,"do","do",1,7,"1_^3_v1_^5_v3_v2_^3",3
"133",14193,2410.6799999699,"sol","sol",1,7,"1_^3_v1_^5_v3_v2_^3",4
"134",14193,2315.854999993,"mi","mi",1,7,"1_^3_v1_^5_v3_v2_^3",5
"135",14193,508.620000038296,"re","re",1,7,"1_^3_v1_^5_v3_v2_^3",6
"136",14193,476.924999967217,"mi","mi",1,7,"1_^3_v1_^5_v3_v2_^3",7
"137",14193,10137.6650000438,"fa","ti",0,9,"v7_v6_v5_^6_v5_v4_^5_^6_v5",1
"138",14193,696,"mi","la",0,9,"v7_v6_v5_^6_v5_v4_^5_^6_v5",2
"139",14193,609.399999961257,"re","sol",0,9,"v7_v6_v5_^6_v5_v4_^5_^6_v5",3
"140",14193,649.2349999547,"mi","la",0,9,"v7_v6_v5_^6_v5_v4_^5_^6_v5",4
"141",14193,673.240000031888,"re","sol",0,9,"v7_v6_v5_^6_v5_v4_^5_^6_v5",5
"142",14193,1157.04999998212,"mi","fa",0,9,"v7_v6_v5_^6_v5_v4_^5_^6_v5",6
"143",14193,562.22000002116,"fa","sol",0,9,"v7_v6_v5_^6_v5_v4_^5_^6_v5",7
"144",14193,804.92500000447,"sol","la",0,9,"v7_v6_v5_^6_v5_v4_^5_^6_v5",8
"145",14193,506.960000030696,"fa","sol",0,9,"v7_v6_v5_^6_v5_v4_^5_^6_v5",9
"146",14193,4107.75999998301,"re","mi",0,9,"^3_^4_v2_v7_^1_^2_^3_3_^4",1
"147",14193,641.144999995828,"mi","fa",0,9,"^3_^4_v2_v7_^1_^2_^3_3_^4",2
"148",14193,6506.3199999854,"re","re",1,9,"^3_^4_v2_v7_^1_^2_^3_3_^4",3
"149",14193,1501.69500003755,"ti","ti",1,9,"^3_^4_v2_v7_^1_^2_^3_3_^4",4
"150",14193,656.125000037253,"do","do",1,9,"^3_^4_v2_v7_^1_^2_^3_3_^4",5
"151",14193,1409.24000000954,"mi","re",0,9,"^3_^4_v2_v7_^1_^2_^3_3_^4",6
"152",14193,609.315000012517,"re","mi",0,9,"^3_^4_v2_v7_^1_^2_^3_3_^4",7
"153",14193,1697.17499998212,"do","mi",0,9,"^3_^4_v2_v7_^1_^2_^3_3_^4",8
"154",14193,610.835000000894,"re","fa",0,9,"^3_^4_v2_v7_^1_^2_^3_3_^4",9
"155",14193,3145.32499998808,"re","re",1,9,"^2_^3_^4_^5_^6_v5_v4_v3_v2",1
"156",14193,656.955000013113,"mi","mi",1,9,"^2_^3_^4_^5_^6_v5_v4_v3_v2",2
"157",14193,741.535000041127,"fa","fa",1,9,"^2_^3_^4_^5_^6_v5_v4_v3_v2",3
"158",14193,530.924999967217,"sol","sol",1,9,"^2_^3_^4_^5_^6_v5_v4_v3_v2",4
"159",14193,993.34500002861,"la","la",1,9,"^2_^3_^4_^5_^6_v5_v4_v3_v2",5
"160",14193,530.875000052154,"sol","sol",1,9,"^2_^3_^4_^5_^6_v5_v4_v3_v2",6
"161",14193,680.975000023842,"fa","fa",1,9,"^2_^3_^4_^5_^6_v5_v4_v3_v2",7
"162",14193,1227.14500001073,"mi","mi",1,9,"^2_^3_^4_^5_^6_v5_v4_v3_v2",8
"163",14193,1893.02499999851,"re","re",1,9,"^2_^3_^4_^5_^6_v5_v4_v3_v2",9
"164",14193,2957.97000005096,"sol","sol",1,9,"^5_^6_v5_v4_v3_v2_v1_^2_^3",1
"165",14193,656.580000013113,"la","la",1,9,"^5_^6_v5_v4_v3_v2_v1_^2_^3",2
"166",14193,547.420000016689,"sol","sol",1,9,"^5_^6_v5_v4_v3_v2_v1_^2_^3",3
"167",14193,648.790000006557,"fa","fa",1,9,"^5_^6_v5_v4_v3_v2_v1_^2_^3",4
"168",14193,608.925000011921,"mi","mi",1,9,"^5_^6_v5_v4_v3_v2_v1_^2_^3",5
"169",14193,640.789999976754,"re","re",1,9,"^5_^6_v5_v4_v3_v2_v1_^2_^3",6
"170",14193,494.040000021458,"do","do",1,9,"^5_^6_v5_v4_v3_v2_v1_^2_^3",7
"171",14193,820.44999999553,"re","re",1,9,"^5_^6_v5_v4_v3_v2_v1_^2_^3",8
"172",14193,625.520000003278,"mi","mi",1,9,"^5_^6_v5_v4_v3_v2_v1_^2_^3",9
"173",14193,8140.01999999583,"mi","re",0,9,"^2_^4_v3_v2_v1_v3_v2+_^3_^5+",1
"174",14193,525.380000002682,"fa","fa",1,9,"^2_^4_v3_v2_v1_v3_v2+_^3_^5+",2
"175",14193,530.005000010133,"mi","mi",1,9,"^2_^4_v3_v2_v1_v3_v2+_^3_^5+",3
"176",14193,608.469999976456,"re","re",1,9,"^2_^4_v3_v2_v1_v3_v2+_^3_^5+",4
"177",14193,1813.91000002623,"do","do",1,9,"^2_^4_v3_v2_v1_v3_v2+_^3_^5+",5
"178",14193,1307.05000000447,"te","mi",0,9,"^2_^4_v3_v2_v1_v3_v2+_^3_^5+",6
"179",14193,985.079999953508,"ti","me",0,9,"^2_^4_v3_v2_v1_v3_v2+_^3_^5+",7
"180",14193,743.035000048578,"la","mi",0,9,"^2_^4_v3_v2_v1_v3_v2+_^3_^5+",8
"181",14193,390.92000003159,"do","le",0,9,"^2_^4_v3_v2_v1_v3_v2+_^3_^5+",9
"182",14193,2800.96500000358,"mi","mi",1,9,"^3_^4_^5_^6_v5_v4_v3_v2_v1",1
"183",14193,633.114999979734,"fa","fa",1,9,"^3_^4_^5_^6_v5_v4_v3_v2_v1",2
"184",14193,689.534999959171,"sol","sol",1,9,"^3_^4_^5_^6_v5_v4_v3_v2_v1",3
"185",14193,1502.24499998242,"la","la",1,9,"^3_^4_^5_^6_v5_v4_v3_v2_v1",4
"186",14193,553.24500001967,"sol","sol",1,9,"^3_^4_^5_^6_v5_v4_v3_v2_v1",5
"187",14193,1047.53499996662,"fa","fa",1,9,"^3_^4_^5_^6_v5_v4_v3_v2_v1",6
"188",14193,476.844999998808,"mi","mi",1,9,"^3_^4_^5_^6_v5_v4_v3_v2_v1",7
"189",14193,719.974999956787,"re","re",1,9,"^3_^4_^5_^6_v5_v4_v3_v2_v1",8
"190",14193,602.119999989867,"do","do",1,9,"^3_^4_^5_^6_v5_v4_v3_v2_v1",9
"191",14193,6322.61000002921,"sol","sol",1,9,"v5_v4_v6+_^7_^3+_v3_v2_v5_^4",1
"192",14193,1274.40500003099,"la","fa",0,9,"v5_v4_v6+_^7_^3+_v3_v2_v5_^4",2
"193",14193,570.880000017583,"sol","te",0,9,"v5_v4_v6+_^7_^3+_v3_v2_v5_^4",3
"194",14193,860.760000012815,"fa","ti",0,9,"v5_v4_v6+_^7_^3+_v3_v2_v5_^4",4
"195",14193,1353.59499999136,"me","mi",0,9,"v5_v4_v6+_^7_^3+_v3_v2_v5_^4",5
"196",14193,1204.65000002831,"re","mi",0,9,"v5_v4_v6+_^7_^3+_v3_v2_v5_^4",6
"197",14193,1831.31999999285,"la","re",0,9,"v5_v4_v6+_^7_^3+_v3_v2_v5_^4",7
"198",14193,2175.34499999881,"ti","sol",0,9,"v5_v4_v6+_^7_^3+_v3_v2_v5_^4",8
"199",14193,4860.68499996513,"mi","fa",0,9,"v5_v4_v6+_^7_^3+_v3_v2_v5_^4",9
"200",22189,8895.46499995049,"re","mi",0,2,"3_^6",1
"201",22189,5564.97000006493,"sol","la",0,2,"3_^6",2
"202",22189,14950.9799999651,"mi","mi",1,2,"v3_v2",1
"203",22189,903.240000014193,"re","re",1,2,"v3_v2",2
"204",22189,3822.56999996025,"do","re",0,2,"^2_v7-",1
"205",22189,17797.6100000087,"sol","te",0,2,"^2_v7-",2
"206",22189,11954.9549999647,"la","sol",0,2,"v5_v1+",1
"207",22189,19848.2749999966,"re","ra",0,2,"v5_v1+",2
"208",22189,11023.0549999978,"re","sol",0,2,"^5_^1+",1
"209",22189,3861.91500001587,"le","ra",0,2,"^5_^1+",2
"210",22189,34501.569999964,"le","mi",0,2,"^3_v4+",1
"211",22189,840.169999981299,"la","fi",0,2,"^3_v4+",2
"212",22189,27795.8050000016,"fa","fa",1,2,"v4_v3",1
"213",22189,5164.21499999706,"mi","mi",1,2,"v4_v3",2
"214",22189,14180.534999934,"fi","ti",0,2,"v7_v3",1
"215",22189,1671.36999999639,"ra","mi",0,2,"v7_v3",2
"216",22189,1553.31499991007,"do","do",1,2,"^1_^2+",1
"217",22189,5882.40000000224,"me","me",1,2,"^1_^2+",2
"218",22189,3452.98499998171,"ra","re",0,2,"v2_v1",1
"219",22189,2218.28999998979,"ti","do",0,2,"v2_v1",2
"220",22189,11433.480000007,"do","do",1,3,"^1_v6_v5+",1
"221",22189,8025.44999995735,"te","la",0,3,"^1_v6_v5+",2
"222",22189,1239.09500008449,"la","le",0,3,"^1_v6_v5+",3
"223",22189,13680.8650000021,"do","do",1,3,"v1_v7-_^7",1
"224",22189,2585.59999999125,"la","te",0,3,"v1_v7-_^7",2
"225",22189,605.045000091195,"te","ti",0,3,"v1_v7-_^7",3
"226",22189,8118.00999997649,"re","do",0,3,"1_v1+_^2",1
"227",22189,520.549999899231,"me","ra",0,3,"1_v1+_^2",2
"228",22189,540.440000011586,"mi","re",0,3,"1_v1+_^2",3
"229",22189,22899.3300000438,"do","la",0,3,"6_^1_v5",1
"230",22189,4531.33999998681,"mi","do",0,3,"6_^1_v5",2
"231",22189,563.419999903999,"fa","sol",0,3,"6_^1_v5",3
"232",22189,19301.7100000288,"do","re",0,3,"v2_v5_^3",1
"233",22189,1512.86500005517,"sol","sol",1,3,"v2_v5_^3",2
"234",22189,1262.89999997243,"mi","mi",1,3,"v2_v5_^3",3
"235",22189,21087.5450000167,"fa","fa",1,3,"v4_v3_v2",1
"236",22189,738.060000003316,"mi","mi",1,3,"v4_v3_v2",2
"237",22189,711.24500001315,"re","re",1,3,"v4_v3_v2",3
"238",22189,2030.03999998327,"mi","mi",1,3,"v3_v2_v1",1
"239",22189,660.885000019334,"re","re",1,3,"v3_v2_v1",2
"240",22189,767.529999953695,"do","do",1,3,"v3_v2_v1",3
"241",22189,11262.1250000084,"sol","sol",1,3,"v5_v4_v3",1
"242",22189,1684.44499990437,"fa","fa",1,3,"v5_v4_v3",2
"243",22189,1593.24000007473,"mi","mi",1,3,"v5_v4_v3",3
"244",22189,27495.0749999844,"me","do",0,3,"v1_v7-_v7-",1
"245",22189,1305.92499999329,"do","te",0,3,"v1_v7-_v7-",2
"246",22189,611.890000058338,"do","te",0,3,"v1_v7-_v7-",3
"247",22189,17878.7399999565,"me","fi",0,5,"v5-_v3_3_^4+_v3",1
"248",22189,1011.6299999645,"re","mi",0,5,"v5-_v3_3_^4+_v3",2
"249",22189,454.524999950081,"re","mi",0,5,"v5-_v3_3_^4+_v3",3
"250",22189,561.744999955408,"me","fi",0,5,"v5-_v3_3_^4+_v3",4
"251",22189,575.454999925569,"re","mi",0,5,"v5-_v3_3_^4+_v3",5
"252",22189,2341.86500008218,"sol","sol",1,5,"v5_v4_v3_v2_v1",1
"253",22189,941.684999968857,"fa","fa",1,5,"v5_v4_v3_v2_v1",2
"254",22189,940.760000026785,"mi","mi",1,5,"v5_v4_v3_v2_v1",3
"255",22189,833.059999975376,"re","re",1,5,"v5_v4_v3_v2_v1",4
"256",22189,928.550000069663,"do","do",1,5,"v5_v4_v3_v2_v1",5
"257",22189,14346.8700000085,"sol","sol",1,5,"^5_^6_v5_v4_v3",1
"258",22189,1563.44000005629,"fa","la",0,5,"^5_^6_v5_v4_v3",2
"259",22189,3259.84499999322,"sol","sol",1,5,"^5_^6_v5_v4_v3",3
"260",22189,952.129999990575,"fa","fa",1,5,"^5_^6_v5_v4_v3",4
"261",22189,540.670000016689,"mi","mi",1,5,"^5_^6_v5_v4_v3",5
"262",22189,2231.68000008445,"sol","sol",1,5,"v5_v4_v3_v2_v1",6
"263",22189,1026.91000001505,"fa","fa",1,5,"v5_v4_v3_v2_v1",7
"264",22189,561.814999906346,"mi","mi",1,5,"v5_v4_v3_v2_v1",8
"265",22189,661.784999887459,"re","re",1,5,"v5_v4_v3_v2_v1",9
"266",22189,755.284999962896,"do","do",1,5,"v5_v4_v3_v2_v1",10
"267",22189,6107.90999990422,"ra","re",0,5,"v2_2_^3_^4_v2",1
"268",22189,765.485000098124,"ra","re",0,5,"v2_2_^3_^4_v2",2
"269",22189,5651.37500001583,"me","mi",0,5,"v2_2_^3_^4_v2",3
"270",22189,6587.65999996103,"mi","fa",0,5,"v2_2_^3_^4_v2",4
"271",22189,5072.71000009496,"ra","re",0,5,"v2_2_^3_^4_v2",5
"272",22189,22689.1900000628,"la","la",1,5,"^6_v4_v3_^4_^5",1
"273",22189,1649.5049999794,"sol","fa",0,5,"^6_v4_v3_^4_^5",2
"274",22189,1248.54499998037,"fa","mi",0,5,"^6_v4_v3_^4_^5",3
"275",22189,1097.84000006039,"mi","fa",0,5,"^6_v4_v3_^4_^5",4
"276",22189,1564.49500005692,"me","sol",0,5,"^6_v4_v3_^4_^5",5
"277",22189,23778.5999999614,"la","la",1,5,"^6_v5_v4_v3_v2",1
"278",22189,832.554999971762,"sol","sol",1,5,"^6_v5_v4_v3_v2",2
"279",22189,740.044999984093,"fa","fa",1,5,"^6_v5_v4_v3_v2",3
"280",22189,1665.06999998819,"mi","mi",1,5,"^6_v5_v4_v3_v2",4
"281",22189,948.949999990873,"re","re",1,5,"^6_v5_v4_v3_v2",5
"282",22189,16619.2049999954,"fa","sol",0,5,"v5_^6+_^7_^1_5",1
"283",22189,346.209999988787,"fa","te",0,5,"v5_^6+_^7_^1_5",2
"284",22189,1399.92499991786,"sol","ti",0,5,"v5_^6+_^7_^1_5",3
"285",22189,5701.2050000485,"le","do",0,5,"v5_^6+_^7_^1_5",4
"286",22189,810.749999945983,"fa","sol",0,5,"v5_^6+_^7_^1_5",5
"287",22189,18177.7800000273,"fa","la",0,7,"^6_v5+_v4_^5+_v3_v1_v7-",1
"288",22189,1141.13000000361,"me","le",0,7,"^6_v5+_v4_^5+_v3_v1_v7-",2
"289",22189,2771.7699999921,"re","fa",0,7,"^6_v5+_v4_^5+_v3_v1_v7-",3
"290",22189,927.219999954104,"do","le",0,7,"^6_v5+_v4_^5+_v3_v1_v7-",4
"291",22189,2352.04500006512,"la","mi",0,7,"^6_v5+_v4_^5+_v3_v1_v7-",5
"292",22189,694.825000013225,"ti","do",0,7,"^6_v5+_v4_^5+_v3_v1_v7-",6
"293",22189,1105.01499997918,"la","te",0,7,"^6_v5+_v4_^5+_v3_v1_v7-",7
"294",22189,5405.69000004325,"re","fa",0,7,"^4_^5_^6_v5_v4_v3_v2",1
"295",22189,838.909999933094,"mi","sol",0,7,"^4_^5_^6_v5_v4_v3_v2",2
"296",22189,669.484999962151,"re","la",0,7,"^4_^5_^6_v5_v4_v3_v2",3
"297",22189,654.53499997966,"do","sol",0,7,"^4_^5_^6_v5_v4_v3_v2",4
"298",22189,1628.34000005387,"ti","fa",0,7,"^4_^5_^6_v5_v4_v3_v2",5
"299",22189,583.220000029542,"la","mi",0,7,"^4_^5_^6_v5_v4_v3_v2",6
"300",22189,1391.98499999475,"sol","re",0,7,"^4_^5_^6_v5_v4_v3_v2",7
"301",22189,1264.96999990195,"do","do",1,7,"^1_v7_v6_v5_v4_v3_v2",1
"302",22189,669.755000039004,"ti","ti",1,7,"^1_v7_v6_v5_v4_v3_v2",2
"303",22189,633.085000095889,"la","la",1,7,"^1_v7_v6_v5_v4_v3_v2",3
"304",22189,632.759999949485,"sol","sol",1,7,"^1_v7_v6_v5_v4_v3_v2",4
"305",22189,762.204999919049,"fa","fa",1,7,"^1_v7_v6_v5_v4_v3_v2",5
"306",22189,690.850000013597,"mi","mi",1,7,"^1_v7_v6_v5_v4_v3_v2",6
"307",22189,2366.8399999151,"re","re",1,7,"^1_v7_v6_v5_v4_v3_v2",7
"308",22189,4479.25500001293,"la","fa",0,7,"^4_v6-_v5-_^6-_^4_v2-_2-",1
"309",22189,976.165000000037,"re","le",0,7,"^4_v6-_v5-_^6-_^4_v2-_2-",2
"310",22189,796.400000108406,"mi","fi",0,7,"^4_v6-_v5-_^6-_^4_v2-_2-",3
"311",22189,1891.44500007387,"re","le",0,7,"^4_v6-_v5-_^6-_^4_v2-_2-",4
"312",22189,1048.56999998447,"la","fa",0,7,"^4_v6-_v5-_^6-_^4_v2-_2-",5
"313",22189,1479.50499993749,"fi","ra",0,7,"^4_v6-_v5-_^6-_^4_v2-_2-",6
"314",22189,517.735000001267,"fi","ra",0,7,"^4_v6-_v5-_^6-_^4_v2-_2-",7
"315",22189,1461.81000000797,"me","do",0,7,"1_^3_v1_^5_v3_v2_^3",1
"316",22189,1173.13500004821,"ti","mi",0,7,"1_^3_v1_^5_v3_v2_^3",2
"317",22189,765.654999995604,"le","do",0,7,"1_^3_v1_^5_v3_v2_^3",3
"318",22189,856.904999935068,"fi","sol",0,7,"1_^3_v1_^5_v3_v2_^3",4
"319",22189,667.765000020154,"le","mi",0,7,"1_^3_v1_^5_v3_v2_^3",5
"320",22189,2423.53999998886,"fi","re",0,7,"1_^3_v1_^5_v3_v2_^3",6
"321",22189,1701.20999997016,"te","mi",0,7,"1_^3_v1_^5_v3_v2_^3",7
"322",22189,10592.1700000763,"sol","sol",1,7,"^5_^6_v5_v4_v3_v2_v1",1
"323",22189,901.169999968261,"la","la",1,7,"^5_^6_v5_v4_v3_v2_v1",2
"324",22189,675.879999995232,"sol","sol",1,7,"^5_^6_v5_v4_v3_v2_v1",3
"325",22189,713.034999906085,"fa","fa",1,7,"^5_^6_v5_v4_v3_v2_v1",4
"326",22189,1033.70000002906,"re","mi",0,7,"^5_^6_v5_v4_v3_v2_v1",5
"327",22189,791.489999974146,"do","re",0,7,"^5_^6_v5_v4_v3_v2_v1",6
"328",22189,626.784999971278,"do","do",1,7,"^5_^6_v5_v4_v3_v2_v1",7
"329",22189,5036.6300001042,"te","do",0,7,"v1_^2_v1_v7_^1_^3_v2",1
"330",22189,1236.74000008032,"do","re",0,7,"v1_^2_v1_v7_^1_^3_v2",2
"331",22189,559.705000021495,"te","do",0,7,"v1_^2_v1_v7_^1_^3_v2",3
"332",22189,641.735000070184,"le","ti",0,7,"v1_^2_v1_v7_^1_^3_v2",4
"333",22189,933.184999972582,"fa","do",0,7,"v1_^2_v1_v7_^1_^3_v2",5
"334",22189,740.519999992102,"le","mi",0,7,"v1_^2_v1_v7_^1_^3_v2",6
"335",22189,1491.50999996345,"sol","re",0,7,"v1_^2_v1_v7_^1_^3_v2",7
"336",22189,4003.35999997333,"do","ti",0,9,"v7_v6_v5_^6_v5_v4_^5_^6_v5",1
"337",22189,2315.16500003636,"te","la",0,9,"v7_v6_v5_^6_v5_v4_^5_^6_v5",2
"338",22189,1522.62000006158,"do","sol",0,9,"v7_v6_v5_^6_v5_v4_^5_^6_v5",3
"339",22189,696.409999975003,"te","la",0,9,"v7_v6_v5_^6_v5_v4_^5_^6_v5",4
"340",22189,912.600000039674,"le","sol",0,9,"v7_v6_v5_^6_v5_v4_^5_^6_v5",5
"341",22189,1699.3149999762,"fi","fa",0,9,"v7_v6_v5_^6_v5_v4_^5_^6_v5",6
"342",22189,861.83000006713,"le","sol",0,9,"v7_v6_v5_^6_v5_v4_^5_^6_v5",7
"343",22189,1078.28500005417,"fi","la",0,9,"v7_v6_v5_^6_v5_v4_^5_^6_v5",8
"344",22189,769.854999962263,"fa","sol",0,9,"v7_v6_v5_^6_v5_v4_^5_^6_v5",9
"345",22189,2716.04500000831,"fa","mi",0,9,"^3_^4_v2_v7_^1_^2_^3_3_^4",1
"346",22189,772.035000030883,"sol","fa",0,9,"^3_^4_v2_v7_^1_^2_^3_3_^4",2
"347",22189,574.619999970309,"fa","re",0,9,"^3_^4_v2_v7_^1_^2_^3_3_^4",3
"348",22189,2051.46499990951,"re","ti",0,9,"^3_^4_v2_v7_^1_^2_^3_3_^4",4
"349",22189,1907.04499999993,"mi","do",0,9,"^3_^4_v2_v7_^1_^2_^3_3_^4",5
"350",22189,577.580000041053,"re","re",1,9,"^3_^4_v2_v7_^1_^2_^3_3_^4",6
"351",22189,661.730000050738,"do","mi",0,9,"^3_^4_v2_v7_^1_^2_^3_3_^4",7
"352",22189,551.74500006251,"re","mi",0,9,"^3_^4_v2_v7_^1_^2_^3_3_^4",8
"353",22189,790.299999993294,"mi","fa",0,9,"^3_^4_v2_v7_^1_^2_^3_3_^4",9
"354",22189,1363.43500006478,"do","sol",0,9,"v5_v4_v6+_^7_^3+_v3_v2_v5_^4",1
"355",22189,531.929999939166,"ti","fa",0,9,"v5_v4_v6+_^7_^3+_v3_v2_v5_^4",2
"356",22189,809.149999986403,"fi","te",0,9,"v5_v4_v6+_^7_^3+_v3_v2_v5_^4",3
"357",22189,1327.47000001837,"te","ti",0,9,"v5_v4_v6+_^7_^3+_v3_v2_v5_^4",4
"358",22189,746.805000002496,"le","mi",0,9,"v5_v4_v6+_^7_^3+_v3_v2_v5_^4",5
"359",22189,1071.01499999408,"me","mi",0,9,"v5_v4_v6+_^7_^3+_v3_v2_v5_^4",6
"360",22189,1306.37499992736,"sol","re",0,9,"v5_v4_v6+_^7_^3+_v3_v2_v5_^4",7
"361",22189,554.810000001453,"fi","sol",0,9,"v5_v4_v6+_^7_^3+_v3_v2_v5_^4",8
"362",22189,1213.23999995366,"re","fa",0,9,"v5_v4_v6+_^7_^3+_v3_v2_v5_^4",9
"363",22189,1651.25999995507,"re","re",1,9,"^2_^4_v3_v2_v1_v3_v2+_^3_^5+",1
"364",22189,814.110000035726,"te","fa",0,9,"^2_^4_v3_v2_v1_v3_v2+_^3_^5+",2
"365",22189,1083.23500002734,"la","mi",0,9,"^2_^4_v3_v2_v1_v3_v2+_^3_^5+",3
"366",22189,1700.52499999292,"sol","re",0,9,"^2_^4_v3_v2_v1_v3_v2+_^3_^5+",4
"367",22189,925.979999941774,"fa","do",0,9,"^2_^4_v3_v2_v1_v3_v2+_^3_^5+",5
"368",22189,675.285000004806,"le","mi",0,9,"^2_^4_v3_v2_v1_v3_v2+_^3_^5+",6
"369",22189,625.024999957532,"sol","me",0,9,"^2_^4_v3_v2_v1_v3_v2+_^3_^5+",7
"370",22189,648.010000004433,"mi","mi",1,9,"^2_^4_v3_v2_v1_v3_v2+_^3_^5+",8
"371",22189,857.390000019222,"re","le",0,9,"^2_^4_v3_v2_v1_v3_v2+_^3_^5+",9
"372",22189,2410.96999996807,"sol","sol",1,9,"^5_^6_v5_v4_v3_v2_v1_^2_^3",1
"373",22189,590.059999958612,"la","la",1,9,"^5_^6_v5_v4_v3_v2_v1_^2_^3",2
"374",22189,1040.76499992516,"sol","sol",1,9,"^5_^6_v5_v4_v3_v2_v1_^2_^3",3
"375",22189,740.434999926947,"fa","fa",1,9,"^5_^6_v5_v4_v3_v2_v1_^2_^3",4
"376",22189,741.049999953248,"mi","mi",1,9,"^5_^6_v5_v4_v3_v2_v1_^2_^3",5
"377",22189,848.35500002373,"re","re",1,9,"^5_^6_v5_v4_v3_v2_v1_^2_^3",6
"378",22189,1592.79499994591,"do","do",1,9,"^5_^6_v5_v4_v3_v2_v1_^2_^3",7
"379",22189,725.609999964945,"re","re",1,9,"^5_^6_v5_v4_v3_v2_v1_^2_^3",8
"380",22189,683.770000003278,"mi","mi",1,9,"^5_^6_v5_v4_v3_v2_v1_^2_^3",9
"381",22189,16950.130000012,"do","re",0,9,"^2_^3_^4_^5_^6_v5_v4_v3_v2",1
"382",22189,655.660000047646,"re","mi",0,9,"^2_^3_^4_^5_^6_v5_v4_v3_v2",2
"383",22189,510.540000046603,"me","fa",0,9,"^2_^3_^4_^5_^6_v5_v4_v3_v2",3
"384",22189,719.144999980927,"fa","sol",0,9,"^2_^3_^4_^5_^6_v5_v4_v3_v2",4
"385",22189,770.295000053011,"sol","la",0,9,"^2_^3_^4_^5_^6_v5_v4_v3_v2",5
"386",22189,740.699999965727,"fa","sol",0,9,"^2_^3_^4_^5_^6_v5_v4_v3_v2",6
"387",22189,733.224999974482,"me","fa",0,9,"^2_^3_^4_^5_^6_v5_v4_v3_v2",7
"388",22189,612.959999940358,"re","mi",0,9,"^2_^3_^4_^5_^6_v5_v4_v3_v2",8
"389",22189,1262.88000005297,"do","re",0,9,"^2_^3_^4_^5_^6_v5_v4_v3_v2",9
"390",22189,2581.14499994554,"fa","mi",0,9,"^3_^4_^5_^6_v5_v4_v3_v2_v1",1
"391",22189,3253.81999998353,"sol","fa",0,9,"^3_^4_^5_^6_v5_v4_v3_v2_v1",2
"392",22189,1005.34999999218,"fa","sol",0,9,"^3_^4_^5_^6_v5_v4_v3_v2_v1",3
"393",22189,1320.4600000754,"mi","la",0,9,"^3_^4_^5_^6_v5_v4_v3_v2_v1",4
"394",22189,915.860000066459,"re","sol",0,9,"^3_^4_^5_^6_v5_v4_v3_v2_v1",5
"395",22189,2889.36999998987,"do","fa",0,9,"^3_^4_^5_^6_v5_v4_v3_v2_v1",6
"396",22189,1055.64499995671,"la","mi",0,9,"^3_^4_^5_^6_v5_v4_v3_v2_v1",7
"397",22189,776.799999992363,"sol","re",0,9,"^3_^4_^5_^6_v5_v4_v3_v2_v1",8
"398",22189,590.304999961518,"la","do",0,9,"^3_^4_^5_^6_v5_v4_v3_v2_v1",9
"399",31141,1300,"fa","fa",1,2,"v4_v3",1
"400",31141,595,"mi","mi",1,2,"v4_v3",2
"401",31141,1353,"mi","mi",1,2,"3_^6",1
"402",31141,832,"la","la",1,2,"3_^6",2
"403",31141,1259,"mi","mi",1,2,"^3_v4+",1
"404",31141,675,"fi","fi",1,2,"^3_v4+",2
"405",31141,1239,"re","re",1,2,"v2_v1",1
"406",31141,774,"do","do",1,2,"v2_v1",2
"407",31141,1673,"mi","mi",1,2,"v3_v2",1
"408",31141,786,"re","re",1,2,"v3_v2",2
"409",31141,1496,"sol","sol",1,2,"^5_^1+",1
"410",31141,853,"ra","ra",1,2,"^5_^1+",2
"411",31141,2154,"ti","ti",1,2,"v7_v3",1
"412",31141,1270,"mi","mi",1,2,"v7_v3",2
"413",31141,873,"do","do",1,2,"^1_^2+",1
"414",31141,854,"me","me",1,2,"^1_^2+",2
"415",31141,2900,"sol","sol",1,2,"v5_v1+",1
"416",31141,1293,"ra","ra",1,2,"v5_v1+",2
"417",31141,1465,"re","re",1,2,"^2_v7-",1
"418",31141,1090,"te","te",1,2,"^2_v7-",2
"419",31141,986,"do","do",1,3,"v1_v7-_v7-",1
"420",31141,1336,"te","te",1,3,"v1_v7-_v7-",2
"421",31141,483,"te","te",1,3,"v1_v7-_v7-",3
"422",31141,1801,"la","la",1,3,"6_^1_v5",1
"423",31141,887,"do","do",1,3,"6_^1_v5",2
"424",31141,910,"sol","sol",1,3,"6_^1_v5",3
"425",31141,938,"do","do",1,3,"v1_v7-_^7",1
"426",31141,674,"te","te",1,3,"v1_v7-_^7",2
"427",31141,1045,"ti","ti",1,3,"v1_v7-_^7",3
"428",31141,1239,"mi","mi",1,3,"v3_v2_v1",1
"429",31141,730,"re","re",1,3,"v3_v2_v1",2
"430",31141,640,"do","do",1,3,"v3_v2_v1",3
"431",31141,1270,"fa","fa",1,3,"v4_v3_v2",1
"432",31141,505,"mi","mi",1,3,"v4_v3_v2",2
"433",31141,730,"re","re",1,3,"v4_v3_v2",3
"434",31141,1617,"do","do",1,3,"^1_v6_v5+",1
"435",31141,877,"la","la",1,3,"^1_v6_v5+",2
"436",31141,674,"le","le",1,3,"^1_v6_v5+",3
"437",31141,1324,"sol","sol",1,3,"v5_v4_v3",1
"438",31141,696,"fa","fa",1,3,"v5_v4_v3",2
"439",31141,527,"mi","mi",1,3,"v5_v4_v3",3
"440",31141,2989,"do","do",1,3,"1_v1+_^2",1
"441",31141,1080,"ra","ra",1,3,"1_v1+_^2",2
"442",31141,1057,"re","re",1,3,"1_v1+_^2",3
"443",31141,1616,"re","re",1,3,"v2_v5_^3",1
"444",31141,1044,"sol","sol",1,3,"v2_v5_^3",2
"445",31141,1260,"mi","mi",1,3,"v2_v5_^3",3
"446",31141,1318,"la","la",1,5,"^6_v5_v4_v3_v2",1
"447",31141,595,"sol","sol",1,5,"^6_v5_v4_v3_v2",2
"448",31141,617,"fa","fa",1,5,"^6_v5_v4_v3_v2",3
"449",31141,628,"mi","mi",1,5,"^6_v5_v4_v3_v2",4
"450",31141,628,"re","re",1,5,"^6_v5_v4_v3_v2",5
"451",31141,1224,"sol","sol",1,5,"v5_v4_v3_v2_v1",1
"452",31141,505,"fa","fa",1,5,"v5_v4_v3_v2_v1",2
"453",31141,662,"mi","mi",1,5,"v5_v4_v3_v2_v1",3
"454",31141,483,"re","re",1,5,"v5_v4_v3_v2_v1",4
"455",31141,449,"do","do",1,5,"v5_v4_v3_v2_v1",5
"456",31141,1166,"sol","sol",1,5,"^5_^6_v5_v4_v3",1
"457",31141,550,"la","la",1,5,"^5_^6_v5_v4_v3",2
"458",31141,764,"sol","sol",1,5,"^5_^6_v5_v4_v3",3
"459",31141,641,"fa","fa",1,5,"^5_^6_v5_v4_v3",4
"460",31141,798,"mi","mi",1,5,"^5_^6_v5_v4_v3",5
"461",31141,1112,"sol","sol",1,5,"v5_v4_v3_v2_v1",6
"462",31141,618,"fa","fa",1,5,"v5_v4_v3_v2_v1",7
"463",31141,495,"mi","mi",1,5,"v5_v4_v3_v2_v1",8
"464",31141,697,"re","re",1,5,"v5_v4_v3_v2_v1",9
"465",31141,539,"do","do",1,5,"v5_v4_v3_v2_v1",10
"466",31141,1867,"fi","fi",1,5,"v5-_v3_3_^4+_v3",1
"467",31141,752,"mi","mi",1,5,"v5-_v3_3_^4+_v3",2
"468",31141,482,"mi","mi",1,5,"v5-_v3_3_^4+_v3",3
"469",31141,765,"fi","fi",1,5,"v5-_v3_3_^4+_v3",4
"470",31141,890,"mi","mi",1,5,"v5-_v3_3_^4+_v3",5
"471",31141,1029,"re","re",1,5,"v2_2_^3_^4_v2",1
"472",31141,606,"re","re",1,5,"v2_2_^3_^4_v2",2
"473",31141,1236,"mi","mi",1,5,"v2_2_^3_^4_v2",3
"474",31141,584,"fa","fa",1,5,"v2_2_^3_^4_v2",4
"475",31141,753,"re","re",1,5,"v2_2_^3_^4_v2",5
"476",31141,1164,"sol","sol",1,5,"v5_^6+_^7_^1_5",1
"477",31141,629,"la","te",0,5,"v5_^6+_^7_^1_5",2
"478",31141,641,"ti","ti",1,5,"v5_^6+_^7_^1_5",3
"479",31141,550,"do","do",1,5,"v5_^6+_^7_^1_5",4
"480",31141,966,"sol","sol",1,5,"v5_^6+_^7_^1_5",5
"481",31141,1908,"la","la",1,5,"^6_v4_v3_^4_^5",1
"482",31141,933,"fa","fa",1,5,"^6_v4_v3_^4_^5",2
"483",31141,674,"mi","mi",1,5,"^6_v4_v3_^4_^5",3
"484",31141,674,"fa","fa",1,5,"^6_v4_v3_^4_^5",4
"485",31141,696,"sol","sol",1,5,"^6_v4_v3_^4_^5",5
"486",31141,1111,"sol","sol",1,7,"^5_^6_v5_v4_v3_v2_v1",1
"487",31141,608,"la","la",1,7,"^5_^6_v5_v4_v3_v2_v1",2
"488",31141,695,"sol","sol",1,7,"^5_^6_v5_v4_v3_v2_v1",3
"489",31141,573,"fa","fa",1,7,"^5_^6_v5_v4_v3_v2_v1",4
"490",31141,505,"mi","mi",1,7,"^5_^6_v5_v4_v3_v2_v1",5
"491",31141,629,"re","re",1,7,"^5_^6_v5_v4_v3_v2_v1",6
"492",31141,483,"do","do",1,7,"^5_^6_v5_v4_v3_v2_v1",7
"493",31141,1486,"do","do",1,7,"1_^3_v1_^5_v3_v2_^3",1
"494",31141,1022,"re","mi",0,7,"1_^3_v1_^5_v3_v2_^3",2
"495",31141,664,"do","do",1,7,"1_^3_v1_^5_v3_v2_^3",3
"496",31141,956,"sol","sol",1,7,"1_^3_v1_^5_v3_v2_^3",4
"497",31141,967,"mi","mi",1,7,"1_^3_v1_^5_v3_v2_^3",5
"498",31141,687,"re","re",1,7,"1_^3_v1_^5_v3_v2_^3",6
"499",31141,718,"mi","mi",1,7,"1_^3_v1_^5_v3_v2_^3",7
"500",31141,918,"do","do",1,7,"^1_v7_v6_v5_v4_v3_v2",1
"501",31141,449,"ti","ti",1,7,"^1_v7_v6_v5_v4_v3_v2",2
"502",31141,470,"la","la",1,7,"^1_v7_v6_v5_v4_v3_v2",3
"503",31141,561,"sol","sol",1,7,"^1_v7_v6_v5_v4_v3_v2",4
"504",31141,484,"fa","fa",1,7,"^1_v7_v6_v5_v4_v3_v2",5
"505",31141,1057,"mi","mi",1,7,"^1_v7_v6_v5_v4_v3_v2",6
"506",31141,607,"re","re",1,7,"^1_v7_v6_v5_v4_v3_v2",7
"507",31141,42965,"fa","fa",1,7,"^4_v6-_v5-_^6-_^4_v2-_2-",1
"508",31141,898,"le","le",1,7,"^4_v6-_v5-_^6-_^4_v2-_2-",2
"509",31141,833,"fi","fi",1,7,"^4_v6-_v5-_^6-_^4_v2-_2-",3
"510",31141,831,"le","le",1,7,"^4_v6-_v5-_^6-_^4_v2-_2-",4
"511",31141,990,"fa","fa",1,7,"^4_v6-_v5-_^6-_^4_v2-_2-",5
"512",31141,652,"ra","ra",1,7,"^4_v6-_v5-_^6-_^4_v2-_2-",6
"513",31141,606,"ra","ra",1,7,"^4_v6-_v5-_^6-_^4_v2-_2-",7
"514",31141,1490,"fa","fa",1,7,"^4_^5_^6_v5_v4_v3_v2",1
"515",31141,1101,"sol","sol",1,7,"^4_^5_^6_v5_v4_v3_v2",2
"516",31141,606,"la","la",1,7,"^4_^5_^6_v5_v4_v3_v2",3
"517",31141,562,"sol","sol",1,7,"^4_^5_^6_v5_v4_v3_v2",4
"518",31141,628,"fa","fa",1,7,"^4_^5_^6_v5_v4_v3_v2",5
"519",31141,504,"mi","mi",1,7,"^4_^5_^6_v5_v4_v3_v2",6
"520",31141,551,"re","re",1,7,"^4_^5_^6_v5_v4_v3_v2",7
"521",31141,1115,"do","do",1,7,"v1_^2_v1_v7_^1_^3_v2",1
"522",31141,662,"re","re",1,7,"v1_^2_v1_v7_^1_^3_v2",2
"523",31141,753,"do","do",1,7,"v1_^2_v1_v7_^1_^3_v2",3
"524",31141,921,"ti","ti",1,7,"v1_^2_v1_v7_^1_^3_v2",4
"525",31141,832,"do","do",1,7,"v1_^2_v1_v7_^1_^3_v2",5
"526",31141,1068,"mi","mi",1,7,"v1_^2_v1_v7_^1_^3_v2",6
"527",31141,675,"re","re",1,7,"v1_^2_v1_v7_^1_^3_v2",7
"528",31141,27719,"la","la",1,7,"^6_v5+_v4_^5+_v3_v1_v7-",1
"529",31141,1168,"fi","le",0,7,"^6_v5+_v4_^5+_v3_v1_v7-",2
"530",31141,448,"mi","fa",0,7,"^6_v5+_v4_^5+_v3_v1_v7-",3
"531",31141,561,"fi","le",0,7,"^6_v5+_v4_^5+_v3_v1_v7-",4
"532",31141,2643,"me","mi",0,7,"^6_v5+_v4_^5+_v3_v1_v7-",5
"533",31141,651,"do","do",1,7,"^6_v5+_v4_^5+_v3_v1_v7-",6
"534",31141,315,"do","te",0,7,"^6_v5+_v4_^5+_v3_v1_v7-",7
"535",31141,24472,"re","re",1,9,"^2_^3_^4_^5_^6_v5_v4_v3_v2",1
"536",31141,685,"mi","mi",1,9,"^2_^3_^4_^5_^6_v5_v4_v3_v2",2
"537",31141,853,"fa","fa",1,9,"^2_^3_^4_^5_^6_v5_v4_v3_v2",3
"538",31141,630,"sol","sol",1,9,"^2_^3_^4_^5_^6_v5_v4_v3_v2",4
"539",31141,550,"la","la",1,9,"^2_^3_^4_^5_^6_v5_v4_v3_v2",5
"540",31141,709,"sol","sol",1,9,"^2_^3_^4_^5_^6_v5_v4_v3_v2",6
"541",31141,832,"fa","fa",1,9,"^2_^3_^4_^5_^6_v5_v4_v3_v2",7
"542",31141,561,"mi","mi",1,9,"^2_^3_^4_^5_^6_v5_v4_v3_v2",8
"543",31141,607,"re","re",1,9,"^2_^3_^4_^5_^6_v5_v4_v3_v2",9
"544",31141,4775,"mi","mi",1,9,"^3_^4_^5_^6_v5_v4_v3_v2_v1",1
"545",31141,527,"fa","fa",1,9,"^3_^4_^5_^6_v5_v4_v3_v2_v1",2
"546",31141,595,"sol","sol",1,9,"^3_^4_^5_^6_v5_v4_v3_v2_v1",3
"547",31141,516,"la","la",1,9,"^3_^4_^5_^6_v5_v4_v3_v2_v1",4
"548",31141,416,"sol","sol",1,9,"^3_^4_^5_^6_v5_v4_v3_v2_v1",5
"549",31141,505,"fa","fa",1,9,"^3_^4_^5_^6_v5_v4_v3_v2_v1",6
"550",31141,460,"mi","mi",1,9,"^3_^4_^5_^6_v5_v4_v3_v2_v1",7
"551",31141,416,"re","re",1,9,"^3_^4_^5_^6_v5_v4_v3_v2_v1",8
"552",31141,461,"do","do",1,9,"^3_^4_^5_^6_v5_v4_v3_v2_v1",9
"553",31141,1669,"ti","ti",1,9,"v7_v6_v5_^6_v5_v4_^5_^6_v5",1
"554",31141,562,"la","la",1,9,"v7_v6_v5_^6_v5_v4_^5_^6_v5",2
"555",31141,574,"sol","sol",1,9,"v7_v6_v5_^6_v5_v4_^5_^6_v5",3
"556",31141,550,"fa","la",0,9,"v7_v6_v5_^6_v5_v4_^5_^6_v5",4
"557",31141,472,"sol","sol",1,9,"v7_v6_v5_^6_v5_v4_^5_^6_v5",5
"558",31141,539,"fa","fa",1,9,"v7_v6_v5_^6_v5_v4_^5_^6_v5",6
"559",31141,472,"sol","sol",1,9,"v7_v6_v5_^6_v5_v4_^5_^6_v5",7
"560",31141,515,"la","la",1,9,"v7_v6_v5_^6_v5_v4_^5_^6_v5",8
"561",31141,428,"sol","sol",1,9,"v7_v6_v5_^6_v5_v4_^5_^6_v5",9
"562",31141,1191,"sol","sol",1,9,"^5_^6_v5_v4_v3_v2_v1_^2_^3",1
"563",31141,595,"la","la",1,9,"^5_^6_v5_v4_v3_v2_v1_^2_^3",2
"564",31141,617,"sol","sol",1,9,"^5_^6_v5_v4_v3_v2_v1_^2_^3",3
"565",31141,461,"fa","fa",1,9,"^5_^6_v5_v4_v3_v2_v1_^2_^3",4
"566",31141,742,"mi","mi",1,9,"^5_^6_v5_v4_v3_v2_v1_^2_^3",5
"567",31141,460,"re","re",1,9,"^5_^6_v5_v4_v3_v2_v1_^2_^3",6
"568",31141,551,"do","do",1,9,"^5_^6_v5_v4_v3_v2_v1_^2_^3",7
"569",31141,539,"re","re",1,9,"^5_^6_v5_v4_v3_v2_v1_^2_^3",8
"570",31141,528,"mi","mi",1,9,"^5_^6_v5_v4_v3_v2_v1_^2_^3",9
"571",31141,1536,"mi","mi",1,9,"^3_^4_v2_v7_^1_^2_^3_3_^4",1
"572",31141,494,"fa","fa",1,9,"^3_^4_v2_v7_^1_^2_^3_3_^4",2
"573",31141,505,"re","re",1,9,"^3_^4_v2_v7_^1_^2_^3_3_^4",3
"574",31141,787,"ti","ti",1,9,"^3_^4_v2_v7_^1_^2_^3_3_^4",4
"575",31141,877,"do","do",1,9,"^3_^4_v2_v7_^1_^2_^3_3_^4",5
"576",31141,967,"re","re",1,9,"^3_^4_v2_v7_^1_^2_^3_3_^4",6
"577",31141,461,"mi","mi",1,9,"^3_^4_v2_v7_^1_^2_^3_3_^4",7
"578",31141,506,"fa","mi",0,9,"^3_^4_v2_v7_^1_^2_^3_3_^4",8
"579",31141,1788,"mi","fa",0,9,"^3_^4_v2_v7_^1_^2_^3_3_^4",9
"580",31141,6830,"sol","sol",1,9,"v5_v4_v6+_^7_^3+_v3_v2_v5_^4",1
"581",31141,483,"fi","fa",0,9,"v5_v4_v6+_^7_^3+_v3_v2_v5_^4",2
"582",31141,595,"fa","te",0,9,"v5_v4_v6+_^7_^3+_v3_v2_v5_^4",3
"583",31141,809,"sol","ti",0,9,"v5_v4_v6+_^7_^3+_v3_v2_v5_^4",4
"584",31141,1687,"me","mi",0,9,"v5_v4_v6+_^7_^3+_v3_v2_v5_^4",5
"585",31141,2327,"me","mi",0,9,"v5_v4_v6+_^7_^3+_v3_v2_v5_^4",6
"586",31141,606,"re","re",1,9,"v5_v4_v6+_^7_^3+_v3_v2_v5_^4",7
"587",31141,2237,"mi","sol",0,9,"v5_v4_v6+_^7_^3+_v3_v2_v5_^4",8
"588",31141,2395,"re","fa",0,9,"v5_v4_v6+_^7_^3+_v3_v2_v5_^4",9
"589",31141,4317,"mi","re",0,9,"^2_^4_v3_v2_v1_v3_v2+_^3_^5+",1
"590",31141,844,"sol","fa",0,9,"^2_^4_v3_v2_v1_v3_v2+_^3_^5+",2
"591",31141,483,"fa","mi",0,9,"^2_^4_v3_v2_v1_v3_v2+_^3_^5+",3
"592",31141,516,"mi","re",0,9,"^2_^4_v3_v2_v1_v3_v2+_^3_^5+",4
"593",31141,529,"me","do",0,9,"^2_^4_v3_v2_v1_v3_v2+_^3_^5+",5
"594",31141,1147,"mi","mi",1,9,"^2_^4_v3_v2_v1_v3_v2+_^3_^5+",6
"595",31141,28678,"ra","me",0,9,"^2_^4_v3_v2_v1_v3_v2+_^3_^5+",7
"596",31141,4218,"fi","mi",0,9,"^2_^4_v3_v2_v1_v3_v2+_^3_^5+",8
"597",31141,189,"fi","le",0,9,"^2_^4_v3_v2_v1_v3_v2+_^3_^5+",9
"598",35697,10849,"fa","re",0,2,"v2_v1",1
"599",35697,1724,"mi","do",0,2,"v2_v1",2
"600",35697,7253,"la","sol",0,2,"v5_v1+",1
"601",35697,2845,"ra","ra",1,2,"v5_v1+",2
"602",35697,11586,"la","ti",0,2,"v7_v3",1
"603",35697,974,"mi","mi",1,2,"v7_v3",2
"604",35697,1744,"fa","fa",1,2,"v4_v3",1
"605",35697,433,"mi","mi",1,2,"v4_v3",2
"606",35697,5307,"mi","mi",1,2,"^3_v4+",1
"607",35697,715,"fi","fi",1,2,"^3_v4+",2
"608",35697,9629,"fa","mi",0,2,"3_^6",1
"609",35697,3477,"la","la",1,2,"3_^6",2
"610",35697,14487,"ti","re",0,2,"^2_v7-",1
"611",35697,1382,"sol","te",0,2,"^2_v7-",2
"612",35697,13424,"do","do",1,2,"^1_^2+",1
"613",35697,2432,"fi","me",0,2,"^1_^2+",2
"614",35697,8848,"mi","mi",1,2,"v3_v2",1
"615",35697,1754,"re","re",1,2,"v3_v2",2
"616",35697,11110,"fi","sol",0,2,"^5_^1+",1
"617",35697,943,"do","ra",0,2,"^5_^1+",2
"618",35697,2318,"do","do",1,3,"1_v1+_^2",1
"619",35697,911,"ra","ra",1,3,"1_v1+_^2",2
"620",35697,1222,"me","re",0,3,"1_v1+_^2",3
"621",35697,4664,"do","do",1,3,"v1_v7-_v7-",1
"622",35697,669,"ti","te",0,3,"v1_v7-_v7-",2
"623",35697,643,"ti","te",0,3,"v1_v7-_v7-",3
"624",35697,4294,"mi","mi",1,3,"v3_v2_v1",1
"625",35697,682,"re","re",1,3,"v3_v2_v1",2
"626",35697,713,"do","do",1,3,"v3_v2_v1",3
"627",35697,6783,"fa","re",0,3,"v2_v5_^3",1
"628",35697,1347,"la","sol",0,3,"v2_v5_^3",2
"629",35697,2253,"sol","mi",0,3,"v2_v5_^3",3
"630",35697,13962,"sol","la",0,3,"6_^1_v5",1
"631",35697,2316,"la","do",0,3,"6_^1_v5",2
"632",35697,3530,"mi","sol",0,3,"6_^1_v5",3
"633",35697,3818,"sol","sol",1,3,"v5_v4_v3",1
"634",35697,1590,"fa","fa",1,3,"v5_v4_v3",2
"635",35697,620,"mi","mi",1,3,"v5_v4_v3",3
"636",35697,21566,"do","do",1,3,"v1_v7-_^7",1
"637",35697,931,"la","te",0,3,"v1_v7-_^7",2
"638",35697,628,"te","ti",0,3,"v1_v7-_^7",3
"639",35697,11196,"fa","fa",1,3,"v4_v3_v2",1
"640",35697,620,"mi","mi",1,3,"v4_v3_v2",2
"641",35697,1185,"re","re",1,3,"v4_v3_v2",3
"642",35697,4325,"do","do",1,3,"^1_v6_v5+",1
"643",35697,2249,"ti","la",0,3,"^1_v6_v5+",2
"644",35697,1207,"te","le",0,3,"^1_v6_v5+",3
"645",35697,23910,"fa","la",0,5,"^6_v4_v3_^4_^5",1
"646",35697,949,"ra","fa",0,5,"^6_v4_v3_^4_^5",2
"647",35697,773,"do","mi",0,5,"^6_v4_v3_^4_^5",3
"648",35697,1783,"ra","fa",0,5,"^6_v4_v3_^4_^5",4
"649",35697,957,"me","sol",0,5,"^6_v4_v3_^4_^5",5
"650",35697,9868,"sol","sol",1,5,"v5_v4_v3_v2_v1",1
"651",35697,735,"fa","fa",1,5,"v5_v4_v3_v2_v1",2
"652",35697,662,"mi","mi",1,5,"v5_v4_v3_v2_v1",3
"653",35697,571,"re","re",1,5,"v5_v4_v3_v2_v1",4
"654",35697,1330,"do","do",1,5,"v5_v4_v3_v2_v1",5
"655",35697,3380,"sol","sol",1,5,"v5_v4_v3_v2_v1",6
"656",35697,867,"fa","fa",1,5,"v5_v4_v3_v2_v1",7
"657",35697,589,"mi","mi",1,5,"v5_v4_v3_v2_v1",8
"658",35697,717,"re","re",1,5,"v5_v4_v3_v2_v1",9
"659",35697,684,"do","do",1,5,"v5_v4_v3_v2_v1",10
"660",35697,5883,"me","re",0,5,"v2_2_^3_^4_v2",1
"661",35697,776,"me","re",0,5,"v2_2_^3_^4_v2",2
"662",35697,744,"mi","mi",1,5,"v2_2_^3_^4_v2",3
"663",35697,8343,"le","fa",0,5,"v2_2_^3_^4_v2",4
"664",35697,578,"sol","re",0,5,"v2_2_^3_^4_v2",5
"665",35697,4575,"sol","sol",1,5,"^5_^6_v5_v4_v3",1
"666",35697,888,"le","la",0,5,"^5_^6_v5_v4_v3",2
"667",35697,847,"sol","sol",1,5,"^5_^6_v5_v4_v3",3
"668",35697,1023,"fa","fa",1,5,"^5_^6_v5_v4_v3",4
"669",35697,2990,"me","mi",0,5,"^5_^6_v5_v4_v3",5
"670",35697,1808,"fi","fi",1,5,"v5-_v3_3_^4+_v3",1
"671",35697,2927,"mi","mi",1,5,"v5-_v3_3_^4+_v3",2
"672",35697,855,"mi","mi",1,5,"v5-_v3_3_^4+_v3",3
"673",35697,948,"fi","fi",1,5,"v5-_v3_3_^4+_v3",4
"674",35697,1049,"mi","mi",1,5,"v5-_v3_3_^4+_v3",5
"675",35697,5563,"do","sol",0,5,"v5_^6+_^7_^1_5",1
"676",35697,1257,"re","te",0,5,"v5_^6+_^7_^1_5",2
"677",35697,1820,"me","ti",0,5,"v5_^6+_^7_^1_5",3
"678",35697,1169,"fa","do",0,5,"v5_^6+_^7_^1_5",4
"679",35697,2882,"re","sol",0,5,"v5_^6+_^7_^1_5",5
"680",35697,11480,"do","la",0,5,"^6_v5_v4_v3_v2",1
"681",35697,796,"ti","sol",0,5,"^6_v5_v4_v3_v2",2
"682",35697,7246,"te","fa",0,5,"^6_v5_v4_v3_v2",3
"683",35697,1832,"la","mi",0,5,"^6_v5_v4_v3_v2",4
"684",35697,1028,"sol","re",0,5,"^6_v5_v4_v3_v2",5
"685",35697,23311,"te","fa",0,7,"^4_v6-_v5-_^6-_^4_v2-_2-",1
"686",35697,929,"re","le",0,7,"^4_v6-_v5-_^6-_^4_v2-_2-",2
"687",35697,578,"re","fi",0,7,"^4_v6-_v5-_^6-_^4_v2-_2-",3
"688",35697,1256,"la","le",0,7,"^4_v6-_v5-_^6-_^4_v2-_2-",4
"689",35697,692,"te","fa",0,7,"^4_v6-_v5-_^6-_^4_v2-_2-",5
"690",35697,2070,"re","ra",0,7,"^4_v6-_v5-_^6-_^4_v2-_2-",6
"691",35697,791,"re","ra",0,7,"^4_v6-_v5-_^6-_^4_v2-_2-",7
"692",35697,12090,"re","do",0,7,"1_^3_v1_^5_v3_v2_^3",1
"693",35697,821,"sol","mi",0,7,"1_^3_v1_^5_v3_v2_^3",2
"694",35697,931,"re","do",0,7,"1_^3_v1_^5_v3_v2_^3",3
"695",35697,1343,"la","sol",0,7,"1_^3_v1_^5_v3_v2_^3",4
"696",35697,1004,"sol","mi",0,7,"1_^3_v1_^5_v3_v2_^3",5
"697",35697,2174,"re","re",1,7,"1_^3_v1_^5_v3_v2_^3",6
"698",35697,1024,"re","mi",0,7,"1_^3_v1_^5_v3_v2_^3",7
"699",35697,6484,"sol","sol",1,7,"^5_^6_v5_v4_v3_v2_v1",1
"700",35697,716,"la","la",1,7,"^5_^6_v5_v4_v3_v2_v1",2
"701",35697,726,"sol","sol",1,7,"^5_^6_v5_v4_v3_v2_v1",3
"702",35697,853,"fa","fa",1,7,"^5_^6_v5_v4_v3_v2_v1",4
"703",35697,518,"mi","mi",1,7,"^5_^6_v5_v4_v3_v2_v1",5
"704",35697,728,"re","re",1,7,"^5_^6_v5_v4_v3_v2_v1",6
"705",35697,641,"do","do",1,7,"^5_^6_v5_v4_v3_v2_v1",7
"706",35697,4296,"do","do",1,7,"v1_^2_v1_v7_^1_^3_v2",1
"707",35697,697,"re","re",1,7,"v1_^2_v1_v7_^1_^3_v2",2
"708",35697,828,"do","do",1,7,"v1_^2_v1_v7_^1_^3_v2",3
"709",35697,1209,"mi","ti",0,7,"v1_^2_v1_v7_^1_^3_v2",4
"710",35697,757,"fa","do",0,7,"v1_^2_v1_v7_^1_^3_v2",5
"711",35697,4511,"mi","mi",1,7,"v1_^2_v1_v7_^1_^3_v2",6
"712",35697,1681,"re","re",1,7,"v1_^2_v1_v7_^1_^3_v2",7
"713",35697,4695,"fa","fa",1,7,"^4_^5_^6_v5_v4_v3_v2",1
"714",35697,620,"sol","sol",1,7,"^4_^5_^6_v5_v4_v3_v2",2
"715",35697,682,"fa","la",0,7,"^4_^5_^6_v5_v4_v3_v2",3
"716",35697,590,"sol","sol",1,7,"^4_^5_^6_v5_v4_v3_v2",4
"717",35697,716,"le","fa",0,7,"^4_^5_^6_v5_v4_v3_v2",5
"718",35697,1085,"fa","mi",0,7,"^4_^5_^6_v5_v4_v3_v2",6
"719",35697,2365,"me","re",0,7,"^4_^5_^6_v5_v4_v3_v2",7
"720",35697,11257,"do","do",1,7,"^1_v7_v6_v5_v4_v3_v2",1
"721",35697,575,"ti","ti",1,7,"^1_v7_v6_v5_v4_v3_v2",2
"722",35697,777,"la","la",1,7,"^1_v7_v6_v5_v4_v3_v2",3
"723",35697,680,"sol","sol",1,7,"^1_v7_v6_v5_v4_v3_v2",4
"724",35697,692,"fa","fa",1,7,"^1_v7_v6_v5_v4_v3_v2",5
"725",35697,497,"mi","mi",1,7,"^1_v7_v6_v5_v4_v3_v2",6
"726",35697,682,"re","re",1,7,"^1_v7_v6_v5_v4_v3_v2",7
"727",35697,7476,"la","la",1,7,"^6_v5+_v4_^5+_v3_v1_v7-",1
"728",35697,675,"sol","le",0,7,"^6_v5+_v4_^5+_v3_v1_v7-",2
"729",35697,559,"fi","fa",0,7,"^6_v5+_v4_^5+_v3_v1_v7-",3
"730",35697,4056,"le","le",1,7,"^6_v5+_v4_^5+_v3_v1_v7-",4
"731",35697,619,"la","mi",0,7,"^6_v5+_v4_^5+_v3_v1_v7-",5
"732",35697,6415,"fa","do",0,7,"^6_v5+_v4_^5+_v3_v1_v7-",6
"733",35697,454,"mi","te",0,7,"^6_v5+_v4_^5+_v3_v1_v7-",7
"734",35697,7706,"te","sol",0,9,"v5_v4_v6+_^7_^3+_v3_v2_v5_^4",1
"735",35697,598,"la","fa",0,9,"v5_v4_v6+_^7_^3+_v3_v2_v5_^4",2
"736",35697,610,"sol","te",0,9,"v5_v4_v6+_^7_^3+_v3_v2_v5_^4",3
"737",35697,2005,"fa","ti",0,9,"v5_v4_v6+_^7_^3+_v3_v2_v5_^4",4
"738",35697,505,"mi","mi",1,9,"v5_v4_v6+_^7_^3+_v3_v2_v5_^4",5
"739",35697,1486,"me","mi",0,9,"v5_v4_v6+_^7_^3+_v3_v2_v5_^4",6
"740",35697,1697,"la","re",0,9,"v5_v4_v6+_^7_^3+_v3_v2_v5_^4",7
"741",35697,1325,"te","sol",0,9,"v5_v4_v6+_^7_^3+_v3_v2_v5_^4",8
"742",35697,2143,"la","fa",0,9,"v5_v4_v6+_^7_^3+_v3_v2_v5_^4",9
"743",35697,15716,"la","mi",0,9,"^3_^4_v2_v7_^1_^2_^3_3_^4",1
"744",35697,745,"te","fa",0,9,"^3_^4_v2_v7_^1_^2_^3_3_^4",2
"745",35697,583,"la","re",0,9,"^3_^4_v2_v7_^1_^2_^3_3_^4",3
"746",35697,1036,"sol","ti",0,9,"^3_^4_v2_v7_^1_^2_^3_3_^4",4
"747",35697,684,"fa","do",0,9,"^3_^4_v2_v7_^1_^2_^3_3_^4",5
"748",35697,719,"fa","re",0,9,"^3_^4_v2_v7_^1_^2_^3_3_^4",6
"749",35697,922,"sol","mi",0,9,"^3_^4_v2_v7_^1_^2_^3_3_^4",7
"750",35697,582,"la","mi",0,9,"^3_^4_v2_v7_^1_^2_^3_3_^4",8
"751",35697,2003,"sol","fa",0,9,"^3_^4_v2_v7_^1_^2_^3_3_^4",9
"752",35697,2545,"ti","sol",0,9,"^5_^6_v5_v4_v3_v2_v1_^2_^3",1
"753",35697,645,"do","la",0,9,"^5_^6_v5_v4_v3_v2_v1_^2_^3",2
"754",35697,748,"ti","sol",0,9,"^5_^6_v5_v4_v3_v2_v1_^2_^3",3
"755",35697,602,"la","fa",0,9,"^5_^6_v5_v4_v3_v2_v1_^2_^3",4
"756",35697,706,"sol","mi",0,9,"^5_^6_v5_v4_v3_v2_v1_^2_^3",5
"757",35697,2128,"la","re",0,9,"^5_^6_v5_v4_v3_v2_v1_^2_^3",6
"758",35697,600,"sol","do",0,9,"^5_^6_v5_v4_v3_v2_v1_^2_^3",7
"759",35697,603,"mi","re",0,9,"^5_^6_v5_v4_v3_v2_v1_^2_^3",8
"760",35697,573,"fa","mi",0,9,"^5_^6_v5_v4_v3_v2_v1_^2_^3",9
"761",35697,7574,"sol","re",0,9,"^2_^4_v3_v2_v1_v3_v2+_^3_^5+",1
"762",35697,488,"le","fa",0,9,"^2_^4_v3_v2_v1_v3_v2+_^3_^5+",2
"763",35697,688,"sol","mi",0,9,"^2_^4_v3_v2_v1_v3_v2+_^3_^5+",3
"764",35697,873,"fa","re",0,9,"^2_^4_v3_v2_v1_v3_v2+_^3_^5+",4
"765",35697,1787,"me","do",0,9,"^2_^4_v3_v2_v1_v3_v2+_^3_^5+",5
"766",35697,995,"mi","mi",1,9,"^2_^4_v3_v2_v1_v3_v2+_^3_^5+",6
"767",35697,853,"fi","me",0,9,"^2_^4_v3_v2_v1_v3_v2+_^3_^5+",7
"768",35697,2849,"me","mi",0,9,"^2_^4_v3_v2_v1_v3_v2+_^3_^5+",8
"769",35697,895,"re","le",0,9,"^2_^4_v3_v2_v1_v3_v2+_^3_^5+",9
"770",35697,1957,"mi","mi",1,9,"^3_^4_^5_^6_v5_v4_v3_v2_v1",1
"771",35697,774,"fa","fa",1,9,"^3_^4_^5_^6_v5_v4_v3_v2_v1",2
"772",35697,588,"mi","sol",0,9,"^3_^4_^5_^6_v5_v4_v3_v2_v1",3
"773",35697,3041,"la","la",1,9,"^3_^4_^5_^6_v5_v4_v3_v2_v1",4
"774",35697,600,"ti","sol",0,9,"^3_^4_^5_^6_v5_v4_v3_v2_v1",5
"775",35697,705,"sol","fa",0,9,"^3_^4_^5_^6_v5_v4_v3_v2_v1",6
"776",35697,1507,"fa","mi",0,9,"^3_^4_^5_^6_v5_v4_v3_v2_v1",7
"777",35697,727,"mi","re",0,9,"^3_^4_^5_^6_v5_v4_v3_v2_v1",8
"778",35697,1396,"fa","do",0,9,"^3_^4_^5_^6_v5_v4_v3_v2_v1",9
"779",35697,2991,"mi","re",0,9,"^2_^3_^4_^5_^6_v5_v4_v3_v2",1
"780",35697,732,"fa","mi",0,9,"^2_^3_^4_^5_^6_v5_v4_v3_v2",2
"781",35697,675,"sol","fa",0,9,"^2_^3_^4_^5_^6_v5_v4_v3_v2",3
"782",35697,610,"la","sol",0,9,"^2_^3_^4_^5_^6_v5_v4_v3_v2",4
"783",35697,558,"ti","la",0,9,"^2_^3_^4_^5_^6_v5_v4_v3_v2",5
"784",35697,548,"la","sol",0,9,"^2_^3_^4_^5_^6_v5_v4_v3_v2",6
"785",35697,753,"sol","fa",0,9,"^2_^3_^4_^5_^6_v5_v4_v3_v2",7
"786",35697,916,"fa","mi",0,9,"^2_^3_^4_^5_^6_v5_v4_v3_v2",8
"787",35697,849,"sol","re",0,9,"^2_^3_^4_^5_^6_v5_v4_v3_v2",9
"788",35697,1256,"ti","ti",1,9,"v7_v6_v5_^6_v5_v4_^5_^6_v5",1
"789",35697,706,"la","la",1,9,"v7_v6_v5_^6_v5_v4_^5_^6_v5",2
"790",35697,705,"sol","sol",1,9,"v7_v6_v5_^6_v5_v4_^5_^6_v5",3
"791",35697,1069,"la","la",1,9,"v7_v6_v5_^6_v5_v4_^5_^6_v5",4
"792",35697,583,"sol","sol",1,9,"v7_v6_v5_^6_v5_v4_^5_^6_v5",5
"793",35697,813,"fa","fa",1,9,"v7_v6_v5_^6_v5_v4_^5_^6_v5",6
"794",35697,1269,"sol","sol",1,9,"v7_v6_v5_^6_v5_v4_^5_^6_v5",7
"795",35697,509,"la","la",1,9,"v7_v6_v5_^6_v5_v4_^5_^6_v5",8
"796",35697,509,"sol","sol",1,9,"v7_v6_v5_^6_v5_v4_^5_^6_v5",9
"797",4004,7805,"mi","mi",1,2,"v3_v2",1
"798",4004,1965,"re","re",1,2,"v3_v2",2
"799",4004,1554,"re","re",1,2,"v2_v1",1
"800",4004,1136,"do","do",1,2,"v2_v1",2
"801",4004,3349,"re","re",1,2,"^2_v7-",1
"802",4004,1044,"te","te",1,2,"^2_v7-",2
"803",4004,1242,"la","mi",0,2,"3_^6",1
"804",4004,1158,"do","la",0,2,"3_^6",2
"805",4004,6591,"fi","sol",0,2,"v5_v1+",1
"806",4004,1741,"ra","ra",1,2,"v5_v1+",2
"807",4004,7819,"la","sol",0,2,"^5_^1+",1
"808",4004,5778,"mi","ra",0,2,"^5_^1+",2
"809",4004,11754,"re","mi",0,2,"^3_v4+",1
"810",4004,714,"fa","fi",0,2,"^3_v4+",2
"811",4004,9516,"le","ti",0,2,"v7_v3",1
"812",4004,765,"fa","mi",0,2,"v7_v3",2
"813",4004,10785,"ti","do",0,2,"^1_^2+",1
"814",4004,3114,"me","me",1,2,"^1_^2+",2
"815",4004,4538,"fa","fa",1,2,"v4_v3",1
"816",4004,702,"mi","mi",1,2,"v4_v3",2
"817",4004,3119,"mi","mi",1,3,"v3_v2_v1",1
"818",4004,1034,"re","re",1,3,"v3_v2_v1",2
"819",4004,949,"do","do",1,3,"v3_v2_v1",3
"820",4004,7840,"sol","do",0,3,"^1_v6_v5+",1
"821",4004,629,"fi","la",0,3,"^1_v6_v5+",2
"822",4004,1865,"mi","le",0,3,"^1_v6_v5+",3
"823",4004,8920,"le","do",0,3,"v1_v7-_^7",1
"824",4004,602,"fi","te",0,3,"v1_v7-_^7",2
"825",4004,563,"sol","ti",0,3,"v1_v7-_^7",3
"826",4004,2746,"fa","fa",1,3,"v4_v3_v2",1
"827",4004,480,"mi","mi",1,3,"v4_v3_v2",2
"828",4004,600,"re","re",1,3,"v4_v3_v2",3
"829",4004,5187,"sol","sol",1,3,"v5_v4_v3",1
"830",4004,711,"fa","fa",1,3,"v5_v4_v3",2
"831",4004,1062,"mi","mi",1,3,"v5_v4_v3",3
"832",4004,6994,"do","do",1,3,"v1_v7-_v7-",1
"833",4004,2383,"te","te",1,3,"v1_v7-_v7-",2
"834",4004,551,"te","te",1,3,"v1_v7-_v7-",3
"835",4004,7257,"re","re",1,3,"v2_v5_^3",1
"836",4004,3696,"sol","sol",1,3,"v2_v5_^3",2
"837",4004,4093,"mi","mi",1,3,"v2_v5_^3",3
"838",4004,7457,"la","la",1,3,"6_^1_v5",1
"839",4004,10174,"ti","do",0,3,"6_^1_v5",2
"840",4004,1916,"sol","sol",1,3,"6_^1_v5",3
"841",4004,3544,"ra","do",0,3,"1_v1+_^2",1
"842",4004,825,"re","ra",0,3,"1_v1+_^2",2
"843",4004,777,"me","re",0,3,"1_v1+_^2",3
"844",4004,6791,"re","re",1,5,"v2_2_^3_^4_v2",1
"845",4004,991,"re","re",1,5,"v2_2_^3_^4_v2",2
"846",4004,11197,"mi","mi",1,5,"v2_2_^3_^4_v2",3
"847",4004,3130,"fa","fa",1,5,"v2_2_^3_^4_v2",4
"848",4004,634,"mi","re",0,5,"v2_2_^3_^4_v2",5
"849",4004,1500,"sol","sol",1,5,"v5_v4_v3_v2_v1",1
"850",4004,866,"fa","fa",1,5,"v5_v4_v3_v2_v1",2
"851",4004,716,"mi","mi",1,5,"v5_v4_v3_v2_v1",3
"852",4004,798,"re","re",1,5,"v5_v4_v3_v2_v1",4
"853",4004,792,"do","do",1,5,"v5_v4_v3_v2_v1",5
"854",4004,3028,"sol","sol",1,5,"v5_^6+_^7_^1_5",1
"855",4004,789,"la","te",0,5,"v5_^6+_^7_^1_5",2
"856",4004,712,"ti","ti",1,5,"v5_^6+_^7_^1_5",3
"857",4004,958,"do","do",1,5,"v5_^6+_^7_^1_5",4
"858",4004,3134,"sol","sol",1,5,"v5_^6+_^7_^1_5",5
"859",4004,4882,"te","fi",0,5,"v5-_v3_3_^4+_v3",1
"860",4004,4288,"le","mi",0,5,"v5-_v3_3_^4+_v3",2
"861",4004,826,"le","mi",0,5,"v5-_v3_3_^4+_v3",3
"862",4004,1389,"te","fi",0,5,"v5-_v3_3_^4+_v3",4
"863",4004,1489,"la","mi",0,5,"v5-_v3_3_^4+_v3",5
"864",4004,8757,"mi","la",0,5,"^6_v5_v4_v3_v2",1
"865",4004,855,"re","sol",0,5,"^6_v5_v4_v3_v2",2
"866",4004,696,"do","fa",0,5,"^6_v5_v4_v3_v2",3
"867",4004,868,"ti","mi",0,5,"^6_v5_v4_v3_v2",4
"868",4004,942,"la","re",0,5,"^6_v5_v4_v3_v2",5
"869",4004,4370,"sol","sol",1,5,"^5_^6_v5_v4_v3",1
"870",4004,1023,"la","la",1,5,"^5_^6_v5_v4_v3",2
"871",4004,703,"sol","sol",1,5,"^5_^6_v5_v4_v3",3
"872",4004,5483,"fa","fa",1,5,"^5_^6_v5_v4_v3",4
"873",4004,1120,"mi","mi",1,5,"^5_^6_v5_v4_v3",5
"874",4004,8707,"sol","sol",1,5,"v5_v4_v3_v2_v1",6
"875",4004,593,"fa","fa",1,5,"v5_v4_v3_v2_v1",7
"876",4004,906,"mi","mi",1,5,"v5_v4_v3_v2_v1",8
"877",4004,646,"re","re",1,5,"v5_v4_v3_v2_v1",9
"878",4004,501,"do","do",1,5,"v5_v4_v3_v2_v1",10
"879",4004,8110,"sol","la",0,5,"^6_v4_v3_^4_^5",1
"880",4004,4066,"mi","fa",0,5,"^6_v4_v3_^4_^5",2
"881",4004,5213,"re","mi",0,5,"^6_v4_v3_^4_^5",3
"882",4004,4404,"fa","fa",1,5,"^6_v4_v3_^4_^5",4
"883",4004,3667,"sol","sol",1,5,"^6_v4_v3_^4_^5",5
"884",4004,14293,"fi","la",0,7,"^6_v5+_v4_^5+_v3_v1_v7-",1
"885",4004,5117,"me","le",0,7,"^6_v5+_v4_^5+_v3_v1_v7-",2
"886",4004,554,"ra","fa",0,7,"^6_v5+_v4_^5+_v3_v1_v7-",3
"887",4004,9354,"fi","le",0,7,"^6_v5+_v4_^5+_v3_v1_v7-",4
"888",4004,951,"mi","mi",1,7,"^6_v5+_v4_^5+_v3_v1_v7-",5
"889",4004,3573,"me","do",0,7,"^6_v5+_v4_^5+_v3_v1_v7-",6
"890",4004,427,"re","te",0,7,"^6_v5+_v4_^5+_v3_v1_v7-",7
"891",4004,8782,"fa","fa",1,7,"^4_v6-_v5-_^6-_^4_v2-_2-",1
"892",4004,3260,"sol","le",0,7,"^4_v6-_v5-_^6-_^4_v2-_2-",2
"893",4004,4846,"fa","fi",0,7,"^4_v6-_v5-_^6-_^4_v2-_2-",3
"894",4004,592,"sol","le",0,7,"^4_v6-_v5-_^6-_^4_v2-_2-",4
"895",4004,2614,"re","fa",0,7,"^4_v6-_v5-_^6-_^4_v2-_2-",5
"896",4004,989,"do","ra",0,7,"^4_v6-_v5-_^6-_^4_v2-_2-",6
"897",4004,1168,"do","ra",0,7,"^4_v6-_v5-_^6-_^4_v2-_2-",7
"898",4004,1289,"do","do",1,7,"1_^3_v1_^5_v3_v2_^3",1
"899",4004,566,"re","mi",0,7,"1_^3_v1_^5_v3_v2_^3",2
"900",4004,644,"do","do",1,7,"1_^3_v1_^5_v3_v2_^3",3
"901",4004,3394,"fa","sol",0,7,"1_^3_v1_^5_v3_v2_^3",4
"902",4004,6732,"re","mi",0,7,"1_^3_v1_^5_v3_v2_^3",5
"903",4004,16357,"mi","re",0,7,"1_^3_v1_^5_v3_v2_^3",6
"904",4004,405,"fa","mi",0,7,"1_^3_v1_^5_v3_v2_^3",7
"905",4004,1237,"do","do",1,7,"^1_v7_v6_v5_v4_v3_v2",1
"906",4004,500,"ti","ti",1,7,"^1_v7_v6_v5_v4_v3_v2",2
"907",4004,550,"la","la",1,7,"^1_v7_v6_v5_v4_v3_v2",3
"908",4004,686,"sol","sol",1,7,"^1_v7_v6_v5_v4_v3_v2",4
"909",4004,858,"fa","fa",1,7,"^1_v7_v6_v5_v4_v3_v2",5
"910",4004,792,"me","mi",0,7,"^1_v7_v6_v5_v4_v3_v2",6
"911",4004,819,"re","re",1,7,"^1_v7_v6_v5_v4_v3_v2",7
"912",4004,1498,"do","do",1,7,"v1_^2_v1_v7_^1_^3_v2",1
"913",4004,553,"re","re",1,7,"v1_^2_v1_v7_^1_^3_v2",2
"914",4004,635,"do","do",1,7,"v1_^2_v1_v7_^1_^3_v2",3
"915",4004,1795,"ti","ti",1,7,"v1_^2_v1_v7_^1_^3_v2",4
"916",4004,6480,"do","do",1,7,"v1_^2_v1_v7_^1_^3_v2",5
"917",4004,2907,"mi","mi",1,7,"v1_^2_v1_v7_^1_^3_v2",6
"918",4004,1275,"do","re",0,7,"v1_^2_v1_v7_^1_^3_v2",7
"919",4004,2947,"sol","sol",1,7,"^5_^6_v5_v4_v3_v2_v1",1
"920",4004,2474,"la","la",1,7,"^5_^6_v5_v4_v3_v2_v1",2
"921",4004,606,"sol","sol",1,7,"^5_^6_v5_v4_v3_v2_v1",3
"922",4004,497,"fa","fa",1,7,"^5_^6_v5_v4_v3_v2_v1",4
"923",4004,605,"mi","mi",1,7,"^5_^6_v5_v4_v3_v2_v1",5
"924",4004,545,"re","re",1,7,"^5_^6_v5_v4_v3_v2_v1",6
"925",4004,617,"do","do",1,7,"^5_^6_v5_v4_v3_v2_v1",7
"926",4004,12684,"la","fa",0,7,"^4_^5_^6_v5_v4_v3_v2",1
"927",4004,691,"ti","sol",0,7,"^4_^5_^6_v5_v4_v3_v2",2
"928",4004,421,"do","la",0,7,"^4_^5_^6_v5_v4_v3_v2",3
"929",4004,723,"ti","sol",0,7,"^4_^5_^6_v5_v4_v3_v2",4
"930",4004,469,"la","fa",0,7,"^4_^5_^6_v5_v4_v3_v2",5
"931",4004,568,"sol","mi",0,7,"^4_^5_^6_v5_v4_v3_v2",6
"932",4004,411,"fa","re",0,7,"^4_^5_^6_v5_v4_v3_v2",7
"933",4004,6759,"le","sol",0,9,"v5_v4_v6+_^7_^3+_v3_v2_v5_^4",1
"934",4004,583,"sol","fa",0,9,"v5_v4_v6+_^7_^3+_v3_v2_v5_^4",2
"935",4004,1792,"mi","te",0,9,"v5_v4_v6+_^7_^3+_v3_v2_v5_^4",3
"936",4004,444,"fa","ti",0,9,"v5_v4_v6+_^7_^3+_v3_v2_v5_^4",4
"937",4004,3741,"sol","mi",0,9,"v5_v4_v6+_^7_^3+_v3_v2_v5_^4",5
"938",4004,425,"fi","mi",0,9,"v5_v4_v6+_^7_^3+_v3_v2_v5_^4",6
"939",4004,652,"fa","re",0,9,"v5_v4_v6+_^7_^3+_v3_v2_v5_^4",7
"940",4004,3935,"ra","sol",0,9,"v5_v4_v6+_^7_^3+_v3_v2_v5_^4",8
"941",4004,1829,"re","fa",0,9,"v5_v4_v6+_^7_^3+_v3_v2_v5_^4",9
"942",4004,21498,"sol","sol",1,9,"^5_^6_v5_v4_v3_v2_v1_^2_^3",1
"943",4004,9864,"sol","la",0,9,"^5_^6_v5_v4_v3_v2_v1_^2_^3",2
"944",4004,531,"fa","sol",0,9,"^5_^6_v5_v4_v3_v2_v1_^2_^3",3
"945",4004,1045,"me","fa",0,9,"^5_^6_v5_v4_v3_v2_v1_^2_^3",4
"946",4004,1541,"re","mi",0,9,"^5_^6_v5_v4_v3_v2_v1_^2_^3",5
"947",4004,618,"do","re",0,9,"^5_^6_v5_v4_v3_v2_v1_^2_^3",6
"948",4004,15759,"mi","do",0,9,"^5_^6_v5_v4_v3_v2_v1_^2_^3",7
"949",4004,739,"fa","re",0,9,"^5_^6_v5_v4_v3_v2_v1_^2_^3",8
"950",4004,339,"sol","mi",0,9,"^5_^6_v5_v4_v3_v2_v1_^2_^3",9
"951",4004,6915,"re","mi",0,9,"^3_^4_v2_v7_^1_^2_^3_3_^4",1
"952",4004,3912,"mi","fa",0,9,"^3_^4_v2_v7_^1_^2_^3_3_^4",2
"953",4004,1543,"re","re",1,9,"^3_^4_v2_v7_^1_^2_^3_3_^4",3
"954",4004,732,"do","ti",0,9,"^3_^4_v2_v7_^1_^2_^3_3_^4",4
"955",4004,7950,"re","do",0,9,"^3_^4_v2_v7_^1_^2_^3_3_^4",5
"956",4004,581,"mi","re",0,9,"^3_^4_v2_v7_^1_^2_^3_3_^4",6
"957",4004,1663,"re","mi",0,9,"^3_^4_v2_v7_^1_^2_^3_3_^4",7
"958",4004,564,"mi","mi",1,9,"^3_^4_v2_v7_^1_^2_^3_3_^4",8
"959",4004,522,"fa","fa",1,9,"^3_^4_v2_v7_^1_^2_^3_3_^4",9
"960",4004,2867,"ti","ti",1,9,"v7_v6_v5_^6_v5_v4_^5_^6_v5",1
"961",4004,1042,"la","la",1,9,"v7_v6_v5_^6_v5_v4_^5_^6_v5",2
"962",4004,3184,"sol","sol",1,9,"v7_v6_v5_^6_v5_v4_^5_^6_v5",3
"963",4004,1215,"la","la",1,9,"v7_v6_v5_^6_v5_v4_^5_^6_v5",4
"964",4004,2064,"sol","sol",1,9,"v7_v6_v5_^6_v5_v4_^5_^6_v5",5
"965",4004,3817,"la","fa",0,9,"v7_v6_v5_^6_v5_v4_^5_^6_v5",6
"966",4004,6057,"mi","sol",0,9,"v7_v6_v5_^6_v5_v4_^5_^6_v5",7
"967",4004,383,"fa","la",0,9,"v7_v6_v5_^6_v5_v4_^5_^6_v5",8
"968",4004,733,"sol","sol",1,9,"v7_v6_v5_^6_v5_v4_^5_^6_v5",9
"969",4004,15434,"la","re",0,9,"^2_^3_^4_^5_^6_v5_v4_v3_v2",1
"970",4004,704,"te","mi",0,9,"^2_^3_^4_^5_^6_v5_v4_v3_v2",2
"971",4004,778,"do","fa",0,9,"^2_^3_^4_^5_^6_v5_v4_v3_v2",3
"972",4004,4464,"re","sol",0,9,"^2_^3_^4_^5_^6_v5_v4_v3_v2",4
"973",4004,633,"mi","la",0,9,"^2_^3_^4_^5_^6_v5_v4_v3_v2",5
"974",4004,488,"re","sol",0,9,"^2_^3_^4_^5_^6_v5_v4_v3_v2",6
"975",4004,483,"do","fa",0,9,"^2_^3_^4_^5_^6_v5_v4_v3_v2",7
"976",4004,2676,"te","mi",0,9,"^2_^3_^4_^5_^6_v5_v4_v3_v2",8
"977",4004,480,"la","re",0,9,"^2_^3_^4_^5_^6_v5_v4_v3_v2",9
"978",4004,18778,"do","re",0,9,"^2_^4_v3_v2_v1_v3_v2+_^3_^5+",1
"979",4004,3288,"mi","fa",0,9,"^2_^4_v3_v2_v1_v3_v2+_^3_^5+",2
"980",4004,587,"fa","mi",0,9,"^2_^4_v3_v2_v1_v3_v2+_^3_^5+",3
"981",4004,588,"mi","re",0,9,"^2_^4_v3_v2_v1_v3_v2+_^3_^5+",4
"982",4004,3920,"re","do",0,9,"^2_^4_v3_v2_v1_v3_v2+_^3_^5+",5
"983",4004,884,"fi","mi",0,9,"^2_^4_v3_v2_v1_v3_v2+_^3_^5+",6
"984",4004,12147,"me","me",1,9,"^2_^4_v3_v2_v1_v3_v2+_^3_^5+",7
"985",4004,487,"fa","mi",0,9,"^2_^4_v3_v2_v1_v3_v2+_^3_^5+",8
"986",4004,618,"fi","le",0,9,"^2_^4_v3_v2_v1_v3_v2+_^3_^5+",9
"987",4004,1634,"do","mi",0,9,"^3_^4_^5_^6_v5_v4_v3_v2_v1",1
"988",4004,561,"re","fa",0,9,"^3_^4_^5_^6_v5_v4_v3_v2_v1",2
"989",4004,628,"mi","sol",0,9,"^3_^4_^5_^6_v5_v4_v3_v2_v1",3
"990",4004,1118,"fa","la",0,9,"^3_^4_^5_^6_v5_v4_v3_v2_v1",4
"991",4004,506,"mi","sol",0,9,"^3_^4_^5_^6_v5_v4_v3_v2_v1",5
"992",4004,588,"re","fa",0,9,"^3_^4_^5_^6_v5_v4_v3_v2_v1",6
"993",4004,1012,"do","mi",0,9,"^3_^4_^5_^6_v5_v4_v3_v2_v1",7
"994",4004,2929,"ti","re",0,9,"^3_^4_^5_^6_v5_v4_v3_v2_v1",8
"995",4004,1087,"do","do",1,9,"^3_^4_^5_^6_v5_v4_v3_v2_v1",9
"996",43104,5712.88500074297,"re","re",1,2,"^2_v7-",1
"997",43104,918.270000256598,"te","te",1,2,"^2_v7-",2
"998",43104,3165.26000015438,"sol","sol",1,2,"v5_v1+",1
"999",43104,7839.39999993891,"ra","ra",1,2,"v5_v1+",2
"1000",43104,4238.02000004798,"ti","ti",1,2,"v7_v3",1
"1001",43104,998.970000073314,"mi","mi",1,2,"v7_v3",2
"1002",43104,1376.58499926329,"fa","fa",1,2,"v4_v3",1
"1003",43104,334.459999576211,"mi","mi",1,2,"v4_v3",2
"1004",43104,3678.07499971241,"mi","mi",1,2,"^3_v4+",1
"1005",43104,574.829999357462,"fi","fi",1,2,"^3_v4+",2
"1006",43104,1015.97500033677,"do","do",1,2,"^1_^2+",1
"1007",43104,967.024999670684,"me","me",1,2,"^1_^2+",2
"1008",43104,3311.7800001055,"me","mi",0,2,"3_^6",1
"1009",43104,1886.95499952883,"la","la",1,2,"3_^6",2
"1010",43104,2372.63499945402,"sol","sol",1,2,"^5_^1+",1
"1011",43104,7734.43999979645,"do","ra",0,2,"^5_^1+",2
"1012",43104,1729.63999956846,"mi","mi",1,2,"v3_v2",1
"1013",43104,630.785000510514,"re","re",1,2,"v3_v2",2
"1014",43104,1271.82499971241,"re","re",1,2,"v2_v1",1
"1015",43104,565.840000286698,"do","do",1,2,"v2_v1",2
"1016",43104,1856.22000042349,"sol","sol",1,3,"v5_v4_v3",1
"1017",43104,582.755000330508,"fa","fa",1,3,"v5_v4_v3",2
"1018",43104,1134.99499950558,"mi","mi",1,3,"v5_v4_v3",3
"1019",43104,754.025000147521,"do","do",1,3,"v1_v7-_^7",1
"1020",43104,542.999999597669,"te","te",1,3,"v1_v7-_^7",2
"1021",43104,287.045000120997,"ti","ti",1,3,"v1_v7-_^7",3
"1022",43104,1158.01999997348,"do","do",1,3,"v1_v7-_v7-",1
"1023",43104,662.995000369847,"te","te",1,3,"v1_v7-_v7-",2
"1024",43104,423.174999654293,"te","te",1,3,"v1_v7-_v7-",3
"1025",43104,958.265000022948,"do","do",1,3,"1_v1+_^2",1
"1026",43104,390.94499964267,"ra","ra",1,3,"1_v1+_^2",2
"1027",43104,479.209999553859,"re","re",1,3,"1_v1+_^2",3
"1028",43104,2112.46500071138,"la","la",1,3,"6_^1_v5",1
"1029",43104,670.904999598861,"do","do",1,3,"6_^1_v5",2
"1030",43104,1031.05000033975,"sol","sol",1,3,"6_^1_v5",3
"1031",43104,1048.30499924719,"do","do",1,3,"^1_v6_v5+",1
"1032",43104,878.825000487268,"la","la",1,3,"^1_v6_v5+",2
"1033",43104,342.69000031054,"le","le",1,3,"^1_v6_v5+",3
"1034",43104,1432.06999916583,"mi","mi",1,3,"v3_v2_v1",1
"1035",43104,526.829999871552,"re","re",1,3,"v3_v2_v1",2
"1036",43104,494.934999383986,"do","do",1,3,"v3_v2_v1",3
"1037",43104,1832.03999977559,"fa","fa",1,3,"v4_v3_v2",1
"1038",43104,623.010000213981,"mi","mi",1,3,"v4_v3_v2",2
"1039",43104,566.894999705255,"re","re",1,3,"v4_v3_v2",3
"1040",43104,1713.50499987602,"re","re",1,3,"v2_v5_^3",1
"1041",43104,1086.75500005484,"sol","sol",1,3,"v2_v5_^3",2
"1042",43104,758.909999392927,"mi","mi",1,3,"v2_v5_^3",3
"1043",43104,1560.06999965757,"la","la",1,5,"^6_v5_v4_v3_v2",1
"1044",43104,470.729999244213,"sol","sol",1,5,"^6_v5_v4_v3_v2",2
"1045",43104,630.939999595284,"fa","fa",1,5,"^6_v5_v4_v3_v2",3
"1046",43104,1079.09500040114,"mi","mi",1,5,"^6_v5_v4_v3_v2",4
"1047",43104,502.489999867976,"re","re",1,5,"^6_v5_v4_v3_v2",5
"1048",43104,1938.80999926478,"fi","fi",1,5,"v5-_v3_3_^4+_v3",1
"1049",43104,951.054999604821,"mi","mi",1,5,"v5-_v3_3_^4+_v3",2
"1050",43104,455.064999870956,"mi","mi",1,5,"v5-_v3_3_^4+_v3",3
"1051",43104,591.105000115931,"fi","fi",1,5,"v5-_v3_3_^4+_v3",4
"1052",43104,462.975000031292,"mi","mi",1,5,"v5-_v3_3_^4+_v3",5
"1053",43104,1392.76500046253,"la","la",1,5,"^6_v4_v3_^4_^5",1
"1054",43104,1006.83999992907,"fa","fa",1,5,"^6_v4_v3_^4_^5",2
"1055",43104,606.864999979734,"mi","mi",1,5,"^6_v4_v3_^4_^5",3
"1056",43104,399.469999596477,"fa","fa",1,5,"^6_v4_v3_^4_^5",4
"1057",43104,526.689999736845,"sol","sol",1,5,"^6_v4_v3_^4_^5",5
"1058",43104,1592.16499980539,"re","re",1,5,"v2_2_^3_^4_v2",1
"1059",43104,494.974999688566,"re","re",1,5,"v2_2_^3_^4_v2",2
"1060",43104,815.065000206232,"mi","mi",1,5,"v2_2_^3_^4_v2",3
"1061",43104,463.105000555515,"fa","fa",1,5,"v2_2_^3_^4_v2",4
"1062",43104,614.819999784231,"re","re",1,5,"v2_2_^3_^4_v2",5
"1063",43104,1589.78000003844,"sol","sol",1,5,"v5_^6+_^7_^1_5",1
"1064",43104,574.420000426471,"la","te",0,5,"v5_^6+_^7_^1_5",2
"1065",43104,743.07500012219,"ti","ti",1,5,"v5_^6+_^7_^1_5",3
"1066",43104,447.064999490976,"do","do",1,5,"v5_^6+_^7_^1_5",4
"1067",43104,670.664999634027,"sol","sol",1,5,"v5_^6+_^7_^1_5",5
"1068",43104,1312.40000016987,"sol","sol",1,5,"v5_v4_v3_v2_v1",1
"1069",43104,478.674999438226,"fa","fa",1,5,"v5_v4_v3_v2_v1",2
"1070",43104,487.075000070035,"me","mi",0,5,"v5_v4_v3_v2_v1",3
"1071",43104,1807.1650005877,"re","re",1,5,"v5_v4_v3_v2_v1",4
"1072",43104,495.009999722242,"do","do",1,5,"v5_v4_v3_v2_v1",5
"1073",43104,1219.90500018001,"sol","sol",1,5,"v5_v4_v3_v2_v1",6
"1074",43104,887.079999782145,"fa","fa",1,5,"v5_v4_v3_v2_v1",7
"1075",43104,447.344999760389,"mi","mi",1,5,"v5_v4_v3_v2_v1",8
"1076",43104,678.740000352263,"re","re",1,5,"v5_v4_v3_v2_v1",9
"1077",43104,767.505000345409,"do","do",1,5,"v5_v4_v3_v2_v1",10
"1078",43104,1460.49000043422,"sol","sol",1,5,"^5_^6_v5_v4_v3",1
"1079",43104,686.819999478757,"la","la",1,5,"^5_^6_v5_v4_v3",2
"1080",43104,502.980000339448,"sol","sol",1,5,"^5_^6_v5_v4_v3",3
"1081",43104,591.175000183284,"fa","fa",1,5,"^5_^6_v5_v4_v3",4
"1082",43104,383.100000210106,"mi","mi",1,5,"^5_^6_v5_v4_v3",5
"1083",43104,1684.10000018775,"la","la",1,7,"^6_v5+_v4_^5+_v3_v1_v7-",1
"1084",43104,1862.89000045508,"fa","le",0,7,"^6_v5+_v4_^5+_v3_v1_v7-",2
"1085",43104,703.014999628067,"mi","fa",0,7,"^6_v5+_v4_^5+_v3_v1_v7-",3
"1086",43104,2551.10999941826,"fi","le",0,7,"^6_v5+_v4_^5+_v3_v1_v7-",4
"1087",43104,1359.36500038952,"mi","mi",1,7,"^6_v5+_v4_^5+_v3_v1_v7-",5
"1088",43104,1372.39999976009,"do","do",1,7,"^6_v5+_v4_^5+_v3_v1_v7-",6
"1089",43104,2447.1950000152,"te","te",1,7,"^6_v5+_v4_^5+_v3_v1_v7-",7
"1090",43104,1798.11500012875,"do","do",1,7,"v1_^2_v1_v7_^1_^3_v2",1
"1091",43104,663.145000115037,"re","re",1,7,"v1_^2_v1_v7_^1_^3_v2",2
"1092",43104,519.074999727309,"do","do",1,7,"v1_^2_v1_v7_^1_^3_v2",3
"1093",43104,1094.98499985784,"ti","ti",1,7,"v1_^2_v1_v7_^1_^3_v2",4
"1094",43104,1094.96499970555,"do","do",1,7,"v1_^2_v1_v7_^1_^3_v2",5
"1095",43104,1327.23000086844,"mi","mi",1,7,"v1_^2_v1_v7_^1_^3_v2",6
"1096",43104,646.954999305308,"re","re",1,7,"v1_^2_v1_v7_^1_^3_v2",7
"1097",43104,1386.50499936193,"fa","fa",1,7,"^4_^5_^6_v5_v4_v3_v2",1
"1098",43104,598.939999938011,"sol","sol",1,7,"^4_^5_^6_v5_v4_v3_v2",2
"1099",43104,646.339999511838,"la","la",1,7,"^4_^5_^6_v5_v4_v3_v2",3
"1100",43104,527.025000192225,"sol","sol",1,7,"^4_^5_^6_v5_v4_v3_v2",4
"1101",43104,623.234999366105,"fa","fa",1,7,"^4_^5_^6_v5_v4_v3_v2",5
"1102",43104,750.99499989301,"mi","mi",1,7,"^4_^5_^6_v5_v4_v3_v2",6
"1103",43104,550.830000080168,"re","re",1,7,"^4_^5_^6_v5_v4_v3_v2",7
"1104",43104,4624.07999951392,"fa","fa",1,7,"^4_v6-_v5-_^6-_^4_v2-_2-",1
"1105",43104,6854.67500053346,"le","le",1,7,"^4_v6-_v5-_^6-_^4_v2-_2-",2
"1106",43104,1053.99500019848,"fi","fi",1,7,"^4_v6-_v5-_^6-_^4_v2-_2-",3
"1107",43104,903.005000203848,"le","le",1,7,"^4_v6-_v5-_^6-_^4_v2-_2-",4
"1108",43104,2245.88500056416,"fa","fa",1,7,"^4_v6-_v5-_^6-_^4_v2-_2-",5
"1109",43104,3350.36499984562,"ra","ra",1,7,"^4_v6-_v5-_^6-_^4_v2-_2-",6
"1110",43104,455.114999786019,"ra","ra",1,7,"^4_v6-_v5-_^6-_^4_v2-_2-",7
"1111",43104,1248.29499982297,"sol","sol",1,7,"^5_^6_v5_v4_v3_v2_v1",1
"1112",43104,583.034999668598,"la","la",1,7,"^5_^6_v5_v4_v3_v2_v1",2
"1113",43104,575.015000067651,"sol","sol",1,7,"^5_^6_v5_v4_v3_v2_v1",3
"1114",43104,559.155000373721,"fa","fa",1,7,"^5_^6_v5_v4_v3_v2_v1",4
"1115",43104,591.025000438094,"mi","mi",1,7,"^5_^6_v5_v4_v3_v2_v1",5
"1116",43104,486.899999901652,"re","re",1,7,"^5_^6_v5_v4_v3_v2_v1",6
"1117",43104,751.07999984175,"do","do",1,7,"^5_^6_v5_v4_v3_v2_v1",7
"1118",43104,1112.79499996454,"do","do",1,7,"1_^3_v1_^5_v3_v2_^3",1
"1119",43104,1559.09499991685,"mi","mi",1,7,"1_^3_v1_^5_v3_v2_^3",2
"1120",43104,615.135000087321,"do","do",1,7,"1_^3_v1_^5_v3_v2_^3",3
"1121",43104,1007.11499992758,"sol","sol",1,7,"1_^3_v1_^5_v3_v2_^3",4
"1122",43104,1599.19499978423,"mi","mi",1,7,"1_^3_v1_^5_v3_v2_^3",5
"1123",43104,502.925000153482,"re","re",1,7,"1_^3_v1_^5_v3_v2_^3",6
"1124",43104,455.044999718666,"mi","mi",1,7,"1_^3_v1_^5_v3_v2_^3",7
"1125",43104,1401.2050004676,"do","do",1,7,"^1_v7_v6_v5_v4_v3_v2",1
"1126",43104,766.93999953568,"ti","ti",1,7,"^1_v7_v6_v5_v4_v3_v2",2
"1127",43104,1303.07999998331,"la","la",1,7,"^1_v7_v6_v5_v4_v3_v2",3
"1128",43104,574.874999932945,"sol","sol",1,7,"^1_v7_v6_v5_v4_v3_v2",4
"1129",43104,638.985000550747,"fa","fa",1,7,"^1_v7_v6_v5_v4_v3_v2",5
"1130",43104,559.025000780821,"mi","mi",1,7,"^1_v7_v6_v5_v4_v3_v2",6
"1131",43104,1183.00500046462,"re","re",1,7,"^1_v7_v6_v5_v4_v3_v2",7
"1132",43104,1412.28500008583,"sol","sol",1,9,"v5_v4_v6+_^7_^3+_v3_v2_v5_^4",1
"1133",43104,478.885000571609,"fa","fa",1,9,"v5_v4_v6+_^7_^3+_v3_v2_v5_^4",2
"1134",43104,1071.15999981761,"la","te",0,9,"v5_v4_v6+_^7_^3+_v3_v2_v5_^4",3
"1135",43104,822.885000146925,"ti","ti",1,9,"v5_v4_v6+_^7_^3+_v3_v2_v5_^4",4
"1136",43104,2134.89499967545,"mi","mi",1,9,"v5_v4_v6+_^7_^3+_v3_v2_v5_^4",5
"1137",43104,743.095000274479,"re","mi",0,9,"v5_v4_v6+_^7_^3+_v3_v2_v5_^4",6
"1138",43104,2223.26499968767,"sol","re",0,9,"v5_v4_v6+_^7_^3+_v3_v2_v5_^4",7
"1139",43104,1430.8449998498,"fa","sol",0,9,"v5_v4_v6+_^7_^3+_v3_v2_v5_^4",8
"1140",43104,1311.14500015974,"re","fa",0,9,"v5_v4_v6+_^7_^3+_v3_v2_v5_^4",9
"1141",43104,1826.13500021398,"mi","mi",1,9,"^3_^4_^5_^6_v5_v4_v3_v2_v1",1
"1142",43104,510.815000161529,"fa","fa",1,9,"^3_^4_^5_^6_v5_v4_v3_v2_v1",2
"1143",43104,647.150000557303,"sol","sol",1,9,"^3_^4_^5_^6_v5_v4_v3_v2_v1",3
"1144",43104,471.005000174046,"la","la",1,9,"^3_^4_^5_^6_v5_v4_v3_v2_v1",4
"1145",43104,519.094999879599,"sol","sol",1,9,"^3_^4_^5_^6_v5_v4_v3_v2_v1",5
"1146",43104,543.000000528991,"fa","fa",1,9,"^3_^4_^5_^6_v5_v4_v3_v2_v1",6
"1147",43104,463.034999556839,"mi","mi",1,9,"^3_^4_^5_^6_v5_v4_v3_v2_v1",7
"1148",43104,678.919999860227,"re","re",1,9,"^3_^4_^5_^6_v5_v4_v3_v2_v1",8
"1149",43104,615.114999935031,"do","do",1,9,"^3_^4_^5_^6_v5_v4_v3_v2_v1",9
"1150",43104,2201.9499996677,"mi","mi",1,9,"^3_^4_v2_v7_^1_^2_^3_3_^4",1
"1151",43104,556.734999641776,"fa","fa",1,9,"^3_^4_v2_v7_^1_^2_^3_3_^4",2
"1152",43104,1302.99500003457,"re","re",1,9,"^3_^4_v2_v7_^1_^2_^3_3_^4",3
"1153",43104,799.180000089109,"ti","ti",1,9,"^3_^4_v2_v7_^1_^2_^3_3_^4",4
"1154",43104,942.514999769628,"do","do",1,9,"^3_^4_v2_v7_^1_^2_^3_3_^4",5
"1155",43104,687.01499979943,"re","re",1,9,"^3_^4_v2_v7_^1_^2_^3_3_^4",6
"1156",43104,542.255000211298,"mi","mi",1,9,"^3_^4_v2_v7_^1_^2_^3_3_^4",7
"1157",43104,439.180000685155,"mi","mi",1,9,"^3_^4_v2_v7_^1_^2_^3_3_^4",8
"1158",43104,479.035000316799,"fa","fa",1,9,"^3_^4_v2_v7_^1_^2_^3_3_^4",9
"1159",43104,2188.28999996185,"mi","re",0,9,"^2_^4_v3_v2_v1_v3_v2+_^3_^5+",1
"1160",43104,398.954999633133,"fa","fa",1,9,"^2_^4_v3_v2_v1_v3_v2+_^3_^5+",2
"1161",43104,1079.15499992669,"re","mi",0,9,"^2_^4_v3_v2_v1_v3_v2+_^3_^5+",3
"1162",43104,1583.1649992615,"ti","re",0,9,"^2_^4_v3_v2_v1_v3_v2+_^3_^5+",4
"1163",43104,638.829999603331,"do","do",1,9,"^2_^4_v3_v2_v1_v3_v2+_^3_^5+",5
"1164",43104,2046.65500018746,"mi","mi",1,9,"^2_^4_v3_v2_v1_v3_v2+_^3_^5+",6
"1165",43104,2695.12999989092,"re","me",0,9,"^2_^4_v3_v2_v1_v3_v2+_^3_^5+",7
"1166",43104,3819.58500016481,"mi","mi",1,9,"^2_^4_v3_v2_v1_v3_v2+_^3_^5+",8
"1167",43104,639.144999906421,"fi","le",0,9,"^2_^4_v3_v2_v1_v3_v2+_^3_^5+",9
"1168",43104,1482.54500050098,"re","re",1,9,"^2_^3_^4_^5_^6_v5_v4_v3_v2",1
"1169",43104,646.95500023663,"mi","mi",1,9,"^2_^3_^4_^5_^6_v5_v4_v3_v2",2
"1170",43104,463.059999980032,"fa","fa",1,9,"^2_^3_^4_^5_^6_v5_v4_v3_v2",3
"1171",43104,615.004999563098,"sol","sol",1,9,"^2_^3_^4_^5_^6_v5_v4_v3_v2",4
"1172",43104,735.085000284016,"la","la",1,9,"^2_^3_^4_^5_^6_v5_v4_v3_v2",5
"1173",43104,686.940000392497,"sol","sol",1,9,"^2_^3_^4_^5_^6_v5_v4_v3_v2",6
"1174",43104,551.075000315905,"fa","fa",1,9,"^2_^3_^4_^5_^6_v5_v4_v3_v2",7
"1175",43104,462.939999997616,"mi","mi",1,9,"^2_^3_^4_^5_^6_v5_v4_v3_v2",8
"1176",43104,470.900000073016,"re","re",1,9,"^2_^3_^4_^5_^6_v5_v4_v3_v2",9
"1177",43104,1384.02500003576,"ti","ti",1,9,"v7_v6_v5_^6_v5_v4_^5_^6_v5",1
"1178",43104,542.995000258088,"la","la",1,9,"v7_v6_v5_^6_v5_v4_^5_^6_v5",2
"1179",43104,478.254999965429,"sol","sol",1,9,"v7_v6_v5_^6_v5_v4_^5_^6_v5",3
"1180",43104,575.060000643134,"la","la",1,9,"v7_v6_v5_^6_v5_v4_^5_^6_v5",4
"1181",43104,471.060000360012,"sol","sol",1,9,"v7_v6_v5_^6_v5_v4_^5_^6_v5",5
"1182",43104,567.374999634922,"fa","fa",1,9,"v7_v6_v5_^6_v5_v4_^5_^6_v5",6
"1183",43104,614.225000143051,"mi","sol",0,9,"v7_v6_v5_^6_v5_v4_^5_^6_v5",7
"1184",43104,639.024999924004,"fa","la",0,9,"v7_v6_v5_^6_v5_v4_^5_^6_v5",8
"1185",43104,471.080000512302,"sol","sol",1,9,"v7_v6_v5_^6_v5_v4_^5_^6_v5",9
"1186",43104,1297.70499933511,"sol","sol",1,9,"^5_^6_v5_v4_v3_v2_v1_^2_^3",1
"1187",43104,543.189999647439,"la","la",1,9,"^5_^6_v5_v4_v3_v2_v1_^2_^3",2
"1188",43104,566.964999772608,"sol","sol",1,9,"^5_^6_v5_v4_v3_v2_v1_^2_^3",3
"1189",43104,470.844999887049,"fa","fa",1,9,"^5_^6_v5_v4_v3_v2_v1_^2_^3",4
"1190",43104,1351.51000041515,"mi","mi",1,9,"^5_^6_v5_v4_v3_v2_v1_^2_^3",5
"1191",43104,526.335000060499,"re","re",1,9,"^5_^6_v5_v4_v3_v2_v1_^2_^3",6
"1192",43104,575.059999711812,"do","do",1,9,"^5_^6_v5_v4_v3_v2_v1_^2_^3",7
"1193",43104,487.255000509322,"re","re",1,9,"^5_^6_v5_v4_v3_v2_v1_^2_^3",8
"1194",43104,495.110000483692,"mi","mi",1,9,"^5_^6_v5_v4_v3_v2_v1_^2_^3",9
"1195",4559,1525.08499997202,"do","do",1,2,"^1_^2+",1
"1196",4559,1505.28500007931,"me","me",1,2,"^1_^2+",2
"1197",4559,1293.95500000101,"re","re",1,2,"^2_v7-",1
"1198",4559,1066.51500007138,"te","te",1,2,"^2_v7-",2
"1199",4559,967.049999977462,"re","re",1,2,"v2_v1",1
"1200",4559,864.844999974594,"do","do",1,2,"v2_v1",2
"1201",4559,1218.5649999883,"mi","mi",1,2,"^3_v4+",1
"1202",4559,673.640000051819,"fi","fi",1,2,"^3_v4+",2
"1203",4559,1165.29999999329,"fa","fa",1,2,"v4_v3",1
"1204",4559,426.184999989346,"mi","mi",1,2,"v4_v3",2
"1205",4559,1169.24000007566,"sol","sol",1,2,"v5_v1+",1
"1206",4559,628.625000012107,"ra","ra",1,2,"v5_v1+",2
"1207",4559,996.820000000298,"mi","mi",1,2,"v3_v2",1
"1208",4559,482.480000006035,"re","re",1,2,"v3_v2",2
"1209",4559,938.090000068769,"mi","mi",1,2,"3_^6",1
"1210",4559,988.664999953471,"la","la",1,2,"3_^6",2
"1211",4559,998.660000041127,"sol","sol",1,2,"^5_^1+",1
"1212",4559,718.394999974407,"ra","ra",1,2,"^5_^1+",2
"1213",4559,792.589999968186,"ti","ti",1,2,"v7_v3",1
"1214",4559,840.94499994535,"mi","mi",1,2,"v7_v3",2
"1215",4559,1039.77500007022,"fa","fa",1,3,"v4_v3_v2",1
"1216",4559,470.865000039339,"mi","mi",1,3,"v4_v3_v2",2
"1217",4559,730.054999934509,"re","re",1,3,"v4_v3_v2",3
"1218",4559,757.734999991953,"do","do",1,3,"v1_v7-_^7",1
"1219",4559,504.935000091791,"te","te",1,3,"v1_v7-_^7",2
"1220",4559,369.485000032,"ti","ti",1,3,"v1_v7-_^7",3
"1221",4559,770.985000068322,"do","do",1,3,"^1_v6_v5+",1
"1222",4559,776.190000004135,"la","la",1,3,"^1_v6_v5+",2
"1223",4559,435.949999955483,"le","le",1,3,"^1_v6_v5+",3
"1224",4559,1282.44999994058,"la","la",1,3,"6_^1_v5",1
"1225",4559,808.365000062622,"do","do",1,3,"6_^1_v5",2
"1226",4559,831.450000056066,"sol","sol",1,3,"6_^1_v5",3
"1227",4559,1045.69499997888,"sol","sol",1,3,"v5_v4_v3",1
"1228",4559,540.55499995593,"fa","fa",1,3,"v5_v4_v3",2
"1229",4559,357.135000056587,"mi","mi",1,3,"v5_v4_v3",3
"1230",4559,527.590000070632,"do","do",1,3,"1_v1+_^2",1
"1231",4559,1011.18999999017,"re","ra",0,3,"1_v1+_^2",2
"1232",4559,2563.33999999333,"re","re",1,3,"1_v1+_^2",3
"1233",4559,1397.23000000231,"mi","mi",1,3,"v3_v2_v1",1
"1234",4559,875.239999964833,"re","re",1,3,"v3_v2_v1",2
"1235",4559,629.164999932982,"do","do",1,3,"v3_v2_v1",3
"1236",4559,1302.51999991015,"do","do",1,3,"v1_v7-_v7-",1
"1237",4559,640.064999926835,"te","te",1,3,"v1_v7-_v7-",2
"1238",4559,302.374999970198,"te","te",1,3,"v1_v7-_v7-",3
"1239",4559,1035.55000002962,"re","re",1,3,"v2_v5_^3",1
"1240",4559,1056.42000003718,"sol","sol",1,3,"v2_v5_^3",2
"1241",4559,662.144999951124,"mi","mi",1,3,"v2_v5_^3",3
"1242",4559,1042.3750000773,"sol","sol",1,5,"v5_^6+_^7_^1_5",1
"1243",4559,584.140000049956,"la","te",0,5,"v5_^6+_^7_^1_5",2
"1244",4559,594.859999953769,"ti","ti",1,5,"v5_^6+_^7_^1_5",3
"1245",4559,472.964999964461,"do","do",1,5,"v5_^6+_^7_^1_5",4
"1246",4559,807.144999969751,"sol","sol",1,5,"v5_^6+_^7_^1_5",5
"1247",4559,1494.2850000225,"fi","fi",1,5,"v5-_v3_3_^4+_v3",1
"1248",4559,471.55500005465,"mi","mi",1,5,"v5-_v3_3_^4+_v3",2
"1249",4559,201.079999911599,"mi","mi",1,5,"v5-_v3_3_^4+_v3",3
"1250",4559,887.970000039786,"fi","fi",1,5,"v5-_v3_3_^4+_v3",4
"1251",4559,582.480000099167,"mi","mi",1,5,"v5-_v3_3_^4+_v3",5
"1252",4559,1069.85500000883,"sol","sol",1,5,"^5_^6_v5_v4_v3",1
"1253",4559,752.345000044443,"la","la",1,5,"^5_^6_v5_v4_v3",2
"1254",4559,505.030000000261,"sol","sol",1,5,"^5_^6_v5_v4_v3",3
"1255",4559,504.904999979772,"fa","fa",1,5,"^5_^6_v5_v4_v3",4
"1256",4559,437.740000081249,"mi","mi",1,5,"^5_^6_v5_v4_v3",5
"1257",4559,1050.84499996156,"sol","sol",1,5,"v5_v4_v3_v2_v1",1
"1258",4559,504.914999939501,"fa","fa",1,5,"v5_v4_v3_v2_v1",2
"1259",4559,527.780000003986,"mi","mi",1,5,"v5_v4_v3_v2_v1",3
"1260",4559,1125.06999995094,"re","re",1,5,"v5_v4_v3_v2_v1",4
"1261",4559,627.500000060536,"do","do",1,5,"v5_v4_v3_v2_v1",5
"1262",4559,890.100000076927,"re","re",1,5,"v2_2_^3_^4_v2",1
"1263",4559,302.585000055842,"re","re",1,5,"v2_2_^3_^4_v2",2
"1264",4559,617.654999950901,"mi","mi",1,5,"v2_2_^3_^4_v2",3
"1265",4559,572.200000053272,"fa","fa",1,5,"v2_2_^3_^4_v2",4
"1266",4559,1011.5700000897,"re","re",1,5,"v2_2_^3_^4_v2",5
"1267",4559,1338.38500001002,"la","la",1,5,"^6_v4_v3_^4_^5",1
"1268",4559,1292.40999999456,"fa","fa",1,5,"^6_v4_v3_^4_^5",2
"1269",4559,640.030000009574,"mi","mi",1,5,"^6_v4_v3_^4_^5",3
"1270",4559,448.689999990165,"fa","fa",1,5,"^6_v4_v3_^4_^5",4
"1271",4559,549.759999965318,"sol","sol",1,5,"^6_v4_v3_^4_^5",5
"1272",4559,1368.26500005554,"sol","sol",1,5,"v5_v4_v3_v2_v1",6
"1273",4559,863.610000000335,"fa","fa",1,5,"v5_v4_v3_v2_v1",7
"1274",4559,447.825000039302,"mi","mi",1,5,"v5_v4_v3_v2_v1",8
"1275",4559,527.484999969602,"re","re",1,5,"v5_v4_v3_v2_v1",9
"1276",4559,786.699999938719,"do","do",1,5,"v5_v4_v3_v2_v1",10
"1277",4559,966.634999960661,"la","la",1,5,"^6_v5_v4_v3_v2",1
"1278",4559,730.23500002455,"sol","sol",1,5,"^6_v5_v4_v3_v2",2
"1279",4559,572.299999999814,"fa","fa",1,5,"^6_v5_v4_v3_v2",3
"1280",4559,527.790000080131,"mi","mi",1,5,"^6_v5_v4_v3_v2",4
"1281",4559,527.560000075027,"re","re",1,5,"^6_v5_v4_v3_v2",5
"1282",4559,903.060000040568,"sol","sol",1,7,"^5_^6_v5_v4_v3_v2_v1",1
"1283",4559,672.414999920875,"la","la",1,7,"^5_^6_v5_v4_v3_v2_v1",2
"1284",4559,707.915000035428,"sol","sol",1,7,"^5_^6_v5_v4_v3_v2_v1",3
"1285",4559,572.624999913387,"fa","fa",1,7,"^5_^6_v5_v4_v3_v2_v1",4
"1286",4559,448.500000056811,"mi","mi",1,7,"^5_^6_v5_v4_v3_v2_v1",5
"1287",4559,527.559999958612,"re","re",1,7,"^5_^6_v5_v4_v3_v2_v1",6
"1288",4559,673.83499990683,"do","do",1,7,"^5_^6_v5_v4_v3_v2_v1",7
"1289",4559,883.694999967702,"fa","fa",1,7,"^4_^5_^6_v5_v4_v3_v2",1
"1290",4559,595.229999977164,"sol","sol",1,7,"^4_^5_^6_v5_v4_v3_v2",2
"1291",4559,775.979999918491,"la","la",1,7,"^4_^5_^6_v5_v4_v3_v2",3
"1292",4559,728.899999987334,"sol","sol",1,7,"^4_^5_^6_v5_v4_v3_v2",4
"1293",4559,808.539999998175,"fa","fa",1,7,"^4_^5_^6_v5_v4_v3_v2",5
"1294",4559,482.649999903515,"mi","mi",1,7,"^4_^5_^6_v5_v4_v3_v2",6
"1295",4559,730.04499997478,"re","re",1,7,"^4_^5_^6_v5_v4_v3_v2",7
"1296",4559,3775.67499992438,"la","la",1,7,"^6_v5+_v4_^5+_v3_v1_v7-",1
"1297",4559,1753.84000001941,"le","le",1,7,"^6_v5+_v4_^5+_v3_v1_v7-",2
"1298",4559,1719.8549999157,"fa","fa",1,7,"^6_v5+_v4_^5+_v3_v1_v7-",3
"1299",4559,2451.24499988742,"le","le",1,7,"^6_v5+_v4_^5+_v3_v1_v7-",4
"1300",4559,1348.46500004642,"fa","mi",0,7,"^6_v5+_v4_^5+_v3_v1_v7-",5
"1301",4559,471.474999911152,"mi","do",0,7,"^6_v5+_v4_^5+_v3_v1_v7-",6
"1302",4559,786.069999914616,"te","te",1,7,"^6_v5+_v4_^5+_v3_v1_v7-",7
"1303",4559,1067.80499999877,"do","do",1,7,"v1_^2_v1_v7_^1_^3_v2",1
"1304",4559,902.170000015758,"ti","re",0,7,"v1_^2_v1_v7_^1_^3_v2",2
"1305",4559,1602.93000005186,"do","do",1,7,"v1_^2_v1_v7_^1_^3_v2",3
"1306",4559,595.35999991931,"re","ti",0,7,"v1_^2_v1_v7_^1_^3_v2",4
"1307",4559,707.599999965169,"do","do",1,7,"v1_^2_v1_v7_^1_^3_v2",5
"1308",4559,932.159999967553,"mi","mi",1,7,"v1_^2_v1_v7_^1_^3_v2",6
"1309",4559,493.725000065751,"re","re",1,7,"v1_^2_v1_v7_^1_^3_v2",7
"1310",4559,986.900000018068,"do","do",1,7,"^1_v7_v6_v5_v4_v3_v2",1
"1311",4559,460.675000096671,"ti","ti",1,7,"^1_v7_v6_v5_v4_v3_v2",2
"1312",4559,516.660000081174,"la","la",1,7,"^1_v7_v6_v5_v4_v3_v2",3
"1313",4559,683.720000088215,"sol","sol",1,7,"^1_v7_v6_v5_v4_v3_v2",4
"1314",4559,1066.53000006918,"fa","fa",1,7,"^1_v7_v6_v5_v4_v3_v2",5
"1315",4559,595.165000064299,"mi","mi",1,7,"^1_v7_v6_v5_v4_v3_v2",6
"1316",4559,606.230000033975,"re","re",1,7,"^1_v7_v6_v5_v4_v3_v2",7
"1317",4559,1661.59999999218,"do","do",1,7,"1_^3_v1_^5_v3_v2_^3",1
"1318",4559,752.545000053942,"mi","mi",1,7,"1_^3_v1_^5_v3_v2_^3",2
"1319",4559,853.980000014417,"do","do",1,7,"1_^3_v1_^5_v3_v2_^3",3
"1320",4559,1258.99000000209,"sol","sol",1,7,"1_^3_v1_^5_v3_v2_^3",4
"1321",4559,966.295000049286,"mi","mi",1,7,"1_^3_v1_^5_v3_v2_^3",5
"1322",4559,482.604999910109,"re","re",1,7,"1_^3_v1_^5_v3_v2_^3",6
"1323",4559,696.209999965504,"mi","mi",1,7,"1_^3_v1_^5_v3_v2_^3",7
"1324",4559,5603.14000002109,"fa","fa",1,7,"^4_v6-_v5-_^6-_^4_v2-_2-",1
"1325",4559,1258.64000001457,"le","le",1,7,"^4_v6-_v5-_^6-_^4_v2-_2-",2
"1326",4559,561.320000095293,"sol","fi",0,7,"^4_v6-_v5-_^6-_^4_v2-_2-",3
"1327",4559,448.730000061914,"le","le",1,7,"^4_v6-_v5-_^6-_^4_v2-_2-",4
"1328",4559,3508.82999994792,"fa","fa",1,7,"^4_v6-_v5-_^6-_^4_v2-_2-",5
"1329",4559,1078.7400000263,"do","ra",0,7,"^4_v6-_v5-_^6-_^4_v2-_2-",6
"1330",4559,212.640000041574,"do","ra",0,7,"^4_v6-_v5-_^6-_^4_v2-_2-",7
"1331",4559,1356.73999995925,"sol","sol",1,9,"^5_^6_v5_v4_v3_v2_v1_^2_^3",1
"1332",4559,761.83500001207,"la","la",1,9,"^5_^6_v5_v4_v3_v2_v1_^2_^3",2
"1333",4559,605.630000005476,"sol","sol",1,9,"^5_^6_v5_v4_v3_v2_v1_^2_^3",3
"1334",4559,628.370000049472,"fa","fa",1,9,"^5_^6_v5_v4_v3_v2_v1_^2_^3",4
"1335",4559,674.054999952205,"mi","mi",1,9,"^5_^6_v5_v4_v3_v2_v1_^2_^3",5
"1336",4559,876.329999999143,"re","re",1,9,"^5_^6_v5_v4_v3_v2_v1_^2_^3",6
"1337",4559,583.650000044145,"do","do",1,9,"^5_^6_v5_v4_v3_v2_v1_^2_^3",7
"1338",4559,707.724999985658,"re","re",1,9,"^5_^6_v5_v4_v3_v2_v1_^2_^3",8
"1339",4559,617.450000019744,"mi","mi",1,9,"^5_^6_v5_v4_v3_v2_v1_^2_^3",9
"1340",4559,1479.2900000466,"re","re",1,9,"^2_^4_v3_v2_v1_v3_v2+_^3_^5+",1
"1341",4559,977.064999984577,"fa","fa",1,9,"^2_^4_v3_v2_v1_v3_v2+_^3_^5+",2
"1342",4559,786.495000007562,"mi","mi",1,9,"^2_^4_v3_v2_v1_v3_v2+_^3_^5+",3
"1343",4559,1032.850000076,"do","re",0,9,"^2_^4_v3_v2_v1_v3_v2+_^3_^5+",4
"1344",4559,1967.8600000916,"re","do",0,9,"^2_^4_v3_v2_v1_v3_v2+_^3_^5+",5
"1345",4559,1224.97500001919,"do","mi",0,9,"^2_^4_v3_v2_v1_v3_v2+_^3_^5+",6
"1346",4559,2305.26499997359,"mi","me",0,9,"^2_^4_v3_v2_v1_v3_v2+_^3_^5+",7
"1347",4559,966.220000060275,"sol","mi",0,9,"^2_^4_v3_v2_v1_v3_v2+_^3_^5+",8
"1348",4559,437.314999988303,"le","le",1,9,"^2_^4_v3_v2_v1_v3_v2+_^3_^5+",9
"1349",4559,1312.09000002127,"re","re",1,9,"^2_^3_^4_^5_^6_v5_v4_v3_v2",1
"1350",4559,730.175000033341,"mi","mi",1,9,"^2_^3_^4_^5_^6_v5_v4_v3_v2",2
"1351",4559,504.979999968782,"fa","fa",1,9,"^2_^3_^4_^5_^6_v5_v4_v3_v2",3
"1352",4559,549.804999958724,"sol","sol",1,9,"^2_^3_^4_^5_^6_v5_v4_v3_v2",4
"1353",4559,696.564999991097,"la","la",1,9,"^2_^3_^4_^5_^6_v5_v4_v3_v2",5
"1354",4559,685.060000047088,"sol","sol",1,9,"^2_^3_^4_^5_^6_v5_v4_v3_v2",6
"1355",4559,582.500000018626,"fa","fa",1,9,"^2_^3_^4_^5_^6_v5_v4_v3_v2",7
"1356",4559,573.790000053123,"mi","mi",1,9,"^2_^3_^4_^5_^6_v5_v4_v3_v2",8
"1357",4559,595.515000051819,"re","re",1,9,"^2_^3_^4_^5_^6_v5_v4_v3_v2",9
"1358",4559,1113.9049999183,"ti","ti",1,9,"v7_v6_v5_^6_v5_v4_^5_^6_v5",1
"1359",4559,572.33500003349,"la","la",1,9,"v7_v6_v5_^6_v5_v4_^5_^6_v5",2
"1360",4559,865.044999984093,"sol","sol",1,9,"v7_v6_v5_^6_v5_v4_^5_^6_v5",3
"1361",4559,741.310000070371,"la","la",1,9,"v7_v6_v5_^6_v5_v4_^5_^6_v5",4
"1362",4559,606.350000016391,"sol","sol",1,9,"v7_v6_v5_^6_v5_v4_^5_^6_v5",5
"1363",4559,526.895000017248,"fa","fa",1,9,"v7_v6_v5_^6_v5_v4_^5_^6_v5",6
"1364",4559,696.32999994792,"sol","sol",1,9,"v7_v6_v5_^6_v5_v4_^5_^6_v5",7
"1365",4559,707.345000002533,"la","la",1,9,"v7_v6_v5_^6_v5_v4_^5_^6_v5",8
"1366",4559,572.294999961741,"sol","sol",1,9,"v7_v6_v5_^6_v5_v4_^5_^6_v5",9
"1367",4559,4545.09499995038,"sol","sol",1,9,"v5_v4_v6+_^7_^3+_v3_v2_v5_^4",1
"1368",4559,605.874999891967,"fi","fa",0,9,"v5_v4_v6+_^7_^3+_v3_v2_v5_^4",2
"1369",4559,493.900000001304,"fa","te",0,9,"v5_v4_v6+_^7_^3+_v3_v2_v5_^4",3
"1370",4559,1348.29500003252,"la","ti",0,9,"v5_v4_v6+_^7_^3+_v3_v2_v5_^4",4
"1371",4559,875.579999992624,"mi","mi",1,9,"v5_v4_v6+_^7_^3+_v3_v2_v5_^4",5
"1372",4559,1371.16000009701,"me","mi",0,9,"v5_v4_v6+_^7_^3+_v3_v2_v5_^4",6
"1373",4559,729.954999987967,"re","re",1,9,"v5_v4_v6+_^7_^3+_v3_v2_v5_^4",7
"1374",4559,1393.71999993455,"le","sol",0,9,"v5_v4_v6+_^7_^3+_v3_v2_v5_^4",8
"1375",4559,887.180000077933,"fa","fa",1,9,"v5_v4_v6+_^7_^3+_v3_v2_v5_^4",9
"1376",4559,1395.35999996588,"mi","mi",1,9,"^3_^4_^5_^6_v5_v4_v3_v2_v1",1
"1377",4559,617.8549999604,"fa","fa",1,9,"^3_^4_^5_^6_v5_v4_v3_v2_v1",2
"1378",4559,538.575000013225,"sol","sol",1,9,"^3_^4_^5_^6_v5_v4_v3_v2_v1",3
"1379",4559,550.329999998212,"la","la",1,9,"^3_^4_^5_^6_v5_v4_v3_v2_v1",4
"1380",4559,1078.46499991138,"sol","sol",1,9,"^3_^4_^5_^6_v5_v4_v3_v2_v1",5
"1381",4559,707.614999962971,"fa","fa",1,9,"^3_^4_^5_^6_v5_v4_v3_v2_v1",6
"1382",4559,809.024999965914,"mi","mi",1,9,"^3_^4_^5_^6_v5_v4_v3_v2_v1",7
"1383",4559,572.539999964647,"re","re",1,9,"^3_^4_^5_^6_v5_v4_v3_v2_v1",8
"1384",4559,752.399999997579,"do","do",1,9,"^3_^4_^5_^6_v5_v4_v3_v2_v1",9
"1385",4559,1161.88999998849,"mi","mi",1,9,"^3_^4_v2_v7_^1_^2_^3_3_^4",1
"1386",4559,471.235000062734,"fa","fa",1,9,"^3_^4_v2_v7_^1_^2_^3_3_^4",2
"1387",4559,617.804999928921,"re","re",1,9,"^3_^4_v2_v7_^1_^2_^3_3_^4",3
"1388",4559,944.115000078455,"ti","ti",1,9,"^3_^4_v2_v7_^1_^2_^3_3_^4",4
"1389",4559,1022.46499992907,"do","do",1,9,"^3_^4_v2_v7_^1_^2_^3_3_^4",5
"1390",4559,741.380000021309,"re","re",1,9,"^3_^4_v2_v7_^1_^2_^3_3_^4",6
"1391",4559,775.124999927357,"mi","mi",1,9,"^3_^4_v2_v7_^1_^2_^3_3_^4",7
"1392",4559,403.595000039786,"mi","mi",1,9,"^3_^4_v2_v7_^1_^2_^3_3_^4",8
"1393",4559,426.474999985658,"fa","fa",1,9,"^3_^4_v2_v7_^1_^2_^3_3_^4",9
"1394",46833,4575,"sol","sol",1,2,"^5_^1+",1
"1395",46833,5269,"ra","ra",1,2,"^5_^1+",2
"1396",46833,1308,"fa","fa",1,2,"v4_v3",1
"1397",46833,470,"mi","mi",1,2,"v4_v3",2
"1398",46833,1101,"sol","sol",1,2,"v5_v1+",1
"1399",46833,707,"ra","ra",1,2,"v5_v1+",2
"1400",46833,3696,"fa","re",0,2,"^2_v7-",1
"1401",46833,613,"re","te",0,2,"^2_v7-",2
"1402",46833,1257,"mi","mi",1,2,"3_^6",1
"1403",46833,634,"la","la",1,2,"3_^6",2
"1404",46833,885,"sol","mi",0,2,"^3_v4+",1
"1405",46833,867,"la","fi",0,2,"^3_v4+",2
"1406",46833,1038,"do","do",1,2,"^1_^2+",1
"1407",46833,876,"fi","me",0,2,"^1_^2+",2
"1408",46833,996,"mi","mi",1,2,"v3_v2",1
"1409",46833,666,"re","re",1,2,"v3_v2",2
"1410",46833,685,"re","re",1,2,"v2_v1",1
"1411",46833,515,"do","do",1,2,"v2_v1",2
"1412",46833,1088,"ti","ti",1,2,"v7_v3",1
"1413",46833,5994,"mi","mi",1,2,"v7_v3",2
"1414",46833,1162,"mi","mi",1,3,"v3_v2_v1",1
"1415",46833,642,"re","re",1,3,"v3_v2_v1",2
"1416",46833,579,"do","do",1,3,"v3_v2_v1",3
"1417",46833,1545,"do","do",1,3,"v1_v7-_v7-",1
"1418",46833,602,"te","te",1,3,"v1_v7-_v7-",2
"1419",46833,151,"te","te",1,3,"v1_v7-_v7-",3
"1420",46833,958,"sol","sol",1,3,"v5_v4_v3",1
"1421",46833,709,"fa","fa",1,3,"v5_v4_v3",2
"1422",46833,457,"mi","mi",1,3,"v5_v4_v3",3
"1423",46833,2524,"do","do",1,3,"^1_v6_v5+",1
"1424",46833,3211,"te","la",0,3,"^1_v6_v5+",2
"1425",46833,2011,"la","le",0,3,"^1_v6_v5+",3
"1426",46833,726,"do","do",1,3,"v1_v7-_^7",1
"1427",46833,442,"te","te",1,3,"v1_v7-_^7",2
"1428",46833,394,"ti","ti",1,3,"v1_v7-_^7",3
"1429",46833,1930,"fa","la",0,3,"6_^1_v5",1
"1430",46833,6086,"la","do",0,3,"6_^1_v5",2
"1431",46833,962,"mi","sol",0,3,"6_^1_v5",3
"1432",46833,1093,"re","re",1,3,"v2_v5_^3",1
"1433",46833,1118,"sol","sol",1,3,"v2_v5_^3",2
"1434",46833,747,"mi","mi",1,3,"v2_v5_^3",3
"1435",46833,724,"do","do",1,3,"1_v1+_^2",1
"1436",46833,484,"ra","ra",1,3,"1_v1+_^2",2
"1437",46833,464,"re","re",1,3,"1_v1+_^2",3
"1438",46833,1058,"fa","fa",1,3,"v4_v3_v2",1
"1439",46833,860,"mi","mi",1,3,"v4_v3_v2",2
"1440",46833,523,"re","re",1,3,"v4_v3_v2",3
"1441",46833,822,"sol","sol",1,5,"v5_^6+_^7_^1_5",1
"1442",46833,579,"la","te",0,5,"v5_^6+_^7_^1_5",2
"1443",46833,642,"ti","ti",1,5,"v5_^6+_^7_^1_5",3
"1444",46833,442,"do","do",1,5,"v5_^6+_^7_^1_5",4
"1445",46833,627,"sol","sol",1,5,"v5_^6+_^7_^1_5",5
"1446",46833,1597,"re","re",1,5,"v2_2_^3_^4_v2",1
"1447",46833,553,"re","re",1,5,"v2_2_^3_^4_v2",2
"1448",46833,2063,"mi","mi",1,5,"v2_2_^3_^4_v2",3
"1449",46833,518,"fa","fa",1,5,"v2_2_^3_^4_v2",4
"1450",46833,567,"re","re",1,5,"v2_2_^3_^4_v2",5
"1451",46833,1240,"sol","sol",1,5,"^5_^6_v5_v4_v3",1
"1452",46833,571,"la","la",1,5,"^5_^6_v5_v4_v3",2
"1453",46833,563,"sol","sol",1,5,"^5_^6_v5_v4_v3",3
"1454",46833,554,"fa","fa",1,5,"^5_^6_v5_v4_v3",4
"1455",46833,579,"mi","mi",1,5,"^5_^6_v5_v4_v3",5
"1456",46833,4968,"la","fi",0,5,"v5-_v3_3_^4+_v3",1
"1457",46833,418,"sol","mi",0,5,"v5-_v3_3_^4+_v3",2
"1458",46833,265,"sol","mi",0,5,"v5-_v3_3_^4+_v3",3
"1459",46833,421,"fa","fi",0,5,"v5-_v3_3_^4+_v3",4
"1460",46833,546,"sol","mi",0,5,"v5-_v3_3_^4+_v3",5
"1461",46833,802,"sol","sol",1,5,"v5_v4_v3_v2_v1",1
"1462",46833,615,"fa","fa",1,5,"v5_v4_v3_v2_v1",2
"1463",46833,604,"mi","mi",1,5,"v5_v4_v3_v2_v1",3
"1464",46833,644,"re","re",1,5,"v5_v4_v3_v2_v1",4
"1465",46833,532,"do","do",1,5,"v5_v4_v3_v2_v1",5
"1466",46833,796,"la","la",1,5,"^6_v5_v4_v3_v2",1
"1467",46833,612,"sol","sol",1,5,"^6_v5_v4_v3_v2",2
"1468",46833,596,"fa","fa",1,5,"^6_v5_v4_v3_v2",3
"1469",46833,417,"mi","mi",1,5,"^6_v5_v4_v3_v2",4
"1470",46833,581,"re","re",1,5,"^6_v5_v4_v3_v2",5
"1471",46833,1633,"la","la",1,5,"^6_v4_v3_^4_^5",1
"1472",46833,901,"fa","fa",1,5,"^6_v4_v3_^4_^5",2
"1473",46833,606,"mi","mi",1,5,"^6_v4_v3_^4_^5",3
"1474",46833,385,"fa","fa",1,5,"^6_v4_v3_^4_^5",4
"1475",46833,870,"sol","sol",1,5,"^6_v4_v3_^4_^5",5
"1476",46833,802,"sol","sol",1,5,"v5_v4_v3_v2_v1",6
"1477",46833,447,"fa","fa",1,5,"v5_v4_v3_v2_v1",7
"1478",46833,411,"mi","mi",1,5,"v5_v4_v3_v2_v1",8
"1479",46833,499,"re","re",1,5,"v5_v4_v3_v2_v1",9
"1480",46833,417,"do","do",1,5,"v5_v4_v3_v2_v1",10
"1481",46833,595,"me","fa",0,7,"^4_^5_^6_v5_v4_v3_v2",1
"1482",46833,1127,"fa","sol",0,7,"^4_^5_^6_v5_v4_v3_v2",2
"1483",46833,604,"sol","la",0,7,"^4_^5_^6_v5_v4_v3_v2",3
"1484",46833,523,"fa","sol",0,7,"^4_^5_^6_v5_v4_v3_v2",4
"1485",46833,540,"mi","fa",0,7,"^4_^5_^6_v5_v4_v3_v2",5
"1486",46833,1388,"re","mi",0,7,"^4_^5_^6_v5_v4_v3_v2",6
"1487",46833,5621,"do","re",0,7,"^4_^5_^6_v5_v4_v3_v2",7
"1488",46833,714,"do","do",1,7,"1_^3_v1_^5_v3_v2_^3",1
"1489",46833,1244,"mi","mi",1,7,"1_^3_v1_^5_v3_v2_^3",2
"1490",46833,583,"do","do",1,7,"1_^3_v1_^5_v3_v2_^3",3
"1491",46833,761,"sol","sol",1,7,"1_^3_v1_^5_v3_v2_^3",4
"1492",46833,630,"fa","mi",0,7,"1_^3_v1_^5_v3_v2_^3",5
"1493",46833,715,"re","re",1,7,"1_^3_v1_^5_v3_v2_^3",6
"1494",46833,644,"mi","mi",1,7,"1_^3_v1_^5_v3_v2_^3",7
"1495",46833,891,"sol","sol",1,7,"^5_^6_v5_v4_v3_v2_v1",1
"1496",46833,697,"la","la",1,7,"^5_^6_v5_v4_v3_v2_v1",2
"1497",46833,506,"sol","sol",1,7,"^5_^6_v5_v4_v3_v2_v1",3
"1498",46833,548,"fa","fa",1,7,"^5_^6_v5_v4_v3_v2_v1",4
"1499",46833,410,"mi","mi",1,7,"^5_^6_v5_v4_v3_v2_v1",5
"1500",46833,435,"re","re",1,7,"^5_^6_v5_v4_v3_v2_v1",6
"1501",46833,521,"do","do",1,7,"^5_^6_v5_v4_v3_v2_v1",7
"1502",46833,2274,"le","la",0,7,"^6_v5+_v4_^5+_v3_v1_v7-",1
"1503",46833,585,"sol","le",0,7,"^6_v5+_v4_^5+_v3_v1_v7-",2
"1504",46833,1353,"mi","fa",0,7,"^6_v5+_v4_^5+_v3_v1_v7-",3
"1505",46833,707,"sol","le",0,7,"^6_v5+_v4_^5+_v3_v1_v7-",4
"1506",46833,789,"fa","mi",0,7,"^6_v5+_v4_^5+_v3_v1_v7-",5
"1507",46833,3215,"me","do",0,7,"^6_v5+_v4_^5+_v3_v1_v7-",6
"1508",46833,853,"re","te",0,7,"^6_v5+_v4_^5+_v3_v1_v7-",7
"1509",46833,899,"do","do",1,7,"^1_v7_v6_v5_v4_v3_v2",1
"1510",46833,772,"ti","ti",1,7,"^1_v7_v6_v5_v4_v3_v2",2
"1511",46833,611,"la","la",1,7,"^1_v7_v6_v5_v4_v3_v2",3
"1512",46833,556,"sol","sol",1,7,"^1_v7_v6_v5_v4_v3_v2",4
"1513",46833,515,"fa","fa",1,7,"^1_v7_v6_v5_v4_v3_v2",5
"1514",46833,1112,"mi","mi",1,7,"^1_v7_v6_v5_v4_v3_v2",6
"1515",46833,869,"re","re",1,7,"^1_v7_v6_v5_v4_v3_v2",7
"1516",46833,1069,"do","do",1,7,"v1_^2_v1_v7_^1_^3_v2",1
"1517",46833,646,"re","re",1,7,"v1_^2_v1_v7_^1_^3_v2",2
"1518",46833,596,"do","do",1,7,"v1_^2_v1_v7_^1_^3_v2",3
"1519",46833,764,"ti","ti",1,7,"v1_^2_v1_v7_^1_^3_v2",4
"1520",46833,547,"do","do",1,7,"v1_^2_v1_v7_^1_^3_v2",5
"1521",46833,1402,"mi","mi",1,7,"v1_^2_v1_v7_^1_^3_v2",6
"1522",46833,603,"re","re",1,7,"v1_^2_v1_v7_^1_^3_v2",7
"1523",46833,5472,"mi","fa",0,7,"^4_v6-_v5-_^6-_^4_v2-_2-",1
"1524",46833,749,"la","le",0,7,"^4_v6-_v5-_^6-_^4_v2-_2-",2
"1525",46833,715,"sol","fi",0,7,"^4_v6-_v5-_^6-_^4_v2-_2-",3
"1526",46833,948,"la","le",0,7,"^4_v6-_v5-_^6-_^4_v2-_2-",4
"1527",46833,1229,"mi","fa",0,7,"^4_v6-_v5-_^6-_^4_v2-_2-",5
"1528",46833,702,"re","ra",0,7,"^4_v6-_v5-_^6-_^4_v2-_2-",6
"1529",46833,404,"re","ra",0,7,"^4_v6-_v5-_^6-_^4_v2-_2-",7
"1530",46833,1452,"mi","mi",1,9,"^3_^4_v2_v7_^1_^2_^3_3_^4",1
"1531",46833,515,"fa","fa",1,9,"^3_^4_v2_v7_^1_^2_^3_3_^4",2
"1532",46833,644,"re","re",1,9,"^3_^4_v2_v7_^1_^2_^3_3_^4",3
"1533",46833,764,"ti","ti",1,9,"^3_^4_v2_v7_^1_^2_^3_3_^4",4
"1534",46833,916,"ra","do",0,9,"^3_^4_v2_v7_^1_^2_^3_3_^4",5
"1535",46833,1321,"mi","re",0,9,"^3_^4_v2_v7_^1_^2_^3_3_^4",6
"1536",46833,143,"mi","mi",1,9,"^3_^4_v2_v7_^1_^2_^3_3_^4",7
"1537",46833,2361,"re","mi",0,9,"^3_^4_v2_v7_^1_^2_^3_3_^4",8
"1538",46833,2135,"mi","fa",0,9,"^3_^4_v2_v7_^1_^2_^3_3_^4",9
"1539",46833,7158,"ti","ti",1,9,"v7_v6_v5_^6_v5_v4_^5_^6_v5",1
"1540",46833,497,"la","la",1,9,"v7_v6_v5_^6_v5_v4_^5_^6_v5",2
"1541",46833,569,"sol","sol",1,9,"v7_v6_v5_^6_v5_v4_^5_^6_v5",3
"1542",46833,603,"fa","la",0,9,"v7_v6_v5_^6_v5_v4_^5_^6_v5",4
"1543",46833,612,"sol","sol",1,9,"v7_v6_v5_^6_v5_v4_^5_^6_v5",5
"1544",46833,524,"la","fa",0,9,"v7_v6_v5_^6_v5_v4_^5_^6_v5",6
"1545",46833,2527,"do","sol",0,9,"v7_v6_v5_^6_v5_v4_^5_^6_v5",7
"1546",46833,418,"ti","la",0,9,"v7_v6_v5_^6_v5_v4_^5_^6_v5",8
"1547",46833,901,"ti","sol",0,9,"v7_v6_v5_^6_v5_v4_^5_^6_v5",9
"1548",46833,950,"sol","sol",1,9,"^5_^6_v5_v4_v3_v2_v1_^2_^3",1
"1549",46833,773,"la","la",1,9,"^5_^6_v5_v4_v3_v2_v1_^2_^3",2
"1550",46833,579,"sol","sol",1,9,"^5_^6_v5_v4_v3_v2_v1_^2_^3",3
"1551",46833,635,"fa","fa",1,9,"^5_^6_v5_v4_v3_v2_v1_^2_^3",4
"1552",46833,1023,"re","mi",0,9,"^5_^6_v5_v4_v3_v2_v1_^2_^3",5
"1553",46833,460,"do","re",0,9,"^5_^6_v5_v4_v3_v2_v1_^2_^3",6
"1554",46833,498,"re","do",0,9,"^5_^6_v5_v4_v3_v2_v1_^2_^3",7
"1555",46833,546,"mi","re",0,9,"^5_^6_v5_v4_v3_v2_v1_^2_^3",8
"1556",46833,1909,"fi","mi",0,9,"^5_^6_v5_v4_v3_v2_v1_^2_^3",9
"1557",46833,1009,"do","re",0,9,"^2_^4_v3_v2_v1_v3_v2+_^3_^5+",1
"1558",46833,830,"mi","fa",0,9,"^2_^4_v3_v2_v1_v3_v2+_^3_^5+",2
"1559",46833,545,"re","mi",0,9,"^2_^4_v3_v2_v1_v3_v2+_^3_^5+",3
"1560",46833,531,"do","re",0,9,"^2_^4_v3_v2_v1_v3_v2+_^3_^5+",4
"1561",46833,918,"te","do",0,9,"^2_^4_v3_v2_v1_v3_v2+_^3_^5+",5
"1562",46833,877,"do","mi",0,9,"^2_^4_v3_v2_v1_v3_v2+_^3_^5+",6
"1563",46833,740,"me","me",1,9,"^2_^4_v3_v2_v1_v3_v2+_^3_^5+",7
"1564",46833,1828,"fa","mi",0,9,"^2_^4_v3_v2_v1_v3_v2+_^3_^5+",8
"1565",46833,473,"sol","le",0,9,"^2_^4_v3_v2_v1_v3_v2+_^3_^5+",9
"1566",46833,1273,"sol","sol",1,9,"v5_v4_v6+_^7_^3+_v3_v2_v5_^4",1
"1567",46833,563,"fa","fa",1,9,"v5_v4_v6+_^7_^3+_v3_v2_v5_^4",2
"1568",46833,1207,"mi","te",0,9,"v5_v4_v6+_^7_^3+_v3_v2_v5_^4",3
"1569",46833,1675,"te","ti",0,9,"v5_v4_v6+_^7_^3+_v3_v2_v5_^4",4
"1570",46833,482,"ti","mi",0,9,"v5_v4_v6+_^7_^3+_v3_v2_v5_^4",5
"1571",46833,893,"re","mi",0,9,"v5_v4_v6+_^7_^3+_v3_v2_v5_^4",6
"1572",46833,951,"me","re",0,9,"v5_v4_v6+_^7_^3+_v3_v2_v5_^4",7
"1573",46833,1418,"fa","sol",0,9,"v5_v4_v6+_^7_^3+_v3_v2_v5_^4",8
"1574",46833,441,"sol","fa",0,9,"v5_v4_v6+_^7_^3+_v3_v2_v5_^4",9
"1575",46833,1441,"re","re",1,9,"^2_^3_^4_^5_^6_v5_v4_v3_v2",1
"1576",46833,1079,"mi","mi",1,9,"^2_^3_^4_^5_^6_v5_v4_v3_v2",2
"1577",46833,613,"fa","fa",1,9,"^2_^3_^4_^5_^6_v5_v4_v3_v2",3
"1578",46833,546,"sol","sol",1,9,"^2_^3_^4_^5_^6_v5_v4_v3_v2",4
"1579",46833,409,"la","la",1,9,"^2_^3_^4_^5_^6_v5_v4_v3_v2",5
"1580",46833,426,"sol","sol",1,9,"^2_^3_^4_^5_^6_v5_v4_v3_v2",6
"1581",46833,646,"fa","fa",1,9,"^2_^3_^4_^5_^6_v5_v4_v3_v2",7
"1582",46833,1216,"mi","mi",1,9,"^2_^3_^4_^5_^6_v5_v4_v3_v2",8
"1583",46833,643,"re","re",1,9,"^2_^3_^4_^5_^6_v5_v4_v3_v2",9
"1584",46833,1008,"mi","mi",1,9,"^3_^4_^5_^6_v5_v4_v3_v2_v1",1
"1585",46833,433,"fa","fa",1,9,"^3_^4_^5_^6_v5_v4_v3_v2_v1",2
"1586",46833,435,"sol","sol",1,9,"^3_^4_^5_^6_v5_v4_v3_v2_v1",3
"1587",46833,346,"la","la",1,9,"^3_^4_^5_^6_v5_v4_v3_v2_v1",4
"1588",46833,407,"sol","sol",1,9,"^3_^4_^5_^6_v5_v4_v3_v2_v1",5
"1589",46833,420,"fa","fa",1,9,"^3_^4_^5_^6_v5_v4_v3_v2_v1",6
"1590",46833,757,"mi","mi",1,9,"^3_^4_^5_^6_v5_v4_v3_v2_v1",7
"1591",46833,619,"re","re",1,9,"^3_^4_^5_^6_v5_v4_v3_v2_v1",8
"1592",46833,684,"do","do",1,9,"^3_^4_^5_^6_v5_v4_v3_v2_v1",9
"1593",48542,8012.01500000025,"mi","re",0,2,"^2_v7-",1
"1594",48542,8951.56499999936,"re","te",0,2,"^2_v7-",2
"1595",48542,9027.95500000136,"fa","mi",0,2,"v3_v2",1
"1596",48542,1426.4049999984,"me","re",0,2,"v3_v2",2
"1597",48542,8467.74000000011,"re","re",1,2,"v2_v1",1
"1598",48542,842.120000001159,"do","do",1,2,"v2_v1",2
"1599",48542,5601.93500000238,"sol","mi",0,2,"^3_v4+",1
"1600",48542,752.764999997453,"la","fi",0,2,"^3_v4+",2
"1601",48542,7825.4649999981,"ti","ti",1,2,"v7_v3",1
"1602",48542,1858.54499999911,"sol","mi",0,2,"v7_v3",2
"1603",48542,4795.97999999905,"do","do",1,2,"^1_^2+",1
"1604",48542,2000.36499999987,"me","me",1,2,"^1_^2+",2
"1605",48542,7772.03000000014,"te","sol",0,2,"^5_^1+",1
"1606",48542,1125.75500000082,"do","ra",0,2,"^5_^1+",2
"1607",48542,3396.90499999782,"sol","sol",1,2,"v5_v1+",1
"1608",48542,4875.43999999983,"ra","ra",1,2,"v5_v1+",2
"1609",48542,14341.6400000023,"fa","mi",0,2,"3_^6",1
"1610",48542,1835.33499999973,"la","la",1,2,"3_^6",2
"1611",48542,10932.6149999979,"fa","fa",1,2,"v4_v3",1
"1612",48542,2295.4299999983,"me","mi",0,2,"v4_v3",2
"1613",48542,2144.5299999977,"sol","sol",1,3,"v5_v4_v3",1
"1614",48542,680.745000001509,"fa","fa",1,3,"v5_v4_v3",2
"1615",48542,1268.35999999824,"mi","mi",1,3,"v5_v4_v3",3
"1616",48542,2387.91000000131,"mi","mi",1,3,"v3_v2_v1",1
"1617",48542,638.699999999604,"re","re",1,3,"v3_v2_v1",2
"1618",48542,842.609999999637,"do","do",1,3,"v3_v2_v1",3
"1619",48542,7716.41499999899,"ti","do",0,3,"v1_v7-_^7",1
"1620",48542,1450.33999999939,"sol","te",0,3,"v1_v7-_^7",2
"1621",48542,1074.86000000068,"la","ti",0,3,"v1_v7-_^7",3
"1622",48542,6936.2849999998,"mi","re",0,3,"v2_v5_^3",1
"1623",48542,1618.01999999804,"la","sol",0,3,"v2_v5_^3",2
"1624",48542,760.865000000107,"sol","mi",0,3,"v2_v5_^3",3
"1625",48542,5630.17999999644,"la","la",1,3,"6_^1_v5",1
"1626",48542,4035.84000000043,"do","do",1,3,"6_^1_v5",2
"1627",48542,2216.71000000054,"ti","sol",0,3,"6_^1_v5",3
"1628",48542,6736.41999999748,"do","do",1,3,"^1_v6_v5+",1
"1629",48542,4160.59500000125,"le","la",0,3,"^1_v6_v5+",2
"1630",48542,3169.33500000229,"sol","le",0,3,"^1_v6_v5+",3
"1631",48542,4782.00500000105,"fa","fa",1,3,"v4_v3_v2",1
"1632",48542,984.294999998296,"mi","mi",1,3,"v4_v3_v2",2
"1633",48542,4388.3850000021,"re","re",1,3,"v4_v3_v2",3
"1634",48542,1100.83500000113,"do","do",1,3,"1_v1+_^2",1
"1635",48542,510.409999998985,"ra","ra",1,3,"1_v1+_^2",2
"1636",48542,644.370000001742,"re","re",1,3,"1_v1+_^2",3
"1637",48542,12246.4000000001,"mi","do",0,3,"v1_v7-_v7-",1
"1638",48542,403.935000002151,"me","te",0,3,"v1_v7-_v7-",2
"1639",48542,216.39499999932,"me","te",0,3,"v1_v7-_v7-",3
"1640",48542,4022.50999999885,"ra","re",0,5,"v2_2_^3_^4_v2",1
"1641",48542,672.20499999891,"ra","re",0,5,"v2_2_^3_^4_v2",2
"1642",48542,2056.91999999923,"mi","mi",1,5,"v2_2_^3_^4_v2",3
"1643",48542,974.494999998482,"fa","fa",1,5,"v2_2_^3_^4_v2",4
"1644",48542,1524.52500000084,"ra","re",0,5,"v2_2_^3_^4_v2",5
"1645",48542,3364.13499999978,"la","la",1,5,"^6_v5_v4_v3_v2",1
"1646",48542,1070.9300000018,"sol","sol",1,5,"^6_v5_v4_v3_v2",2
"1647",48542,606.475000000559,"fa","fa",1,5,"^6_v5_v4_v3_v2",3
"1648",48542,4996.7099999995,"mi","mi",1,5,"^6_v5_v4_v3_v2",4
"1649",48542,2776.35999999987,"re","re",1,5,"^6_v5_v4_v3_v2",5
"1650",48542,6867.92000000062,"me","fi",0,5,"v5-_v3_3_^4+_v3",1
"1651",48542,543.46499999892,"re","mi",0,5,"v5-_v3_3_^4+_v3",2
"1652",48542,492.409999998985,"re","mi",0,5,"v5-_v3_3_^4+_v3",3
"1653",48542,632.804999997607,"me","fi",0,5,"v5-_v3_3_^4+_v3",4
"1654",48542,1110.66500000027,"re","mi",0,5,"v5-_v3_3_^4+_v3",5
"1655",48542,2020.12000000104,"sol","sol",1,5,"v5_v4_v3_v2_v1",1
"1656",48542,695.74500000081,"fa","fa",1,5,"v5_v4_v3_v2_v1",2
"1657",48542,680.70499999891,"me","mi",0,5,"v5_v4_v3_v2_v1",3
"1658",48542,1795.20499999844,"re","re",1,5,"v5_v4_v3_v2_v1",4
"1659",48542,778.975000001024,"do","do",1,5,"v5_v4_v3_v2_v1",5
"1660",48542,11400.9650000008,"re","sol",0,5,"v5_^6+_^7_^1_5",1
"1661",48542,1426.59999999893,"mi","te",0,5,"v5_^6+_^7_^1_5",2
"1662",48542,1132.19500000193,"fa","ti",0,5,"v5_^6+_^7_^1_5",3
"1663",48542,1102.71999999904,"sol","do",0,5,"v5_^6+_^7_^1_5",4
"1664",48542,3642.57499999809,"fa","sol",0,5,"v5_^6+_^7_^1_5",5
"1665",48542,5044.64499999816,"sol","sol",1,5,"^5_^6_v5_v4_v3",1
"1666",48542,1322.13500000234,"la","la",1,5,"^5_^6_v5_v4_v3",2
