"","subject","rt","button_pressed_vector_c","trial_answer","score","trial_length","stimulus","serial_order"
"1",22189,8895.46499995049,"re","mi",0,2,"3_^6",1
"2",22189,5564.97000006493,"sol","la",0,2,"3_^6",2
"3",22189,14950.9799999651,"mi","mi",1,2,"v3_v2",1
"4",22189,903.240000014193,"re","re",1,2,"v3_v2",2
"5",22189,3822.56999996025,"do","re",0,2,"^2_v7-",1
"6",22189,17797.6100000087,"sol","te",0,2,"^2_v7-",2
"7",22189,11954.9549999647,"la","sol",0,2,"v5_v1+",1
"8",22189,19848.2749999966,"re","ra",0,2,"v5_v1+",2
"9",22189,11023.0549999978,"re","sol",0,2,"^5_^1+",1
"10",22189,3861.91500001587,"le","ra",0,2,"^5_^1+",2
"11",22189,34501.569999964,"le","mi",0,2,"^3_v4+",1
"12",22189,840.169999981299,"la","fi",0,2,"^3_v4+",2
"13",22189,27795.8050000016,"fa","fa",1,2,"v4_v3",1
"14",22189,5164.21499999706,"mi","mi",1,2,"v4_v3",2
"15",22189,14180.534999934,"fi","ti",0,2,"v7_v3",1
"16",22189,1671.36999999639,"ra","mi",0,2,"v7_v3",2
"17",22189,1553.31499991007,"do","do",1,2,"^1_^2+",1
"18",22189,5882.40000000224,"me","me",1,2,"^1_^2+",2
"19",22189,3452.98499998171,"ra","re",0,2,"v2_v1",1
"20",22189,2218.28999998979,"ti","do",0,2,"v2_v1",2
"21",22189,11433.480000007,"do","do",1,3,"^1_v6_v5+",1
"22",22189,8025.44999995735,"te","la",0,3,"^1_v6_v5+",2
"23",22189,1239.09500008449,"la","le",0,3,"^1_v6_v5+",3
"24",22189,13680.8650000021,"do","do",1,3,"v1_v7-_^7",1
"25",22189,2585.59999999125,"la","te",0,3,"v1_v7-_^7",2
"26",22189,605.045000091195,"te","ti",0,3,"v1_v7-_^7",3
"27",22189,8118.00999997649,"re","do",0,3,"1_v1+_^2",1
"28",22189,520.549999899231,"me","ra",0,3,"1_v1+_^2",2
"29",22189,540.440000011586,"mi","re",0,3,"1_v1+_^2",3
"30",22189,22899.3300000438,"do","la",0,3,"6_^1_v5",1
"31",22189,4531.33999998681,"mi","do",0,3,"6_^1_v5",2
"32",22189,563.419999903999,"fa","sol",0,3,"6_^1_v5",3
"33",22189,19301.7100000288,"do","re",0,3,"v2_v5_^3",1
"34",22189,1512.86500005517,"sol","sol",1,3,"v2_v5_^3",2
"35",22189,1262.89999997243,"mi","mi",1,3,"v2_v5_^3",3
"36",22189,21087.5450000167,"fa","fa",1,3,"v4_v3_v2",1
"37",22189,738.060000003316,"mi","mi",1,3,"v4_v3_v2",2
"38",22189,711.24500001315,"re","re",1,3,"v4_v3_v2",3
"39",22189,2030.03999998327,"mi","mi",1,3,"v3_v2_v1",1
"40",22189,660.885000019334,"re","re",1,3,"v3_v2_v1",2
"41",22189,767.529999953695,"do","do",1,3,"v3_v2_v1",3
"42",22189,11262.1250000084,"sol","sol",1,3,"v5_v4_v3",1
"43",22189,1684.44499990437,"fa","fa",1,3,"v5_v4_v3",2
"44",22189,1593.24000007473,"mi","mi",1,3,"v5_v4_v3",3
"45",22189,27495.0749999844,"me","do",0,3,"v1_v7-_7-",1
"46",22189,1305.92499999329,"do","te",0,3,"v1_v7-_7-",2
"47",22189,611.890000058338,"do","te",0,3,"v1_v7-_7-",3
"48",22189,17878.7399999565,"me","fi",0,5,"v5-_v3_3_^4+_v3",1
"49",22189,1011.6299999645,"re","mi",0,5,"v5-_v3_3_^4+_v3",2
"50",22189,454.524999950081,"re","mi",0,5,"v5-_v3_3_^4+_v3",3
"51",22189,561.744999955408,"me","fi",0,5,"v5-_v3_3_^4+_v3",4
"52",22189,575.454999925569,"re","mi",0,5,"v5-_v3_3_^4+_v3",5
"53",22189,2341.86500008218,"sol","sol",1,5,"v5_v4_v3_v2_v1 ",1
"54",22189,941.684999968857,"fa","fa",1,5,"v5_v4_v3_v2_v1 ",2
"55",22189,940.760000026785,"mi","mi",1,5,"v5_v4_v3_v2_v1 ",3
"56",22189,833.059999975376,"re","re",1,5,"v5_v4_v3_v2_v1 ",4
"57",22189,928.550000069663,"do","1 ",0,5,"v5_v4_v3_v2_v1 ",5
"58",22189,14346.8700000085,"sol","sol",1,5,"^5_^6_v5_v4_v3",1
"59",22189,1563.44000005629,"fa","la",0,5,"^5_^6_v5_v4_v3",2
"60",22189,3259.84499999322,"sol","sol",1,5,"^5_^6_v5_v4_v3",3
"61",22189,952.129999990575,"fa","fa",1,5,"^5_^6_v5_v4_v3",4
"62",22189,540.670000016689,"mi","mi",1,5,"^5_^6_v5_v4_v3",5
"63",22189,2231.68000008445,"sol","sol",1,5,"v5_v4_v3_v2_v1",1
"64",22189,1026.91000001505,"fa","fa",1,5,"v5_v4_v3_v2_v1",2
"65",22189,561.814999906346,"mi","mi",1,5,"v5_v4_v3_v2_v1",3
"66",22189,661.784999887459,"re","re",1,5,"v5_v4_v3_v2_v1",4
"67",22189,755.284999962896,"do","do",1,5,"v5_v4_v3_v2_v1",5
"68",22189,6107.90999990422,"ra","re",0,5,"v2_2_^3_^4_v2",1
"69",22189,765.485000098124,"ra","re",0,5,"v2_2_^3_^4_v2",2
"70",22189,5651.37500001583,"me","mi",0,5,"v2_2_^3_^4_v2",3
"71",22189,6587.65999996103,"mi","fa",0,5,"v2_2_^3_^4_v2",4
"72",22189,5072.71000009496,"ra","re",0,5,"v2_2_^3_^4_v2",5
"73",22189,22689.1900000628,"la","la",1,5,"^6_v4_v3_^4_^5",1
"74",22189,1649.5049999794,"sol","fa",0,5,"^6_v4_v3_^4_^5",2
"75",22189,1248.54499998037,"fa","mi",0,5,"^6_v4_v3_^4_^5",3
"76",22189,1097.84000006039,"mi","fa",0,5,"^6_v4_v3_^4_^5",4
"77",22189,1564.49500005692,"me","sol",0,5,"^6_v4_v3_^4_^5",5
"78",22189,23778.5999999614,"la","la",1,5,"^6_v5_v4_v3_v2",1
"79",22189,832.554999971762,"sol","sol",1,5,"^6_v5_v4_v3_v2",2
"80",22189,740.044999984093,"fa","fa",1,5,"^6_v5_v4_v3_v2",3
"81",22189,1665.06999998819,"mi","mi",1,5,"^6_v5_v4_v3_v2",4
"82",22189,948.949999990873,"re","re",1,5,"^6_v5_v4_v3_v2",5
"83",22189,16619.2049999954,"fa","sol",0,5,"v5_^6+_^7_^1_5",1
"84",22189,346.209999988787,"fa","te",0,5,"v5_^6+_^7_^1_5",2
"85",22189,1399.92499991786,"sol","ti",0,5,"v5_^6+_^7_^1_5",3
"86",22189,5701.2050000485,"le","do",0,5,"v5_^6+_^7_^1_5",4
"87",22189,810.749999945983,"fa","sol",0,5,"v5_^6+_^7_^1_5",5
"88",22189,18177.7800000273,"fa","la",0,7,"^6_v5+_v4_^5+_v3_v1_v7-",1
"89",22189,1141.13000000361,"me","le",0,7,"^6_v5+_v4_^5+_v3_v1_v7-",2
"90",22189,2771.7699999921,"re","fa",0,7,"^6_v5+_v4_^5+_v3_v1_v7-",3
"91",22189,927.219999954104,"do","le",0,7,"^6_v5+_v4_^5+_v3_v1_v7-",4
"92",22189,2352.04500006512,"la","mi",0,7,"^6_v5+_v4_^5+_v3_v1_v7-",5
"93",22189,694.825000013225,"ti","do",0,7,"^6_v5+_v4_^5+_v3_v1_v7-",6
"94",22189,1105.01499997918,"la","te",0,7,"^6_v5+_v4_^5+_v3_v1_v7-",7
"95",22189,5405.69000004325,"re","fa",0,7,"^4_^5_^6_v5_v4_v3_v2",1
"96",22189,838.909999933094,"mi","sol",0,7,"^4_^5_^6_v5_v4_v3_v2",2
"97",22189,669.484999962151,"re","la",0,7,"^4_^5_^6_v5_v4_v3_v2",3
"98",22189,654.53499997966,"do","sol",0,7,"^4_^5_^6_v5_v4_v3_v2",4
"99",22189,1628.34000005387,"ti","fa",0,7,"^4_^5_^6_v5_v4_v3_v2",5
"100",22189,583.220000029542,"la","mi",0,7,"^4_^5_^6_v5_v4_v3_v2",6
"101",22189,1391.98499999475,"sol","re",0,7,"^4_^5_^6_v5_v4_v3_v2",7
"102",22189,1264.96999990195,"do","do",1,7,"^1_v7_v6_v5_v4_v3_v2",1
"103",22189,669.755000039004,"ti","ti",1,7,"^1_v7_v6_v5_v4_v3_v2",2
"104",22189,633.085000095889,"la","la",1,7,"^1_v7_v6_v5_v4_v3_v2",3
"105",22189,632.759999949485,"sol","sol",1,7,"^1_v7_v6_v5_v4_v3_v2",4
"106",22189,762.204999919049,"fa","fa",1,7,"^1_v7_v6_v5_v4_v3_v2",5
"107",22189,690.850000013597,"mi","mi",1,7,"^1_v7_v6_v5_v4_v3_v2",6
"108",22189,2366.8399999151,"re","re",1,7,"^1_v7_v6_v5_v4_v3_v2",7
"109",22189,4479.25500001293,"la","fa",0,7,"^4_v6-_v5-_^6-_^4_v2-_2-",1
"110",22189,976.165000000037,"re","le",0,7,"^4_v6-_v5-_^6-_^4_v2-_2-",2
"111",22189,796.400000108406,"mi","fi",0,7,"^4_v6-_v5-_^6-_^4_v2-_2-",3
"112",22189,1891.44500007387,"re","le",0,7,"^4_v6-_v5-_^6-_^4_v2-_2-",4
"113",22189,1048.56999998447,"la","fa",0,7,"^4_v6-_v5-_^6-_^4_v2-_2-",5
"114",22189,1479.50499993749,"fi","ra",0,7,"^4_v6-_v5-_^6-_^4_v2-_2-",6
"115",22189,517.735000001267,"fi","ra",0,7,"^4_v6-_v5-_^6-_^4_v2-_2-",7
"116",22189,1461.81000000797,"me","do",0,7,"1_^3_v1_^5_v3_v2_^3",1
"117",22189,1173.13500004821,"ti","mi",0,7,"1_^3_v1_^5_v3_v2_^3",2
"118",22189,765.654999995604,"le","do",0,7,"1_^3_v1_^5_v3_v2_^3",3
"119",22189,856.904999935068,"fi","sol",0,7,"1_^3_v1_^5_v3_v2_^3",4
"120",22189,667.765000020154,"le","mi",0,7,"1_^3_v1_^5_v3_v2_^3",5
"121",22189,2423.53999998886,"fi","re",0,7,"1_^3_v1_^5_v3_v2_^3",6
"122",22189,1701.20999997016,"te","mi",0,7,"1_^3_v1_^5_v3_v2_^3",7
"123",22189,10592.1700000763,"sol","sol",1,7,"^5_^6_v5_v4_v3_v2_v1",1
"124",22189,901.169999968261,"la","la",1,7,"^5_^6_v5_v4_v3_v2_v1",2
"125",22189,675.879999995232,"sol","sol",1,7,"^5_^6_v5_v4_v3_v2_v1",3
"126",22189,713.034999906085,"fa","fa",1,7,"^5_^6_v5_v4_v3_v2_v1",4
"127",22189,1033.70000002906,"re","mi",0,7,"^5_^6_v5_v4_v3_v2_v1",5
"128",22189,791.489999974146,"do","re",0,7,"^5_^6_v5_v4_v3_v2_v1",6
"129",22189,626.784999971278,"do","do",1,7,"^5_^6_v5_v4_v3_v2_v1",7
"130",22189,5036.6300001042,"te","do",0,7,"v1_^2_v1_v7_^1_^3_v2",1
"131",22189,1236.74000008032,"do","re",0,7,"v1_^2_v1_v7_^1_^3_v2",2
"132",22189,559.705000021495,"te","do",0,7,"v1_^2_v1_v7_^1_^3_v2",3
"133",22189,641.735000070184,"le","ti",0,7,"v1_^2_v1_v7_^1_^3_v2",4
"134",22189,933.184999972582,"fa","do",0,7,"v1_^2_v1_v7_^1_^3_v2",5
"135",22189,740.519999992102,"le","mi",0,7,"v1_^2_v1_v7_^1_^3_v2",6
"136",22189,1491.50999996345,"sol","re",0,7,"v1_^2_v1_v7_^1_^3_v2",7
"137",22189,4003.35999997333,"do","ti",0,9,"v7_v6_v5_^6_v5_v4_^5_^6_v5",1
"138",22189,2315.16500003636,"te","la",0,9,"v7_v6_v5_^6_v5_v4_^5_^6_v5",2
"139",22189,1522.62000006158,"do","sol",0,9,"v7_v6_v5_^6_v5_v4_^5_^6_v5",3
"140",22189,696.409999975003,"te","la",0,9,"v7_v6_v5_^6_v5_v4_^5_^6_v5",4
"141",22189,912.600000039674,"le","sol",0,9,"v7_v6_v5_^6_v5_v4_^5_^6_v5",5
"142",22189,1699.3149999762,"fi","fa",0,9,"v7_v6_v5_^6_v5_v4_^5_^6_v5",6
"143",22189,861.83000006713,"le","sol",0,9,"v7_v6_v5_^6_v5_v4_^5_^6_v5",7
"144",22189,1078.28500005417,"fi","la",0,9,"v7_v6_v5_^6_v5_v4_^5_^6_v5",8
"145",22189,769.854999962263,"fa","sol",0,9,"v7_v6_v5_^6_v5_v4_^5_^6_v5",9
"146",22189,2716.04500000831,"fa","mi",0,9,"^3_^4_v2_v7_^1_^2_^3_3_^4",1
"147",22189,772.035000030883,"sol","fa",0,9,"^3_^4_v2_v7_^1_^2_^3_3_^4",2
"148",22189,574.619999970309,"fa","re",0,9,"^3_^4_v2_v7_^1_^2_^3_3_^4",3
"149",22189,2051.46499990951,"re","ti",0,9,"^3_^4_v2_v7_^1_^2_^3_3_^4",4
"150",22189,1907.04499999993,"mi","do",0,9,"^3_^4_v2_v7_^1_^2_^3_3_^4",5
"151",22189,577.580000041053,"re","re",1,9,"^3_^4_v2_v7_^1_^2_^3_3_^4",6
"152",22189,661.730000050738,"do","mi",0,9,"^3_^4_v2_v7_^1_^2_^3_3_^4",7
"153",22189,551.74500006251,"re","mi",0,9,"^3_^4_v2_v7_^1_^2_^3_3_^4",8
"154",22189,790.299999993294,"mi","fa",0,9,"^3_^4_v2_v7_^1_^2_^3_3_^4",9
"155",22189,1363.43500006478,"do","sol",0,9,"v5_v4_v6+_^7_^3+_v3_v2_v5_^4",1
"156",22189,531.929999939166,"ti","fa",0,9,"v5_v4_v6+_^7_^3+_v3_v2_v5_^4",2
"157",22189,809.149999986403,"fi","te",0,9,"v5_v4_v6+_^7_^3+_v3_v2_v5_^4",3
"158",22189,1327.47000001837,"te","ti",0,9,"v5_v4_v6+_^7_^3+_v3_v2_v5_^4",4
"159",22189,746.805000002496,"le","3+",0,9,"v5_v4_v6+_^7_^3+_v3_v2_v5_^4",5
"160",22189,1071.01499999408,"me","mi",0,9,"v5_v4_v6+_^7_^3+_v3_v2_v5_^4",6
"161",22189,1306.37499992736,"sol","re",0,9,"v5_v4_v6+_^7_^3+_v3_v2_v5_^4",7
"162",22189,554.810000001453,"fi","sol",0,9,"v5_v4_v6+_^7_^3+_v3_v2_v5_^4",8
"163",22189,1213.23999995366,"re","fa",0,9,"v5_v4_v6+_^7_^3+_v3_v2_v5_^4",9
"164",22189,1651.25999995507,"re","re",1,9,"^2_^4_v3_v2_v1_v3_v2+_^3_^5+",1
"165",22189,814.110000035726,"te","fa",0,9,"^2_^4_v3_v2_v1_v3_v2+_^3_^5+",2
"166",22189,1083.23500002734,"la","mi",0,9,"^2_^4_v3_v2_v1_v3_v2+_^3_^5+",3
"167",22189,1700.52499999292,"sol","re",0,9,"^2_^4_v3_v2_v1_v3_v2+_^3_^5+",4
"168",22189,925.979999941774,"fa","do",0,9,"^2_^4_v3_v2_v1_v3_v2+_^3_^5+",5
"169",22189,675.285000004806,"le","mi",0,9,"^2_^4_v3_v2_v1_v3_v2+_^3_^5+",6
"170",22189,625.024999957532,"sol","me",0,9,"^2_^4_v3_v2_v1_v3_v2+_^3_^5+",7
"171",22189,648.010000004433,"mi","mi",1,9,"^2_^4_v3_v2_v1_v3_v2+_^3_^5+",8
"172",22189,857.390000019222,"re","le",0,9,"^2_^4_v3_v2_v1_v3_v2+_^3_^5+",9
"173",22189,2410.96999996807,"sol","sol",1,9,"^5_^6_v5_v4_v3_v2_v1_^2_^3",1
"174",22189,590.059999958612,"la","la",1,9,"^5_^6_v5_v4_v3_v2_v1_^2_^3",2
"175",22189,1040.76499992516,"sol","sol",1,9,"^5_^6_v5_v4_v3_v2_v1_^2_^3",3
"176",22189,740.434999926947,"fa","fa",1,9,"^5_^6_v5_v4_v3_v2_v1_^2_^3",4
"177",22189,741.049999953248,"mi","mi",1,9,"^5_^6_v5_v4_v3_v2_v1_^2_^3",5
"178",22189,848.35500002373,"re","re",1,9,"^5_^6_v5_v4_v3_v2_v1_^2_^3",6
"179",22189,1592.79499994591,"do","do",1,9,"^5_^6_v5_v4_v3_v2_v1_^2_^3",7
"180",22189,725.609999964945,"re","re",1,9,"^5_^6_v5_v4_v3_v2_v1_^2_^3",8
"181",22189,683.770000003278,"mi","mi",1,9,"^5_^6_v5_v4_v3_v2_v1_^2_^3",9
"182",22189,16950.130000012,"do","re",0,9,"^2_^3_^4_^5_^6_v5_v4_v3_v2",1
"183",22189,655.660000047646,"re","mi",0,9,"^2_^3_^4_^5_^6_v5_v4_v3_v2",2
"184",22189,510.540000046603,"me","fa",0,9,"^2_^3_^4_^5_^6_v5_v4_v3_v2",3
"185",22189,719.144999980927,"fa","sol",0,9,"^2_^3_^4_^5_^6_v5_v4_v3_v2",4
"186",22189,770.295000053011,"sol","la",0,9,"^2_^3_^4_^5_^6_v5_v4_v3_v2",5
"187",22189,740.699999965727,"fa","sol",0,9,"^2_^3_^4_^5_^6_v5_v4_v3_v2",6
"188",22189,733.224999974482,"me","fa",0,9,"^2_^3_^4_^5_^6_v5_v4_v3_v2",7
"189",22189,612.959999940358,"re","mi",0,9,"^2_^3_^4_^5_^6_v5_v4_v3_v2",8
"190",22189,1262.88000005297,"do","re",0,9,"^2_^3_^4_^5_^6_v5_v4_v3_v2",9
"191",22189,2581.14499994554,"fa","mi",0,9,"^3_^4_^5 _^6_v5_v4_v3_v2_v1",1
"192",22189,3253.81999998353,"sol","fa",0,9,"^3_^4_^5 _^6_v5_v4_v3_v2_v1",2
"193",22189,1005.34999999218,"fa","5 ",0,9,"^3_^4_^5 _^6_v5_v4_v3_v2_v1",3
"194",22189,1320.4600000754,"mi","la",0,9,"^3_^4_^5 _^6_v5_v4_v3_v2_v1",4
"195",22189,915.860000066459,"re","sol",0,9,"^3_^4_^5 _^6_v5_v4_v3_v2_v1",5
"196",22189,2889.36999998987,"do","fa",0,9,"^3_^4_^5 _^6_v5_v4_v3_v2_v1",6
"197",22189,1055.64499995671,"la","mi",0,9,"^3_^4_^5 _^6_v5_v4_v3_v2_v1",7
"198",22189,776.799999992363,"sol","re",0,9,"^3_^4_^5 _^6_v5_v4_v3_v2_v1",8
"199",22189,590.304999961518,"la","do",0,9,"^3_^4_^5 _^6_v5_v4_v3_v2_v1",9
"200",4559,1525.08499997202,"do","do",1,2,"^1_^2+",1
"201",4559,1505.28500007931,"me","me",1,2,"^1_^2+",2
"202",4559,1293.95500000101,"re","re",1,2,"^2_v7-",1
"203",4559,1066.51500007138,"te","te",1,2,"^2_v7-",2
"204",4559,967.049999977462,"re","re",1,2,"v2_v1",1
"205",4559,864.844999974594,"do","do",1,2,"v2_v1",2
"206",4559,1218.5649999883,"mi","mi",1,2,"^3_v4+",1
"207",4559,673.640000051819,"fi","fi",1,2,"^3_v4+",2
"208",4559,1165.29999999329,"fa","fa",1,2,"v4_v3",1
"209",4559,426.184999989346,"mi","mi",1,2,"v4_v3",2
"210",4559,1169.24000007566,"sol","sol",1,2,"v5_v1+",1
"211",4559,628.625000012107,"ra","ra",1,2,"v5_v1+",2
"212",4559,996.820000000298,"mi","mi",1,2,"v3_v2",1
"213",4559,482.480000006035,"re","re",1,2,"v3_v2",2
"214",4559,938.090000068769,"mi","mi",1,2,"3_^6",1
"215",4559,988.664999953471,"la","la",1,2,"3_^6",2
"216",4559,998.660000041127,"sol","sol",1,2,"^5_^1+",1
"217",4559,718.394999974407,"ra","ra",1,2,"^5_^1+",2
"218",4559,792.589999968186,"ti","ti",1,2,"v7_v3",1
"219",4559,840.94499994535,"mi","mi",1,2,"v7_v3",2
"220",4559,1039.77500007022,"fa","fa",1,3,"v4_v3_v2",1
"221",4559,470.865000039339,"mi","mi",1,3,"v4_v3_v2",2
"222",4559,730.054999934509,"re","re",1,3,"v4_v3_v2",3
"223",4559,757.734999991953,"do","do",1,3,"v1_v7-_^7",1
"224",4559,504.935000091791,"te","te",1,3,"v1_v7-_^7",2
"225",4559,369.485000032,"ti","ti",1,3,"v1_v7-_^7",3
"226",4559,770.985000068322,"do","do",1,3,"^1_v6_v5+",1
"227",4559,776.190000004135,"la","la",1,3,"^1_v6_v5+",2
"228",4559,435.949999955483,"le","le",1,3,"^1_v6_v5+",3
"229",4559,1282.44999994058,"la","la",1,3,"6_^1_v5",1
"230",4559,808.365000062622,"do","do",1,3,"6_^1_v5",2
"231",4559,831.450000056066,"sol","sol",1,3,"6_^1_v5",3
"232",4559,1045.69499997888,"sol","sol",1,3,"v5_v4_v3",1
"233",4559,540.55499995593,"fa","fa",1,3,"v5_v4_v3",2
"234",4559,357.135000056587,"mi","mi",1,3,"v5_v4_v3",3
"235",4559,527.590000070632,"do","do",1,3,"1_v1+_^2",1
"236",4559,1011.18999999017,"re","ra",0,3,"1_v1+_^2",2
"237",4559,2563.33999999333,"re","re",1,3,"1_v1+_^2",3
"238",4559,1397.23000000231,"mi","mi",1,3,"v3_v2_v1",1
"239",4559,875.239999964833,"re","re",1,3,"v3_v2_v1",2
"240",4559,629.164999932982,"do","do",1,3,"v3_v2_v1",3
"241",4559,1302.51999991015,"do","do",1,3,"v1_v7-_7-",1
"242",4559,640.064999926835,"te","te",1,3,"v1_v7-_7-",2
"243",4559,302.374999970198,"te","te",1,3,"v1_v7-_7-",3
"244",4559,1035.55000002962,"re","re",1,3,"v2_v5_^3",1
"245",4559,1056.42000003718,"sol","sol",1,3,"v2_v5_^3",2
"246",4559,662.144999951124,"mi","mi",1,3,"v2_v5_^3",3
"247",4559,1042.3750000773,"sol","sol",1,5,"v5_^6+_^7_^1_5",1
"248",4559,584.140000049956,"la","te",0,5,"v5_^6+_^7_^1_5",2
"249",4559,594.859999953769,"ti","ti",1,5,"v5_^6+_^7_^1_5",3
"250",4559,472.964999964461,"do","do",1,5,"v5_^6+_^7_^1_5",4
"251",4559,807.144999969751,"sol","sol",1,5,"v5_^6+_^7_^1_5",5
"252",4559,1494.2850000225,"fi","fi",1,5,"v5-_v3_3_^4+_v3",1
"253",4559,471.55500005465,"mi","mi",1,5,"v5-_v3_3_^4+_v3",2
"254",4559,201.079999911599,"mi","mi",1,5,"v5-_v3_3_^4+_v3",3
"255",4559,887.970000039786,"fi","fi",1,5,"v5-_v3_3_^4+_v3",4
"256",4559,582.480000099167,"mi","mi",1,5,"v5-_v3_3_^4+_v3",5
"257",4559,1069.85500000883,"sol","sol",1,5,"^5_^6_v5_v4_v3",1
"258",4559,752.345000044443,"la","la",1,5,"^5_^6_v5_v4_v3",2
"259",4559,505.030000000261,"sol","sol",1,5,"^5_^6_v5_v4_v3",3
"260",4559,504.904999979772,"fa","fa",1,5,"^5_^6_v5_v4_v3",4
"261",4559,437.740000081249,"mi","mi",1,5,"^5_^6_v5_v4_v3",5
"262",4559,1050.84499996156,"sol","sol",1,5,"v5_v4_v3_v2_v1",1
"263",4559,504.914999939501,"fa","fa",1,5,"v5_v4_v3_v2_v1",2
"264",4559,527.780000003986,"mi","mi",1,5,"v5_v4_v3_v2_v1",3
"265",4559,1125.06999995094,"re","re",1,5,"v5_v4_v3_v2_v1",4
"266",4559,627.500000060536,"do","do",1,5,"v5_v4_v3_v2_v1",5
"267",4559,890.100000076927,"re","re",1,5,"v2_2_^3_^4_v2",1
"268",4559,302.585000055842,"re","re",1,5,"v2_2_^3_^4_v2",2
"269",4559,617.654999950901,"mi","mi",1,5,"v2_2_^3_^4_v2",3
"270",4559,572.200000053272,"fa","fa",1,5,"v2_2_^3_^4_v2",4
"271",4559,1011.5700000897,"re","re",1,5,"v2_2_^3_^4_v2",5
"272",4559,1338.38500001002,"la","la",1,5,"^6_v4_v3_^4_^5",1
"273",4559,1292.40999999456,"fa","fa",1,5,"^6_v4_v3_^4_^5",2
"274",4559,640.030000009574,"mi","mi",1,5,"^6_v4_v3_^4_^5",3
"275",4559,448.689999990165,"fa","fa",1,5,"^6_v4_v3_^4_^5",4
"276",4559,549.759999965318,"sol","sol",1,5,"^6_v4_v3_^4_^5",5
"277",4559,1368.26500005554,"sol","sol",1,5,"v5_v4_v3_v2_v1 ",1
"278",4559,863.610000000335,"fa","fa",1,5,"v5_v4_v3_v2_v1 ",2
"279",4559,447.825000039302,"mi","mi",1,5,"v5_v4_v3_v2_v1 ",3
"280",4559,527.484999969602,"re","re",1,5,"v5_v4_v3_v2_v1 ",4
"281",4559,786.699999938719,"do","1 ",0,5,"v5_v4_v3_v2_v1 ",5
"282",4559,966.634999960661,"la","la",1,5,"^6_v5_v4_v3_v2",1
"283",4559,730.23500002455,"sol","sol",1,5,"^6_v5_v4_v3_v2",2
"284",4559,572.299999999814,"fa","fa",1,5,"^6_v5_v4_v3_v2",3
"285",4559,527.790000080131,"mi","mi",1,5,"^6_v5_v4_v3_v2",4
"286",4559,527.560000075027,"re","re",1,5,"^6_v5_v4_v3_v2",5
"287",4559,903.060000040568,"sol","sol",1,7,"^5_^6_v5_v4_v3_v2_v1",1
"288",4559,672.414999920875,"la","la",1,7,"^5_^6_v5_v4_v3_v2_v1",2
"289",4559,707.915000035428,"sol","sol",1,7,"^5_^6_v5_v4_v3_v2_v1",3
"290",4559,572.624999913387,"fa","fa",1,7,"^5_^6_v5_v4_v3_v2_v1",4
"291",4559,448.500000056811,"mi","mi",1,7,"^5_^6_v5_v4_v3_v2_v1",5
"292",4559,527.559999958612,"re","re",1,7,"^5_^6_v5_v4_v3_v2_v1",6
"293",4559,673.83499990683,"do","do",1,7,"^5_^6_v5_v4_v3_v2_v1",7
"294",4559,883.694999967702,"fa","fa",1,7,"^4_^5_^6_v5_v4_v3_v2",1
"295",4559,595.229999977164,"sol","sol",1,7,"^4_^5_^6_v5_v4_v3_v2",2
"296",4559,775.979999918491,"la","la",1,7,"^4_^5_^6_v5_v4_v3_v2",3
"297",4559,728.899999987334,"sol","sol",1,7,"^4_^5_^6_v5_v4_v3_v2",4
"298",4559,808.539999998175,"fa","fa",1,7,"^4_^5_^6_v5_v4_v3_v2",5
"299",4559,482.649999903515,"mi","mi",1,7,"^4_^5_^6_v5_v4_v3_v2",6
"300",4559,730.04499997478,"re","re",1,7,"^4_^5_^6_v5_v4_v3_v2",7
"301",4559,3775.67499992438,"la","la",1,7,"^6_v5+_v4_^5+_v3_v1_v7-",1
"302",4559,1753.84000001941,"le","le",1,7,"^6_v5+_v4_^5+_v3_v1_v7-",2
"303",4559,1719.8549999157,"fa","fa",1,7,"^6_v5+_v4_^5+_v3_v1_v7-",3
"304",4559,2451.24499988742,"le","le",1,7,"^6_v5+_v4_^5+_v3_v1_v7-",4
"305",4559,1348.46500004642,"fa","mi",0,7,"^6_v5+_v4_^5+_v3_v1_v7-",5
"306",4559,471.474999911152,"mi","do",0,7,"^6_v5+_v4_^5+_v3_v1_v7-",6
"307",4559,786.069999914616,"te","te",1,7,"^6_v5+_v4_^5+_v3_v1_v7-",7
"308",4559,1067.80499999877,"do","do",1,7,"v1_^2_v1_v7_^1_^3_v2",1
"309",4559,902.170000015758,"ti","re",0,7,"v1_^2_v1_v7_^1_^3_v2",2
"310",4559,1602.93000005186,"do","do",1,7,"v1_^2_v1_v7_^1_^3_v2",3
"311",4559,595.35999991931,"re","ti",0,7,"v1_^2_v1_v7_^1_^3_v2",4
"312",4559,707.599999965169,"do","do",1,7,"v1_^2_v1_v7_^1_^3_v2",5
"313",4559,932.159999967553,"mi","mi",1,7,"v1_^2_v1_v7_^1_^3_v2",6
"314",4559,493.725000065751,"re","re",1,7,"v1_^2_v1_v7_^1_^3_v2",7
"315",4559,986.900000018068,"do","do",1,7,"^1_v7_v6_v5_v4_v3_v2",1
"316",4559,460.675000096671,"ti","ti",1,7,"^1_v7_v6_v5_v4_v3_v2",2
"317",4559,516.660000081174,"la","la",1,7,"^1_v7_v6_v5_v4_v3_v2",3
"318",4559,683.720000088215,"sol","sol",1,7,"^1_v7_v6_v5_v4_v3_v2",4
"319",4559,1066.53000006918,"fa","fa",1,7,"^1_v7_v6_v5_v4_v3_v2",5
"320",4559,595.165000064299,"mi","mi",1,7,"^1_v7_v6_v5_v4_v3_v2",6
"321",4559,606.230000033975,"re","re",1,7,"^1_v7_v6_v5_v4_v3_v2",7
"322",4559,1661.59999999218,"do","do",1,7,"1_^3_v1_^5_v3_v2_^3",1
"323",4559,752.545000053942,"mi","mi",1,7,"1_^3_v1_^5_v3_v2_^3",2
"324",4559,853.980000014417,"do","do",1,7,"1_^3_v1_^5_v3_v2_^3",3
"325",4559,1258.99000000209,"sol","sol",1,7,"1_^3_v1_^5_v3_v2_^3",4
"326",4559,966.295000049286,"mi","mi",1,7,"1_^3_v1_^5_v3_v2_^3",5
"327",4559,482.604999910109,"re","re",1,7,"1_^3_v1_^5_v3_v2_^3",6
"328",4559,696.209999965504,"mi","mi",1,7,"1_^3_v1_^5_v3_v2_^3",7
"329",4559,5603.14000002109,"fa","fa",1,7,"^4_v6-_v5-_^6-_^4_v2-_2-",1
"330",4559,1258.64000001457,"le","le",1,7,"^4_v6-_v5-_^6-_^4_v2-_2-",2
"331",4559,561.320000095293,"sol","fi",0,7,"^4_v6-_v5-_^6-_^4_v2-_2-",3
"332",4559,448.730000061914,"le","le",1,7,"^4_v6-_v5-_^6-_^4_v2-_2-",4
"333",4559,3508.82999994792,"fa","fa",1,7,"^4_v6-_v5-_^6-_^4_v2-_2-",5
"334",4559,1078.7400000263,"do","ra",0,7,"^4_v6-_v5-_^6-_^4_v2-_2-",6
"335",4559,212.640000041574,"do","ra",0,7,"^4_v6-_v5-_^6-_^4_v2-_2-",7
"336",4559,1356.73999995925,"sol","sol",1,9,"^5_^6_v5_v4_v3_v2_v1_^2_^3",1
"337",4559,761.83500001207,"la","la",1,9,"^5_^6_v5_v4_v3_v2_v1_^2_^3",2
"338",4559,605.630000005476,"sol","sol",1,9,"^5_^6_v5_v4_v3_v2_v1_^2_^3",3
"339",4559,628.370000049472,"fa","fa",1,9,"^5_^6_v5_v4_v3_v2_v1_^2_^3",4
"340",4559,674.054999952205,"mi","mi",1,9,"^5_^6_v5_v4_v3_v2_v1_^2_^3",5
"341",4559,876.329999999143,"re","re",1,9,"^5_^6_v5_v4_v3_v2_v1_^2_^3",6
"342",4559,583.650000044145,"do","do",1,9,"^5_^6_v5_v4_v3_v2_v1_^2_^3",7
"343",4559,707.724999985658,"re","re",1,9,"^5_^6_v5_v4_v3_v2_v1_^2_^3",8
"344",4559,617.450000019744,"mi","mi",1,9,"^5_^6_v5_v4_v3_v2_v1_^2_^3",9
"345",4559,1479.2900000466,"re","re",1,9,"^2_^4_v3_v2_v1_v3_v2+_^3_^5+",1
"346",4559,977.064999984577,"fa","fa",1,9,"^2_^4_v3_v2_v1_v3_v2+_^3_^5+",2
"347",4559,786.495000007562,"mi","mi",1,9,"^2_^4_v3_v2_v1_v3_v2+_^3_^5+",3
"348",4559,1032.850000076,"do","re",0,9,"^2_^4_v3_v2_v1_v3_v2+_^3_^5+",4
"349",4559,1967.8600000916,"re","do",0,9,"^2_^4_v3_v2_v1_v3_v2+_^3_^5+",5
"350",4559,1224.97500001919,"do","mi",0,9,"^2_^4_v3_v2_v1_v3_v2+_^3_^5+",6
"351",4559,2305.26499997359,"mi","me",0,9,"^2_^4_v3_v2_v1_v3_v2+_^3_^5+",7
"352",4559,966.220000060275,"sol","mi",0,9,"^2_^4_v3_v2_v1_v3_v2+_^3_^5+",8
"353",4559,437.314999988303,"le","le",1,9,"^2_^4_v3_v2_v1_v3_v2+_^3_^5+",9
"354",4559,1312.09000002127,"re","re",1,9,"^2_^3_^4_^5_^6_v5_v4_v3_v2",1
"355",4559,730.175000033341,"mi","mi",1,9,"^2_^3_^4_^5_^6_v5_v4_v3_v2",2
"356",4559,504.979999968782,"fa","fa",1,9,"^2_^3_^4_^5_^6_v5_v4_v3_v2",3
"357",4559,549.804999958724,"sol","sol",1,9,"^2_^3_^4_^5_^6_v5_v4_v3_v2",4
"358",4559,696.564999991097,"la","la",1,9,"^2_^3_^4_^5_^6_v5_v4_v3_v2",5
"359",4559,685.060000047088,"sol","sol",1,9,"^2_^3_^4_^5_^6_v5_v4_v3_v2",6
"360",4559,582.500000018626,"fa","fa",1,9,"^2_^3_^4_^5_^6_v5_v4_v3_v2",7
"361",4559,573.790000053123,"mi","mi",1,9,"^2_^3_^4_^5_^6_v5_v4_v3_v2",8
"362",4559,595.515000051819,"re","re",1,9,"^2_^3_^4_^5_^6_v5_v4_v3_v2",9
"363",4559,1113.9049999183,"ti","ti",1,9,"v7_v6_v5_^6_v5_v4_^5_^6_v5",1
"364",4559,572.33500003349,"la","la",1,9,"v7_v6_v5_^6_v5_v4_^5_^6_v5",2
"365",4559,865.044999984093,"sol","sol",1,9,"v7_v6_v5_^6_v5_v4_^5_^6_v5",3
"366",4559,741.310000070371,"la","la",1,9,"v7_v6_v5_^6_v5_v4_^5_^6_v5",4
"367",4559,606.350000016391,"sol","sol",1,9,"v7_v6_v5_^6_v5_v4_^5_^6_v5",5
"368",4559,526.895000017248,"fa","fa",1,9,"v7_v6_v5_^6_v5_v4_^5_^6_v5",6
"369",4559,696.32999994792,"sol","sol",1,9,"v7_v6_v5_^6_v5_v4_^5_^6_v5",7
"370",4559,707.345000002533,"la","la",1,9,"v7_v6_v5_^6_v5_v4_^5_^6_v5",8
"371",4559,572.294999961741,"sol","sol",1,9,"v7_v6_v5_^6_v5_v4_^5_^6_v5",9
"372",4559,4545.09499995038,"sol","sol",1,9,"v5_v4_v6+_^7_^3+_v3_v2_v5_^4",1
"373",4559,605.874999891967,"fi","fa",0,9,"v5_v4_v6+_^7_^3+_v3_v2_v5_^4",2
"374",4559,493.900000001304,"fa","te",0,9,"v5_v4_v6+_^7_^3+_v3_v2_v5_^4",3
"375",4559,1348.29500003252,"la","ti",0,9,"v5_v4_v6+_^7_^3+_v3_v2_v5_^4",4
"376",4559,875.579999992624,"mi","3+",0,9,"v5_v4_v6+_^7_^3+_v3_v2_v5_^4",5
"377",4559,1371.16000009701,"me","mi",0,9,"v5_v4_v6+_^7_^3+_v3_v2_v5_^4",6
"378",4559,729.954999987967,"re","re",1,9,"v5_v4_v6+_^7_^3+_v3_v2_v5_^4",7
"379",4559,1393.71999993455,"le","sol",0,9,"v5_v4_v6+_^7_^3+_v3_v2_v5_^4",8
"380",4559,887.180000077933,"fa","fa",1,9,"v5_v4_v6+_^7_^3+_v3_v2_v5_^4",9
"381",4559,1395.35999996588,"mi","mi",1,9,"^3_^4_^5 _^6_v5_v4_v3_v2_v1",1
"382",4559,617.8549999604,"fa","fa",1,9,"^3_^4_^5 _^6_v5_v4_v3_v2_v1",2
"383",4559,538.575000013225,"sol","5 ",0,9,"^3_^4_^5 _^6_v5_v4_v3_v2_v1",3
"384",4559,550.329999998212,"la","la",1,9,"^3_^4_^5 _^6_v5_v4_v3_v2_v1",4
"385",4559,1078.46499991138,"sol","sol",1,9,"^3_^4_^5 _^6_v5_v4_v3_v2_v1",5
"386",4559,707.614999962971,"fa","fa",1,9,"^3_^4_^5 _^6_v5_v4_v3_v2_v1",6
"387",4559,809.024999965914,"mi","mi",1,9,"^3_^4_^5 _^6_v5_v4_v3_v2_v1",7
"388",4559,572.539999964647,"re","re",1,9,"^3_^4_^5 _^6_v5_v4_v3_v2_v1",8
"389",4559,752.399999997579,"do","do",1,9,"^3_^4_^5 _^6_v5_v4_v3_v2_v1",9
"390",4559,1161.88999998849,"mi","mi",1,9,"^3_^4_v2_v7_^1_^2_^3_3_^4",1
"391",4559,471.235000062734,"fa","fa",1,9,"^3_^4_v2_v7_^1_^2_^3_3_^4",2
"392",4559,617.804999928921,"re","re",1,9,"^3_^4_v2_v7_^1_^2_^3_3_^4",3
"393",4559,944.115000078455,"ti","ti",1,9,"^3_^4_v2_v7_^1_^2_^3_3_^4",4
"394",4559,1022.46499992907,"do","do",1,9,"^3_^4_v2_v7_^1_^2_^3_3_^4",5
"395",4559,741.380000021309,"re","re",1,9,"^3_^4_v2_v7_^1_^2_^3_3_^4",6
"396",4559,775.124999927357,"mi","mi",1,9,"^3_^4_v2_v7_^1_^2_^3_3_^4",7
"397",4559,403.595000039786,"mi","mi",1,9,"^3_^4_v2_v7_^1_^2_^3_3_^4",8
"398",4559,426.474999985658,"fa","fa",1,9,"^3_^4_v2_v7_^1_^2_^3_3_^4",9
"399",48542,8012.01500000025,"mi","re",0,2,"^2_v7-",1
"400",48542,8951.56499999936,"re","te",0,2,"^2_v7-",2
"401",48542,9027.95500000136,"fa","mi",0,2,"v3_v2",1
"402",48542,1426.4049999984,"me","re",0,2,"v3_v2",2
"403",48542,8467.74000000011,"re","re",1,2,"v2_v1",1
"404",48542,842.120000001159,"do","do",1,2,"v2_v1",2
"405",48542,5601.93500000238,"sol","mi",0,2,"^3_v4+",1
"406",48542,752.764999997453,"la","fi",0,2,"^3_v4+",2
"407",48542,7825.4649999981,"ti","ti",1,2,"v7_v3",1
"408",48542,1858.54499999911,"sol","mi",0,2,"v7_v3",2
"409",48542,4795.97999999905,"do","do",1,2,"^1_^2+",1
"410",48542,2000.36499999987,"me","me",1,2,"^1_^2+",2
"411",48542,7772.03000000014,"te","sol",0,2,"^5_^1+",1
"412",48542,1125.75500000082,"do","ra",0,2,"^5_^1+",2
"413",48542,3396.90499999782,"sol","sol",1,2,"v5_v1+",1
"414",48542,4875.43999999983,"ra","ra",1,2,"v5_v1+",2
"415",48542,14341.6400000023,"fa","mi",0,2,"3_^6",1
"416",48542,1835.33499999973,"la","la",1,2,"3_^6",2
"417",48542,10932.6149999979,"fa","fa",1,2,"v4_v3",1
"418",48542,2295.4299999983,"me","mi",0,2,"v4_v3",2
"419",48542,2144.5299999977,"sol","sol",1,3,"v5_v4_v3",1
"420",48542,680.745000001509,"fa","fa",1,3,"v5_v4_v3",2
"421",48542,1268.35999999824,"mi","mi",1,3,"v5_v4_v3",3
"422",48542,2387.91000000131,"mi","mi",1,3,"v3_v2_v1",1
"423",48542,638.699999999604,"re","re",1,3,"v3_v2_v1",2
"424",48542,842.609999999637,"do","do",1,3,"v3_v2_v1",3
"425",48542,7716.41499999899,"ti","do",0,3,"v1_v7-_^7",1
"426",48542,1450.33999999939,"sol","te",0,3,"v1_v7-_^7",2
"427",48542,1074.86000000068,"la","ti",0,3,"v1_v7-_^7",3
"428",48542,6936.2849999998,"mi","re",0,3,"v2_v5_^3",1
"429",48542,1618.01999999804,"la","sol",0,3,"v2_v5_^3",2
"430",48542,760.865000000107,"sol","mi",0,3,"v2_v5_^3",3
"431",48542,5630.17999999644,"la","la",1,3,"6_^1_v5",1
"432",48542,4035.84000000043,"do","do",1,3,"6_^1_v5",2
"433",48542,2216.71000000054,"ti","sol",0,3,"6_^1_v5",3
"434",48542,6736.41999999748,"do","do",1,3,"^1_v6_v5+",1
"435",48542,4160.59500000125,"le","la",0,3,"^1_v6_v5+",2
"436",48542,3169.33500000229,"sol","le",0,3,"^1_v6_v5+",3
"437",48542,4782.00500000105,"fa","fa",1,3,"v4_v3_v2",1
"438",48542,984.294999998296,"mi","mi",1,3,"v4_v3_v2",2
"439",48542,4388.3850000021,"re","re",1,3,"v4_v3_v2",3
"440",48542,1100.83500000113,"do","do",1,3,"1_v1+_^2",1
"441",48542,510.409999998985,"ra","ra",1,3,"1_v1+_^2",2
"442",48542,644.370000001742,"re","re",1,3,"1_v1+_^2",3
"443",48542,12246.4000000001,"mi","do",0,3,"v1_v7-_7-",1
"444",48542,403.935000002151,"me","te",0,3,"v1_v7-_7-",2
"445",48542,216.39499999932,"me","te",0,3,"v1_v7-_7-",3
"446",48542,4022.50999999885,"ra","re",0,5,"v2_2_^3_^4_v2",1
"447",48542,672.20499999891,"ra","re",0,5,"v2_2_^3_^4_v2",2
"448",48542,2056.91999999923,"mi","mi",1,5,"v2_2_^3_^4_v2",3
"449",48542,974.494999998482,"fa","fa",1,5,"v2_2_^3_^4_v2",4
"450",48542,1524.52500000084,"ra","re",0,5,"v2_2_^3_^4_v2",5
"451",48542,3364.13499999978,"la","la",1,5,"^6_v5_v4_v3_v2",1
"452",48542,1070.9300000018,"sol","sol",1,5,"^6_v5_v4_v3_v2",2
"453",48542,606.475000000559,"fa","fa",1,5,"^6_v5_v4_v3_v2",3
"454",48542,4996.7099999995,"mi","mi",1,5,"^6_v5_v4_v3_v2",4
"455",48542,2776.35999999987,"re","re",1,5,"^6_v5_v4_v3_v2",5
"456",48542,6867.92000000062,"me","fi",0,5,"v5-_v3_3_^4+_v3",1
"457",48542,543.46499999892,"re","mi",0,5,"v5-_v3_3_^4+_v3",2
"458",48542,492.409999998985,"re","mi",0,5,"v5-_v3_3_^4+_v3",3
"459",48542,632.804999997607,"me","fi",0,5,"v5-_v3_3_^4+_v3",4
"460",48542,1110.66500000027,"re","mi",0,5,"v5-_v3_3_^4+_v3",5
"461",48542,2020.12000000104,"sol","sol",1,5,"v5_v4_v3_v2_v1 ",1
"462",48542,695.74500000081,"fa","fa",1,5,"v5_v4_v3_v2_v1 ",2
"463",48542,680.70499999891,"me","mi",0,5,"v5_v4_v3_v2_v1 ",3
"464",48542,1795.20499999844,"re","re",1,5,"v5_v4_v3_v2_v1 ",4
"465",48542,778.975000001024,"do","1 ",0,5,"v5_v4_v3_v2_v1 ",5
"466",48542,11400.9650000008,"re","sol",0,5,"v5_^6+_^7_^1_5",1
"467",48542,1426.59999999893,"mi","te",0,5,"v5_^6+_^7_^1_5",2
"468",48542,1132.19500000193,"fa","ti",0,5,"v5_^6+_^7_^1_5",3
"469",48542,1102.71999999904,"sol","do",0,5,"v5_^6+_^7_^1_5",4
"470",48542,3642.57499999809,"fa","sol",0,5,"v5_^6+_^7_^1_5",5
"471",48542,5044.64499999816,"sol","sol",1,5,"^5_^6_v5_v4_v3",1
"472",48542,1322.13500000234,"la","la",1,5,"^5_^6_v5_v4_v3",2
"473",48542,705.405000000726,"sol","sol",1,5,"^5_^6_v5_v4_v3",3
"474",48542,932.440000000643,"fa","fa",1,5,"^5_^6_v5_v4_v3",4
"475",48542,4660.46999999881,"mi","mi",1,5,"^5_^6_v5_v4_v3",5
"476",48542,3594.39500000002,"sol","sol",1,5,"v5_v4_v3_v2_v1",1
"477",48542,957.115000001155,"fa","fa",1,5,"v5_v4_v3_v2_v1",2
"478",48542,875.840000000549,"mi","mi",1,5,"v5_v4_v3_v2_v1",3
"479",48542,930.580000000075,"re","re",1,5,"v5_v4_v3_v2_v1",4
"480",48542,1716.92000000272,"do","do",1,5,"v5_v4_v3_v2_v1",5
"481",48542,4501.91500000074,"la","la",1,5,"^6_v4_v3_^4_^5",1
"482",48542,696.664999999572,"sol","fa",0,5,"^6_v4_v3_^4_^5",2
"483",48542,1484.28999999654,"fa","mi",0,5,"^6_v4_v3_^4_^5",3
"484",48542,1622.64000000153,"mi","fa",0,5,"^6_v4_v3_^4_^5",4
"485",48542,8313.05499999877,"la","sol",0,5,"^6_v4_v3_^4_^5",5
"486",48542,11875.8699999999,"do","do",1,7,"^1_v7_v6_v5_v4_v3_v2",1
"487",48542,2420.37500000163,"ti","ti",1,7,"^1_v7_v6_v5_v4_v3_v2",2
"488",48542,698.270000000717,"la","la",1,7,"^1_v7_v6_v5_v4_v3_v2",3
"489",48542,784.674999998882,"sol","sol",1,7,"^1_v7_v6_v5_v4_v3_v2",4
"490",48542,1400.96000000276,"fa","fa",1,7,"^1_v7_v6_v5_v4_v3_v2",5
"491",48542,2602.9600000002,"mi","mi",1,7,"^1_v7_v6_v5_v4_v3_v2",6
"492",48542,1018.6699999976,"re","re",1,7,"^1_v7_v6_v5_v4_v3_v2",7
"493",48542,7126.79500000016,"sol","sol",1,7,"^5_^6_v5_v4_v3_v2_v1",1
"494",48542,795.600000001257,"la","la",1,7,"^5_^6_v5_v4_v3_v2_v1",2
"495",48542,688.945000001695,"sol","sol",1,7,"^5_^6_v5_v4_v3_v2_v1",3
"496",48542,656.759999997914,"fa","fa",1,7,"^5_^6_v5_v4_v3_v2_v1",4
"497",48542,846.495000001509,"mi","mi",1,7,"^5_^6_v5_v4_v3_v2_v1",5
"498",48542,566.674999998184,"re","re",1,7,"^5_^6_v5_v4_v3_v2_v1",6
"499",48542,827.034999998286,"do","do",1,7,"^5_^6_v5_v4_v3_v2_v1",7
"500",48542,2594.88000000059,"fa","fa",1,7,"^4_^5_^6_v5_v4_v3_v2",1
"501",48542,1038.96499999985,"sol","sol",1,7,"^4_^5_^6_v5_v4_v3_v2",2
"502",48542,696.410000000615,"la","la",1,7,"^4_^5_^6_v5_v4_v3_v2",3
"503",48542,688.554999997141,"sol","sol",1,7,"^4_^5_^6_v5_v4_v3_v2",4
"504",48542,770.725000002189,"fa","fa",1,7,"^4_^5_^6_v5_v4_v3_v2",5
"505",48542,654.790000000503,"me","mi",0,7,"^4_^5_^6_v5_v4_v3_v2",6
"506",48542,1732.69000000064,"re","re",1,7,"^4_^5_^6_v5_v4_v3_v2",7
"507",48542,1053.38000000105,"do","do",1,7,"1_^3_v1_^5_v3_v2_^3",1
"508",48542,6648.71000000136,"mi","mi",1,7,"1_^3_v1_^5_v3_v2_^3",2
"509",48542,637.859999998705,"do","do",1,7,"1_^3_v1_^5_v3_v2_^3",3
"510",48542,4071.724999998,"sol","sol",1,7,"1_^3_v1_^5_v3_v2_^3",4
"511",48542,3886.88500000001,"do","mi",0,7,"1_^3_v1_^5_v3_v2_^3",5
"512",48542,5018.22499999986,"fa","re",0,7,"1_^3_v1_^5_v3_v2_^3",6
"513",48542,712.774999999907,"mi","mi",1,7,"1_^3_v1_^5_v3_v2_^3",7
"514",48542,8728.76999999792,"ti","fa",0,7,"^4_v6-_v5-_^6-_^4_v2-_2-",1
"515",48542,1694.6399999978,"la","le",0,7,"^4_v6-_v5-_^6-_^4_v2-_2-",2
"516",48542,518.350000001956,"sol","fi",0,7,"^4_v6-_v5-_^6-_^4_v2-_2-",3
"517",48542,558.809999998659,"la","le",0,7,"^4_v6-_v5-_^6-_^4_v2-_2-",4
"518",48542,632.574999999721,"ti","fa",0,7,"^4_v6-_v5-_^6-_^4_v2-_2-",5
"519",48542,680.829999997513,"la","ra",0,7,"^4_v6-_v5-_^6-_^4_v2-_2-",6
"520",48542,2240.35499999789,"la","ra",0,7,"^4_v6-_v5-_^6-_^4_v2-_2-",7
"521",48542,8248.4150000019,"te","la",0,7,"^6_v5+_v4_^5+_v3_v1_v7-",1
"522",48542,2709.80499999854,"le","le",1,7,"^6_v5+_v4_^5+_v3_v1_v7-",2
"523",48542,590.660000001779,"sol","fa",0,7,"^6_v5+_v4_^5+_v3_v1_v7-",3
"524",48542,568.749999998603,"fi","le",0,7,"^6_v5+_v4_^5+_v3_v1_v7-",4
"525",48542,530.885000000009,"fa","mi",0,7,"^6_v5+_v4_^5+_v3_v1_v7-",5
"526",48542,2068.82499999856,"mi","do",0,7,"^6_v5+_v4_^5+_v3_v1_v7-",6
"527",48542,4070.3600000015,"me","te",0,7,"^6_v5+_v4_^5+_v3_v1_v7-",7
"528",48542,1403.45999999763,"do","do",1,7,"v1_^2_v1_v7_^1_^3_v2",1
"529",48542,1152.66500000143,"re","re",1,7,"v1_^2_v1_v7_^1_^3_v2",2
"530",48542,736.300000000279,"do","do",1,7,"v1_^2_v1_v7_^1_^3_v2",3
"531",48542,1834.30999999843,"ti","ti",1,7,"v1_^2_v1_v7_^1_^3_v2",4
"532",48542,10240.5099999995,"do","do",1,7,"v1_^2_v1_v7_^1_^3_v2",5
"533",48542,976.320000001695,"mi","mi",1,7,"v1_^2_v1_v7_^1_^3_v2",6
"534",48542,876.664999999804,"re","re",1,7,"v1_^2_v1_v7_^1_^3_v2",7
"535",48542,4161.09499999951,"re","re",1,9,"^2_^3_^4_^5_^6_v5_v4_v3_v2",1
"536",48542,963.980000000447,"mi","mi",1,9,"^2_^3_^4_^5_^6_v5_v4_v3_v2",2
"537",48542,1618.75499999942,"fa","fa",1,9,"^2_^3_^4_^5_^6_v5_v4_v3_v2",3
"538",48542,648.525000000605,"sol","sol",1,9,"^2_^3_^4_^5_^6_v5_v4_v3_v2",4
"539",48542,720.88500000257,"la","la",1,9,"^2_^3_^4_^5_^6_v5_v4_v3_v2",5
"540",48542,836.584999997169,"sol","sol",1,9,"^2_^3_^4_^5_^6_v5_v4_v3_v2",6
"541",48542,818.520000000717,"fa","fa",1,9,"^2_^3_^4_^5_^6_v5_v4_v3_v2",7
"542",48542,713.175000000745,"mi","mi",1,9,"^2_^3_^4_^5_^6_v5_v4_v3_v2",8
"543",48542,869.01500000013,"re","re",1,9,"^2_^3_^4_^5_^6_v5_v4_v3_v2",9
"544",48542,5324.51500000013,"sol","sol",1,9,"v5_v4_v6+_^7_^3+_v3_v2_v5_^4",1
"545",48542,3193.1100000001,"mi","fa",0,9,"v5_v4_v6+_^7_^3+_v3_v2_v5_^4",2
"546",48542,891.69000000041,"re","te",0,9,"v5_v4_v6+_^7_^3+_v3_v2_v5_^4",3
"547",48542,2230.71999999951,"do","ti",0,9,"v5_v4_v6+_^7_^3+_v3_v2_v5_^4",4
"548",48542,2186.92499999795,"ti","3+",0,9,"v5_v4_v6+_^7_^3+_v3_v2_v5_^4",5
"549",48542,2314.80000000028,"le","mi",0,9,"v5_v4_v6+_^7_^3+_v3_v2_v5_^4",6
"550",48542,610.029999999795,"sol","re",0,9,"v5_v4_v6+_^7_^3+_v3_v2_v5_^4",7
"551",48542,901.109999998938,"le","sol",0,9,"v5_v4_v6+_^7_^3+_v3_v2_v5_^4",8
"552",48542,1130.69499999983,"la","fa",0,9,"v5_v4_v6+_^7_^3+_v3_v2_v5_^4",9
"553",48542,5314.11999999918,"re","re",1,9,"^2_^4_v3_v2_v1_v3_v2+_^3_^5+",1
"554",48542,3730.445000001,"mi","fa",0,9,"^2_^4_v3_v2_v1_v3_v2+_^3_^5+",2
"555",48542,834.655000002356,"fa","mi",0,9,"^2_^4_v3_v2_v1_v3_v2+_^3_^5+",3
"556",48542,470.734999998938,"mi","re",0,9,"^2_^4_v3_v2_v1_v3_v2+_^3_^5+",4
"557",48542,1361.96500000008,"re","do",0,9,"^2_^4_v3_v2_v1_v3_v2+_^3_^5+",5
"558",48542,726.749999997905,"do","mi",0,9,"^2_^4_v3_v2_v1_v3_v2+_^3_^5+",6
"559",48542,1004.82999999798,"te","me",0,9,"^2_^4_v3_v2_v1_v3_v2+_^3_^5+",7
"560",48542,640.72999999905,"ti","mi",0,9,"^2_^4_v3_v2_v1_v3_v2+_^3_^5+",8
"561",48542,534.749999999069,"do","le",0,9,"^2_^4_v3_v2_v1_v3_v2+_^3_^5+",9
"562",48542,8795.1399999985,"mi","mi",1,9,"^3_^4_v2_v7_^1_^2_^3_3_^4",1
"563",48542,798.399999999674,"fa","fa",1,9,"^3_^4_v2_v7_^1_^2_^3_3_^4",2
"564",48542,460.730000002543,"mi","re",0,9,"^3_^4_v2_v7_^1_^2_^3_3_^4",3
"565",48542,720.849999997998,"re","ti",0,9,"^3_^4_v2_v7_^1_^2_^3_3_^4",4
"566",48542,2746.68499999819,"mi","do",0,9,"^3_^4_v2_v7_^1_^2_^3_3_^4",5
"567",48542,568.149999999208,"fa","re",0,9,"^3_^4_v2_v7_^1_^2_^3_3_^4",6
"568",48542,1231.67500000261,"sol","mi",0,9,"^3_^4_v2_v7_^1_^2_^3_3_^4",7
"569",48542,3281.27999999933,"le","mi",0,9,"^3_^4_v2_v7_^1_^2_^3_3_^4",8
"570",48542,2955.9599999995,"la","fa",0,9,"^3_^4_v2_v7_^1_^2_^3_3_^4",9
"571",48542,6585.1799999983,"sol","mi",0,9,"^3_^4_^5 _^6_v5_v4_v3_v2_v1",1
"572",48542,640.374999999069,"la","fa",0,9,"^3_^4_^5 _^6_v5_v4_v3_v2_v1",2
"573",48542,574.62999999919,"sol","5 ",0,9,"^3_^4_^5 _^6_v5_v4_v3_v2_v1",3
"574",48542,550.634999999544,"fa","la",0,9,"^3_^4_^5 _^6_v5_v4_v3_v2_v1",4
"575",48542,566.64500000258,"me","sol",0,9,"^3_^4_^5 _^6_v5_v4_v3_v2_v1",5
"576",48542,1238.08500000089,"re","fa",0,9,"^3_^4_^5 _^6_v5_v4_v3_v2_v1",6
"577",48542,2126.52499999967,"do","mi",0,9,"^3_^4_^5 _^6_v5_v4_v3_v2_v1",7
"578",48542,680.66999999783,"re","re",1,9,"^3_^4_^5 _^6_v5_v4_v3_v2_v1",8
"579",48542,2568.41999999946,"mi","do",0,9,"^3_^4_^5 _^6_v5_v4_v3_v2_v1",9
"580",48542,4622.26999999979,"sol","sol",1,9,"^5_^6_v5_v4_v3_v2_v1_^2_^3",1
"581",48542,1236.72499999893,"la","la",1,9,"^5_^6_v5_v4_v3_v2_v1_^2_^3",2
"582",48542,526.14000000176,"sol","sol",1,9,"^5_^6_v5_v4_v3_v2_v1_^2_^3",3
"583",48542,802.664999999339,"fa","fa",1,9,"^5_^6_v5_v4_v3_v2_v1_^2_^3",4
"584",48542,1036.91999999876,"me","mi",0,9,"^5_^6_v5_v4_v3_v2_v1_^2_^3",5
"585",48542,810.684999996563,"re","re",1,9,"^5_^6_v5_v4_v3_v2_v1_^2_^3",6
"586",48542,928.249999997206,"do","do",1,9,"^5_^6_v5_v4_v3_v2_v1_^2_^3",7
"587",48542,576.50500000082,"re","re",1,9,"^5_^6_v5_v4_v3_v2_v1_^2_^3",8
"588",48542,534.945000003092,"me","mi",0,9,"^5_^6_v5_v4_v3_v2_v1_^2_^3",9
"589",48542,8434.2099999995,"la","ti",0,9,"v7_v6_v5_^6_v5_v4_^5_^6_v5",1
"590",48542,663.9599999981,"sol","la",0,9,"v7_v6_v5_^6_v5_v4_^5_^6_v5",2
"591",48542,519.175000001211,"fi","sol",0,9,"v7_v6_v5_^6_v5_v4_^5_^6_v5",3
"592",48542,451.855000003008,"fa","la",0,9,"v7_v6_v5_^6_v5_v4_^5_^6_v5",4
"593",48542,478.405000001658,"mi","sol",0,9,"v7_v6_v5_^6_v5_v4_^5_^6_v5",5
"594",48542,433.235000000568,"fa","fa",1,9,"v7_v6_v5_^6_v5_v4_^5_^6_v5",6
"595",48542,534.210000001593,"sol","sol",1,9,"v7_v6_v5_^6_v5_v4_^5_^6_v5",7
"596",48542,519.355000000447,"le","la",0,9,"v7_v6_v5_^6_v5_v4_^5_^6_v5",8
"597",48542,1961.85499999789,"ti","sol",0,9,"v7_v6_v5_^6_v5_v4_^5_^6_v5",9
"598",4983,6001.21499993838,"mi","mi",1,2,"^3_v4+",1
"599",4983,3012.94000004418,"fi","fi",1,2,"^3_v4+",2
"600",4983,1512.40999996662,"mi","mi",1,2,"v3_v2",1
"601",4983,1283.84499996901,"re","re",1,2,"v3_v2",2
"602",4983,2200.46500000171,"sol","sol",1,2,"^5_^1+",1
"603",4983,10894.464999903,"ra","ra",1,2,"^5_^1+",2
"604",4983,3744.5000000298,"mi","mi",1,2,"3_^6",1
"605",4983,5444.17000003159,"la","la",1,2,"3_^6",2
"606",4983,851.869999896735,"re","re",1,2,"v2_v1",1
"607",4983,799.700000090525,"do","do",1,2,"v2_v1",2
"608",4983,1702.69000018016,"ti","ti",1,2,"v7_v3",1
"609",4983,2584.21000000089,"mi","mi",1,2,"v7_v3",2
"610",4983,1294.23499992117,"sol","sol",1,2,"v5_v1+",1
"611",4983,3494.16999984533,"ra","ra",1,2,"v5_v1+",2
"612",4983,2380.29000000097,"re","re",1,2,"^2_v7-",1
"613",4983,3008.26000003144,"te","te",1,2,"^2_v7-",2
"614",4983,2345.84999992512,"fa","fa",1,2,"v4_v3",1
"615",4983,1464.3399999477,"mi","mi",1,2,"v4_v3",2
"616",4983,2807.0500001777,"do","do",1,2,"^1_^2+",1
"617",4983,1324.63000016287,"me","me",1,2,"^1_^2+",2
"618",4983,1746.85500003397,"do","do",1,3,"^1_v6_v5+",1
"619",4983,2999.0149999503,"la","la",1,3,"^1_v6_v5+",2
"620",4983,1945.39500004612,"le","le",1,3,"^1_v6_v5+",3
"621",4983,1322.84499984235,"do","do",1,3,"v1_v7-_^7",1
"622",4983,1552.33499989845,"te","te",1,3,"v1_v7-_^7",2
"623",4983,927.389999851584,"ti","ti",1,3,"v1_v7-_^7",3
"624",4983,1450.95500000753,"do","do",1,3,"1_v1+_^2",1
"625",4983,1940.78999990597,"ra","ra",1,3,"1_v1+_^2",2
"626",4983,778.170000063255,"re","re",1,3,"1_v1+_^2",3
"627",4983,2221.39000007883,"re","re",1,3,"v2_v5_^3",1
"628",4983,5200.47000003979,"sol","sol",1,3,"v2_v5_^3",2
"629",4983,1353.45999989659,"mi","mi",1,3,"v2_v5_^3",3
"630",4983,2007.39499996416,"la","la",1,3,"6_^1_v5",1
"631",4983,1710.94999997877,"do","do",1,3,"6_^1_v5",2
"632",4983,1641.83999993838,"sol","sol",1,3,"6_^1_v5",3
"633",4983,854.659999953583,"do","do",1,3,"v1_v7-_7-",1
"634",4983,2019.73499986343,"te","te",1,3,"v1_v7-_7-",2
"635",4983,554.850000189617,"te","te",1,3,"v1_v7-_7-",3
"636",4983,892.025000182912,"sol","sol",1,3,"v5_v4_v3",1
"637",4983,713.890000013635,"fa","fa",1,3,"v5_v4_v3",2
"638",4983,1246.76499981433,"mi","mi",1,3,"v5_v4_v3",3
"639",4983,983.699999982491,"fa","fa",1,3,"v4_v3_v2",1
"640",4983,892.810000106692,"mi","mi",1,3,"v4_v3_v2",2
"641",4983,1433.94499993883,"re","re",1,3,"v4_v3_v2",3
"642",4983,1237.03499999829,"mi","mi",1,3,"v3_v2_v1",1
"643",4983,666.620000032708,"re","re",1,3,"v3_v2_v1",2
"644",4983,611.670000012964,"do","do",1,3,"v3_v2_v1",3
"645",4983,3599.72000005655,"la","la",1,5,"^6_v5_v4_v3_v2",1
"646",4983,751.619999995455,"sol","sol",1,5,"^6_v5_v4_v3_v2",2
"647",4983,918.580000055954,"fa","fa",1,5,"^6_v5_v4_v3_v2",3
"648",4983,2090.07999999449,"mi","mi",1,5,"^6_v5_v4_v3_v2",4
"649",4983,895.944999996573,"re","re",1,5,"^6_v5_v4_v3_v2",5
"650",4983,986.574999988079,"sol","sol",1,5,"v5_v4_v3_v2_v1 ",1
"651",4983,681.379999965429,"fa","fa",1,5,"v5_v4_v3_v2_v1 ",2
"652",4983,838.425000198185,"mi","mi",1,5,"v5_v4_v3_v2_v1 ",3
"653",4983,599.495000205934,"re","re",1,5,"v5_v4_v3_v2_v1 ",4
"654",4983,540.395000018179,"do","1 ",0,5,"v5_v4_v3_v2_v1 ",5
"655",4983,3090.0950001087,"re","re",1,5,"v2_2_^3_^4_v2",1
"656",4983,1052.65500000678,"re","re",1,5,"v2_2_^3_^4_v2",2
"657",4983,900.245000142604,"mi","mi",1,5,"v2_2_^3_^4_v2",3
"658",4983,603.880000067875,"fa","fa",1,5,"v2_2_^3_^4_v2",4
"659",4983,698.199999984354,"re","re",1,5,"v2_2_^3_^4_v2",5
"660",4983,1209.44000012241,"fi","fi",1,5,"v5-_v3_3_^4+_v3",1
"661",4983,1228.17500005476,"mi","mi",1,5,"v5-_v3_3_^4+_v3",2
"662",4983,632.354999892414,"mi","mi",1,5,"v5-_v3_3_^4+_v3",3
"663",4983,870.19499996677,"fi","fi",1,5,"v5-_v3_3_^4+_v3",4
"664",4983,720.059999963269,"mi","mi",1,5,"v5-_v3_3_^4+_v3",5
"665",4983,834.375000093132,"sol","sol",1,5,"v5_^6+_^7_^1_5",1
"666",4983,760.750000132248,"la","te",0,5,"v5_^6+_^7_^1_5",2
"667",4983,789.564999984577,"ti","ti",1,5,"v5_^6+_^7_^1_5",3
"668",4983,596.129999961704,"do","do",1,5,"v5_^6+_^7_^1_5",4
"669",4983,682.280000066385,"sol","sol",1,5,"v5_^6+_^7_^1_5",5
"670",4983,1135.25500008836,"la","la",1,5,"^6_v4_v3_^4_^5",1
"671",4983,1145.86999989115,"fa","fa",1,5,"^6_v4_v3_^4_^5",2
"672",4983,679.735000012442,"mi","mi",1,5,"^6_v4_v3_^4_^5",3
"673",4983,524.379999842495,"fa","fa",1,5,"^6_v4_v3_^4_^5",4
"674",4983,1536.08999983408,"sol","sol",1,5,"^6_v4_v3_^4_^5",5
"675",4983,1321.04000006802,"sol","sol",1,5,"v5_v4_v3_v2_v1",1
"676",4983,642.04499986954,"fa","fa",1,5,"v5_v4_v3_v2_v1",2
"677",4983,1102.32000006363,"mi","mi",1,5,"v5_v4_v3_v2_v1",3
"678",4983,636.189999990165,"re","re",1,5,"v5_v4_v3_v2_v1",4
"679",4983,615.969999926165,"do","do",1,5,"v5_v4_v3_v2_v1",5
"680",4983,1217.98000019044,"sol","sol",1,5,"^5_^6_v5_v4_v3",1
"681",4983,810.270000016317,"la","la",1,5,"^5_^6_v5_v4_v3",2
"682",4983,639.960000058636,"sol","sol",1,5,"^5_^6_v5_v4_v3",3
"683",4983,620.525000151247,"fa","fa",1,5,"^5_^6_v5_v4_v3",4
"684",4983,534.389999927953,"mi","mi",1,5,"^5_^6_v5_v4_v3",5
"685",4983,1494.01500006206,"do","do",1,7,"^1_v7_v6_v5_v4_v3_v2",1
"686",4983,950.294999871403,"ti","ti",1,7,"^1_v7_v6_v5_v4_v3_v2",2
"687",4983,698.205000022426,"la","la",1,7,"^1_v7_v6_v5_v4_v3_v2",3
"688",4983,980.020000133663,"sol","sol",1,7,"^1_v7_v6_v5_v4_v3_v2",4
"689",4983,668.394999811426,"fa","fa",1,7,"^1_v7_v6_v5_v4_v3_v2",5
"690",4983,523.985000094399,"mi","mi",1,7,"^1_v7_v6_v5_v4_v3_v2",6
"691",4983,782.314999960363,"re","re",1,7,"^1_v7_v6_v5_v4_v3_v2",7
"692",4983,1014.1050000675,"do","do",1,7,"1_^3_v1_^5_v3_v2_^3",1
"693",4983,1238.29500004649,"mi","mi",1,7,"1_^3_v1_^5_v3_v2_^3",2
"694",4983,822.970000095665,"do","do",1,7,"1_^3_v1_^5_v3_v2_^3",3
"695",4983,1170.62500002794,"sol","sol",1,7,"1_^3_v1_^5_v3_v2_^3",4
"696",4983,1527.50999992713,"mi","mi",1,7,"1_^3_v1_^5_v3_v2_^3",5
"697",4983,625.844999914989,"re","re",1,7,"1_^3_v1_^5_v3_v2_^3",6
"698",4983,538.36499992758,"mi","mi",1,7,"1_^3_v1_^5_v3_v2_^3",7
"699",4983,5485.32500001602,"fa","fa",1,7,"^4_v6-_v5-_^6-_^4_v2-_2-",1
"700",4983,5776.1200000532,"le","le",1,7,"^4_v6-_v5-_^6-_^4_v2-_2-",2
"701",4983,1378.53000010364,"fi","fi",1,7,"^4_v6-_v5-_^6-_^4_v2-_2-",3
"702",4983,1163.84499985725,"le","le",1,7,"^4_v6-_v5-_^6-_^4_v2-_2-",4
"703",4983,1462.22500014119,"fa","fa",1,7,"^4_v6-_v5-_^6-_^4_v2-_2-",5
"704",4983,12604.9450000282,"ra","ra",1,7,"^4_v6-_v5-_^6-_^4_v2-_2-",6
"705",4983,507.609999971464,"ra","ra",1,7,"^4_v6-_v5-_^6-_^4_v2-_2-",7
"706",4983,3008.8649999816,"la","la",1,7,"^6_v5+_v4_^5+_v3_v1_v7-",1
"707",4983,4923.52499999106,"le","le",1,7,"^6_v5+_v4_^5+_v3_v1_v7-",2
"708",4983,2203.02499993704,"fa","fa",1,7,"^6_v5+_v4_^5+_v3_v1_v7-",3
"709",4983,2756.5150000155,"le","le",1,7,"^6_v5+_v4_^5+_v3_v1_v7-",4
"710",4983,2272.79499988072,"mi","mi",1,7,"^6_v5+_v4_^5+_v3_v1_v7-",5
"711",4983,610.09500012733,"do","do",1,7,"^6_v5+_v4_^5+_v3_v1_v7-",6
"712",4983,312.734999926761,"do","te",0,7,"^6_v5+_v4_^5+_v3_v1_v7-",7
"713",4983,1578.51500017568,"do","do",1,7,"v1_^2_v1_v7_^1_^3_v2",1
"714",4983,879.995000082999,"re","re",1,7,"v1_^2_v1_v7_^1_^3_v2",2
"715",4983,727.629999862984,"do","do",1,7,"v1_^2_v1_v7_^1_^3_v2",3
"716",4983,1308.30999999307,"ti","ti",1,7,"v1_^2_v1_v7_^1_^3_v2",4
"717",4983,1058.04000003263,"do","do",1,7,"v1_^2_v1_v7_^1_^3_v2",5
"718",4983,1569.84000001103,"mi","mi",1,7,"v1_^2_v1_v7_^1_^3_v2",6
"719",4983,586.519999895245,"re","re",1,7,"v1_^2_v1_v7_^1_^3_v2",7
"720",4983,1446.55999983661,"fa","fa",1,7,"^4_^5_^6_v5_v4_v3_v2",1
"721",4983,881.300000008196,"sol","sol",1,7,"^4_^5_^6_v5_v4_v3_v2",2
"722",4983,790.255000116304,"la","la",1,7,"^4_^5_^6_v5_v4_v3_v2",3
"723",4983,671.924999915063,"sol","sol",1,7,"^4_^5_^6_v5_v4_v3_v2",4
"724",4983,674.329999834299,"fa","fa",1,7,"^4_^5_^6_v5_v4_v3_v2",5
"725",4983,844.975000014529,"mi","mi",1,7,"^4_^5_^6_v5_v4_v3_v2",6
"726",4983,633.879999862984,"re","re",1,7,"^4_^5_^6_v5_v4_v3_v2",7
"727",4983,1149.86000000499,"sol","sol",1,7,"^5_^6_v5_v4_v3_v2_v1",1
"728",4983,665.860000066459,"la","la",1,7,"^5_^6_v5_v4_v3_v2_v1",2
"729",4983,682.814999949187,"sol","sol",1,7,"^5_^6_v5_v4_v3_v2_v1",3
"730",4983,599.849999882281,"fa","fa",1,7,"^5_^6_v5_v4_v3_v2_v1",4
"731",4983,632.419999921694,"mi","mi",1,7,"^5_^6_v5_v4_v3_v2_v1",5
"732",4983,539.779999991879,"re","re",1,7,"^5_^6_v5_v4_v3_v2_v1",6
"733",4983,484.319999814034,"do","do",1,7,"^5_^6_v5_v4_v3_v2_v1",7
"734",4983,3409.63499993086,"sol","sol",1,9,"^5_^6_v5_v4_v3_v2_v1_^2_^3",1
"735",4983,617.97000002116,"la","la",1,9,"^5_^6_v5_v4_v3_v2_v1_^2_^3",2
"736",4983,572.230000048876,"sol","sol",1,9,"^5_^6_v5_v4_v3_v2_v1_^2_^3",3
"737",4983,619.76999999024,"fa","fa",1,9,"^5_^6_v5_v4_v3_v2_v1_^2_^3",4
"738",4983,616.604999871925,"mi","mi",1,9,"^5_^6_v5_v4_v3_v2_v1_^2_^3",5
"739",4983,760.354999918491,"re","re",1,9,"^5_^6_v5_v4_v3_v2_v1_^2_^3",6
"740",4983,650.464999955148,"do","do",1,9,"^5_^6_v5_v4_v3_v2_v1_^2_^3",7
"741",4983,546.994999982417,"re","re",1,9,"^5_^6_v5_v4_v3_v2_v1_^2_^3",8
"742",4983,508.004999952391,"mi","mi",1,9,"^5_^6_v5_v4_v3_v2_v1_^2_^3",9
"743",4983,8895.62500012107,"ti","ti",1,9,"v7_v6_v5_^6_v5_v4_^5_^6_v5",1
"744",4983,669.720000121742,"la","la",1,9,"v7_v6_v5_^6_v5_v4_^5_^6_v5",2
"745",4983,962.474999949336,"sol","sol",1,9,"v7_v6_v5_^6_v5_v4_^5_^6_v5",3
"746",4983,1626.30999996327,"fa","la",0,9,"v7_v6_v5_^6_v5_v4_^5_^6_v5",4
"747",4983,842.794999945909,"sol","sol",1,9,"v7_v6_v5_^6_v5_v4_^5_^6_v5",5
"748",4983,828.539999900386,"la","fa",0,9,"v7_v6_v5_^6_v5_v4_^5_^6_v5",6
"749",4983,596.404999960214,"sol","sol",1,9,"v7_v6_v5_^6_v5_v4_^5_^6_v5",7
"750",4983,527.830000035465,"fa","la",0,9,"v7_v6_v5_^6_v5_v4_^5_^6_v5",8
"751",4983,523.144999984652,"sol","sol",1,9,"v7_v6_v5_^6_v5_v4_^5_^6_v5",9
"752",4983,2530.96499992535,"re","re",1,9,"^2_^3_^4_^5_^6_v5_v4_v3_v2",1
"753",4983,2204.48499987833,"mi","mi",1,9,"^2_^3_^4_^5_^6_v5_v4_v3_v2",2
"754",4983,1090.39500006475,"fa","fa",1,9,"^2_^3_^4_^5_^6_v5_v4_v3_v2",3
"755",4983,772.154999896884,"sol","sol",1,9,"^2_^3_^4_^5_^6_v5_v4_v3_v2",4
"756",4983,706.375000067055,"la","la",1,9,"^2_^3_^4_^5_^6_v5_v4_v3_v2",5
"757",4983,648.135000141338,"sol","sol",1,9,"^2_^3_^4_^5_^6_v5_v4_v3_v2",6
"758",4983,656.659999862313,"fa","fa",1,9,"^2_^3_^4_^5_^6_v5_v4_v3_v2",7
"759",4983,523.559999885038,"mi","mi",1,9,"^2_^3_^4_^5_^6_v5_v4_v3_v2",8
"760",4983,1474.36499991454,"re","re",1,9,"^2_^3_^4_^5_^6_v5_v4_v3_v2",9
"761",4983,1832.22500002012,"mi","mi",1,9,"^3_^4_v2_v7_^1_^2_^3_3_^4",1
"762",4983,1525.88500012644,"fa","fa",1,9,"^3_^4_v2_v7_^1_^2_^3_3_^4",2
"763",4983,1617.70999990404,"re","re",1,9,"^3_^4_v2_v7_^1_^2_^3_3_^4",3
"764",4983,1108.51499997079,"ti","ti",1,9,"^3_^4_v2_v7_^1_^2_^3_3_^4",4
"765",4983,6941.52999995276,"do","do",1,9,"^3_^4_v2_v7_^1_^2_^3_3_^4",5
"766",4983,1241.47500004619,"re","re",1,9,"^3_^4_v2_v7_^1_^2_^3_3_^4",6
"767",4983,928.365000057966,"mi","mi",1,9,"^3_^4_v2_v7_^1_^2_^3_3_^4",7
"768",4983,881.909999996424,"mi","mi",1,9,"^3_^4_v2_v7_^1_^2_^3_3_^4",8
"769",4983,592.355000087991,"fa","fa",1,9,"^3_^4_v2_v7_^1_^2_^3_3_^4",9
"770",4983,1624.74999995902,"re","re",1,9,"^2_^4_v3_v2_v1_v3_v2+_^3_^5+",1
"771",4983,944.750000024214,"fa","fa",1,9,"^2_^4_v3_v2_v1_v3_v2+_^3_^5+",2
"772",4983,2020.39499999955,"mi","mi",1,9,"^2_^4_v3_v2_v1_v3_v2+_^3_^5+",3
"773",4983,1094.8699999135,"re","re",1,9,"^2_^4_v3_v2_v1_v3_v2+_^3_^5+",4
"774",4983,11697.5650000386,"ra","do",0,9,"^2_^4_v3_v2_v1_v3_v2+_^3_^5+",5
"775",4983,1576.48500008509,"mi","mi",1,9,"^2_^4_v3_v2_v1_v3_v2+_^3_^5+",6
"776",4983,475.910000037402,"me","me",1,9,"^2_^4_v3_v2_v1_v3_v2+_^3_^5+",7
"777",4983,546.055000042543,"mi","mi",1,9,"^2_^4_v3_v2_v1_v3_v2+_^3_^5+",8
"778",4983,2110.37499993108,"le","le",1,9,"^2_^4_v3_v2_v1_v3_v2+_^3_^5+",9
"779",4983,3391.34999993257,"sol","sol",1,9,"v5_v4_v6+_^7_^3+_v3_v2_v5_^4",1
"780",4983,687.845000065863,"fa","fa",1,9,"v5_v4_v6+_^7_^3+_v3_v2_v5_^4",2
"781",4983,2528.64500018768,"la","te",0,9,"v5_v4_v6+_^7_^3+_v3_v2_v5_^4",3
"782",4983,834.34999990277,"ti","ti",1,9,"v5_v4_v6+_^7_^3+_v3_v2_v5_^4",4
"783",4983,1988.570000045,"mi","3+",0,9,"v5_v4_v6+_^7_^3+_v3_v2_v5_^4",5
"784",4983,1634.2949999962,"re","mi",0,9,"v5_v4_v6+_^7_^3+_v3_v2_v5_^4",6
"785",4983,1510.28500008397,"sol","re",0,9,"v5_v4_v6+_^7_^3+_v3_v2_v5_^4",7
"786",4983,2588.44499988481,"la","sol",0,9,"v5_v4_v6+_^7_^3+_v3_v2_v5_^4",8
"787",4983,2856.71500000171,"mi","fa",0,9,"v5_v4_v6+_^7_^3+_v3_v2_v5_^4",9
"788",4983,1187.36499990337,"mi","mi",1,9,"^3_^4_^5 _^6_v5_v4_v3_v2_v1",1
"789",4983,737.384999869391,"fa","fa",1,9,"^3_^4_^5 _^6_v5_v4_v3_v2_v1",2
"790",4983,726.539999945089,"sol","5 ",0,9,"^3_^4_^5 _^6_v5_v4_v3_v2_v1",3
"791",4983,1007.94999999925,"la","la",1,9,"^3_^4_^5 _^6_v5_v4_v3_v2_v1",4
"792",4983,564.525000052527,"sol","sol",1,9,"^3_^4_^5 _^6_v5_v4_v3_v2_v1",5
"793",4983,718.720000004396,"fa","fa",1,9,"^3_^4_^5 _^6_v5_v4_v3_v2_v1",6
"794",4983,639.379999833182,"mi","mi",1,9,"^3_^4_^5 _^6_v5_v4_v3_v2_v1",7
"795",4983,532.665000064299,"re","re",1,9,"^3_^4_^5 _^6_v5_v4_v3_v2_v1",8
"796",4983,563.740000128746,"do","do",1,9,"^3_^4_^5 _^6_v5_v4_v3_v2_v1",9
"797",51424,1223.505,"do","do",1,2,"^1_^2+",1
"798",51424,700.685000000056,"me","me",1,2,"^1_^2+",2
"799",51424,2052.48999999999,"la","re",0,2,"v2_v1",1
"800",51424,516.524999999907,"sol","do",0,2,"v2_v1",2
"801",51424,6159.44499999995,"do","sol",0,2,"v5_v1+",1
"802",51424,3079.22499999998,"fi","ra",0,2,"v5_v1+",2
"803",51424,10984.61,"re","re",1,2,"^2_v7-",1
"804",51424,5519.47999999986,"la","te",0,2,"^2_v7-",2
"805",51424,806.254999999888,"re","mi",0,2,"^3_v4+",1
"806",51424,583.535000000033,"mi","fi",0,2,"^3_v4+",2
"807",51424,1522.12499999988,"do","mi",0,2,"3_^6",1
"808",51424,2416.76000000001,"fa","la",0,2,"3_^6",2
"809",51424,6916.1050000001,"fi","sol",0,2,"^5_^1+",1
"810",51424,842.509999999893,"do","ra",0,2,"^5_^1+",2
"811",51424,10212.8350000001,"mi","mi",1,2,"v3_v2",1
"812",51424,498.645000000135,"re","re",1,2,"v3_v2",2
"813",51424,879.985000000102,"fa","fa",1,2,"v4_v3",1
"814",51424,448.259999999893,"mi","mi",1,2,"v4_v3",2
"815",51424,1184.11499999999,"do","ti",0,2,"v7_v3",1
"816",51424,776.5900000002,"sol","mi",0,2,"v7_v3",2
"817",51424,982.76500000013,"mi","mi",1,3,"v3_v2_v1",1
"818",51424,659.994999999879,"re","re",1,3,"v3_v2_v1",2
"819",51424,723.295000000042,"do","do",1,3,"v3_v2_v1",3
"820",51424,17193.505,"re","do",0,3,"v1_v7-_^7",1
"821",51424,1460.14500000002,"ti","te",0,3,"v1_v7-_^7",2
"822",51424,454.380000000121,"do","ti",0,3,"v1_v7-_^7",3
"823",51424,14500.515,"te","la",0,3,"6_^1_v5",1
"824",51424,751.209999999963,"do","do",1,3,"6_^1_v5",2
"825",51424,768.904999999912,"sol","sol",1,3,"6_^1_v5",3
"826",51424,13758.4300000002,"te","fa",0,3,"v4_v3_v2",1
"827",51424,662.554999999818,"le","mi",0,3,"v4_v3_v2",2
"828",51424,796.155000000028,"sol","re",0,3,"v4_v3_v2",3
"829",51424,13278.21,"re","do",0,3,"v1_v7-_7-",1
"830",51424,933.115000000107,"ti","te",0,3,"v1_v7-_7-",2
"831",51424,1922.57499999984,"ti","te",0,3,"v1_v7-_7-",3
"832",51424,4098.94999999984,"fa","sol",0,3,"v5_v4_v3",1
"833",51424,575.064999999944,"me","fa",0,3,"v5_v4_v3",2
"834",51424,732.905000000028,"re","mi",0,3,"v5_v4_v3",3
"835",51424,4028.33499999996,"ti","do",0,3,"^1_v6_v5+",1
"836",51424,871.720000000088,"le","la",0,3,"^1_v6_v5+",2
"837",51424,418.690000000061,"sol","le",0,3,"^1_v6_v5+",3
"838",51424,9549.56499999994,"re","re",1,3,"v2_v5_^3",1
"839",51424,716.014999999898,"sol","sol",1,3,"v2_v5_^3",2
"840",51424,620.335000000079,"fa","mi",0,3,"v2_v5_^3",3
"841",51424,18223.8499999999,"fa","do",0,3,"1_v1+_^2",1
"842",51424,586.26500000013,"fi","ra",0,3,"1_v1+_^2",2
"843",51424,1100.83000000007,"sol","re",0,3,"1_v1+_^2",3
"844",51424,7752.82999999984,"fa","la",0,5,"^6_v5_v4_v3_v2",1
"845",51424,504.314999999944,"me","sol",0,5,"^6_v5_v4_v3_v2",2
"846",51424,440.245000000112,"re","fa",0,5,"^6_v5_v4_v3_v2",3
"847",51424,570.299999999814,"do","mi",0,5,"^6_v5_v4_v3_v2",4
"848",51424,1264.49000000022,"ti","re",0,5,"^6_v5_v4_v3_v2",5
"849",51424,4588.78499999992,"fa","sol",0,5,"^5_^6_v5_v4_v3",1
"850",51424,568.470000000205,"sol","la",0,5,"^5_^6_v5_v4_v3",2
"851",51424,514.510000000009,"fa","sol",0,5,"^5_^6_v5_v4_v3",3
"852",51424,406.540000000037,"mi","fa",0,5,"^5_^6_v5_v4_v3",4
"853",51424,635.520000000251,"re","mi",0,5,"^5_^6_v5_v4_v3",5
"854",51424,1293.74000000022,"mi","fi",0,5,"v5-_v3_3_^4+_v3",1
"855",51424,440.100000000093,"ra","mi",0,5,"v5-_v3_3_^4+_v3",2
"856",51424,962.824999999721,"re","mi",0,5,"v5-_v3_3_^4+_v3",3
"857",51424,620.165000000037,"mi","fi",0,5,"v5-_v3_3_^4+_v3",4
"858",51424,726.004999999888,"re","mi",0,5,"v5-_v3_3_^4+_v3",5
"859",51424,7388.93999999994,"sol","la",0,5,"^6_v4_v3_^4_^5",1
"860",51424,855.060000000056,"me","fa",0,5,"^6_v4_v3_^4_^5",2
"861",51424,726.989999999991,"re","mi",0,5,"^6_v4_v3_^4_^5",3
"862",51424,1102.51000000001,"me","fa",0,5,"^6_v4_v3_^4_^5",4
"863",51424,1025.65999999992,"fa","sol",0,5,"^6_v4_v3_^4_^5",5
"864",51424,18507.51,"sol","sol",1,5,"v5_v4_v3_v2_v1",1
"865",51424,531.639999999898,"fi","fa",0,5,"v5_v4_v3_v2_v1",2
"866",51424,690.120000000345,"mi","mi",1,5,"v5_v4_v3_v2_v1",3
"867",51424,2361.10000000009,"re","re",1,5,"v5_v4_v3_v2_v1",4
"868",51424,816.064999999944,"do","do",1,5,"v5_v4_v3_v2_v1",5
"869",51424,20631.0899999999,"do","sol",0,5,"v5_^6+_^7_^1_5",1
"870",51424,1338.79500000016,"re","te",0,5,"v5_^6+_^7_^1_5",2
"871",51424,667.510000000009,"me","ti",0,5,"v5_^6+_^7_^1_5",3
"872",51424,750.930000000168,"fa","do",0,5,"v5_^6+_^7_^1_5",4
"873",51424,888.65000000014,"do","sol",0,5,"v5_^6+_^7_^1_5",5
"874",51424,8921.48999999999,"me","re",0,5,"v2_2_^3_^4_v2",1
"875",51424,227.530000000261,"me","re",0,5,"v2_2_^3_^4_v2",2
"876",51424,901.149999999907,"fa","mi",0,5,"v2_2_^3_^4_v2",3
"877",51424,1297.47499999986,"sol","fa",0,5,"v2_2_^3_^4_v2",4
"878",51424,794.760000000009,"me","re",0,5,"v2_2_^3_^4_v2",5
"879",51424,3449.78000000026,"sol","sol",1,5,"v5_v4_v3_v2_v1 ",1
"880",51424,724.679999999702,"fa","fa",1,5,"v5_v4_v3_v2_v1 ",2
"881",51424,866.925000000279,"me","mi",0,5,"v5_v4_v3_v2_v1 ",3
"882",51424,431.764999999898,"re","re",1,5,"v5_v4_v3_v2_v1 ",4
"883",51424,485.979999999981,"do","1 ",0,5,"v5_v4_v3_v2_v1 ",5
"884",51424,5964.40999999992,"re","fa",0,7,"^4_v6-_v5-_^6-_^4_v2-_2-",1
"885",51424,1257.96500000032,"fa","le",0,7,"^4_v6-_v5-_^6-_^4_v2-_2-",2
"886",51424,715.430000000168,"mi","fi",0,7,"^4_v6-_v5-_^6-_^4_v2-_2-",3
"887",51424,1322.39999999991,"fa","le",0,7,"^4_v6-_v5-_^6-_^4_v2-_2-",4
"888",51424,2044.93000000017,"re","fa",0,7,"^4_v6-_v5-_^6-_^4_v2-_2-",5
"889",51424,2442.34499999997,"do","ra",0,7,"^4_v6-_v5-_^6-_^4_v2-_2-",6
"890",51424,802.305000000168,"do","ra",0,7,"^4_v6-_v5-_^6-_^4_v2-_2-",7
"891",51424,10258.9400000002,"do","do",1,7,"1_^3_v1_^5_v3_v2_^3",1
"892",51424,986.295000000158,"mi","mi",1,7,"1_^3_v1_^5_v3_v2_^3",2
"893",51424,953.904999999795,"do","do",1,7,"1_^3_v1_^5_v3_v2_^3",3
"894",51424,1061.36499999999,"fa","sol",0,7,"1_^3_v1_^5_v3_v2_^3",4
"895",51424,602.804999999935,"mi","mi",1,7,"1_^3_v1_^5_v3_v2_^3",5
"896",51424,808.395000000019,"do","re",0,7,"1_^3_v1_^5_v3_v2_^3",6
"897",51424,594.465000000084,"re","mi",0,7,"1_^3_v1_^5_v3_v2_^3",7
"898",51424,978.764999999898,"do","do",1,7,"^1_v7_v6_v5_v4_v3_v2",1
"899",51424,761.270000000019,"ti","ti",1,7,"^1_v7_v6_v5_v4_v3_v2",2
"900",51424,909.005000000121,"la","la",1,7,"^1_v7_v6_v5_v4_v3_v2",3
"901",51424,806.39000000013,"sol","sol",1,7,"^1_v7_v6_v5_v4_v3_v2",4
"902",51424,995.29000000027,"fa","fa",1,7,"^1_v7_v6_v5_v4_v3_v2",5
"903",51424,538.404999999795,"mi","mi",1,7,"^1_v7_v6_v5_v4_v3_v2",6
"904",51424,708.855000000447,"re","re",1,7,"^1_v7_v6_v5_v4_v3_v2",7
"905",51424,1865.87999999966,"do","do",1,7,"v1_^2_v1_v7_^1_^3_v2",1
"906",51424,592.31500000041,"re","re",1,7,"v1_^2_v1_v7_^1_^3_v2",2
"907",51424,570.6800000004,"do","do",1,7,"v1_^2_v1_v7_^1_^3_v2",3
"908",51424,1704.18500000006,"ti","ti",1,7,"v1_^2_v1_v7_^1_^3_v2",4
"909",51424,2438.33499999973,"do","do",1,7,"v1_^2_v1_v7_^1_^3_v2",5
"910",51424,4489.32499999995,"fa","mi",0,7,"v1_^2_v1_v7_^1_^3_v2",6
"911",51424,735.010000000242,"me","re",0,7,"v1_^2_v1_v7_^1_^3_v2",7
"912",51424,917.310000000289,"do","fa",0,7,"^4_^5_^6_v5_v4_v3_v2",1
"913",51424,504.680000000168,"re","sol",0,7,"^4_^5_^6_v5_v4_v3_v2",2
"914",51424,615.179999999935,"mi","la",0,7,"^4_^5_^6_v5_v4_v3_v2",3
"915",51424,541.324999999721,"re","sol",0,7,"^4_^5_^6_v5_v4_v3_v2",4
"916",51424,725.134999999776,"do","fa",0,7,"^4_^5_^6_v5_v4_v3_v2",5
"917",51424,898.290000000037,"ti","mi",0,7,"^4_^5_^6_v5_v4_v3_v2",6
"918",51424,602.785000000149,"la","re",0,7,"^4_^5_^6_v5_v4_v3_v2",7
"919",51424,2126.67000000016,"do","la",0,7,"^6_v5+_v4_^5+_v3_v1_v7-",1
"920",51424,772.085000000196,"ti","le",0,7,"^6_v5+_v4_^5+_v3_v1_v7-",2
"921",51424,2428.55000000005,"le","fa",0,7,"^6_v5+_v4_^5+_v3_v1_v7-",3
"922",51424,5776.95500000031,"ti","le",0,7,"^6_v5+_v4_^5+_v3_v1_v7-",4
"923",51424,6565.87999999966,"fa","mi",0,7,"^6_v5+_v4_^5+_v3_v1_v7-",5
"924",51424,1265.55499999993,"me","do",0,7,"^6_v5+_v4_^5+_v3_v1_v7-",6
"925",51424,838.680000000168,"re","te",0,7,"^6_v5+_v4_^5+_v3_v1_v7-",7
"926",51424,1288.59999999986,"do","sol",0,7,"^5_^6_v5_v4_v3_v2_v1",1
"927",51424,578.134999999776,"re","la",0,7,"^5_^6_v5_v4_v3_v2_v1",2
"928",51424,553.219999999739,"do","sol",0,7,"^5_^6_v5_v4_v3_v2_v1",3
"929",51424,1580.78500000015,"ti","fa",0,7,"^5_^6_v5_v4_v3_v2_v1",4
"930",51424,812.394999999786,"la","mi",0,7,"^5_^6_v5_v4_v3_v2_v1",5
"931",51424,597.199999999721,"sol","re",0,7,"^5_^6_v5_v4_v3_v2_v1",6
"932",51424,574.225000000326,"fa","do",0,7,"^5_^6_v5_v4_v3_v2_v1",7
"933",51424,1367.47999999998,"do","mi",0,9,"^3_^4_v2_v7_^1_^2_^3_3_^4",1
"934",51424,852.505000000354,"me","fa",0,9,"^3_^4_v2_v7_^1_^2_^3_3_^4",2
"935",51424,675.75,"re","re",1,9,"^3_^4_v2_v7_^1_^2_^3_3_^4",3
"936",51424,668.649999999674,"do","ti",0,9,"^3_^4_v2_v7_^1_^2_^3_3_^4",4
"937",51424,2131.00999999954,"ti","do",0,9,"^3_^4_v2_v7_^1_^2_^3_3_^4",5
"938",51424,1410.82000000007,"do","re",0,9,"^3_^4_v2_v7_^1_^2_^3_3_^4",6
"939",51424,1759.39999999991,"re","mi",0,9,"^3_^4_v2_v7_^1_^2_^3_3_^4",7
"940",51424,4508.75,"re","mi",0,9,"^3_^4_v2_v7_^1_^2_^3_3_^4",8
"941",51424,599.814999999944,"fa","fa",1,9,"^3_^4_v2_v7_^1_^2_^3_3_^4",9
"942",51424,1468.85000000009,"do","sol",0,9,"v5_v4_v6+_^7_^3+_v3_v2_v5_^4",1
"943",51424,587.794999999925,"ti","fa",0,9,"v5_v4_v6+_^7_^3+_v3_v2_v5_^4",2
"944",51424,1013.08999999985,"fa","te",0,9,"v5_v4_v6+_^7_^3+_v3_v2_v5_^4",3
"945",51424,649.494999999646,"mi","ti",0,9,"v5_v4_v6+_^7_^3+_v3_v2_v5_^4",4
"946",51424,1771.22500000009,"la","3+",0,9,"v5_v4_v6+_^7_^3+_v3_v2_v5_^4",5
"947",51424,904.89000000013,"sol","mi",0,9,"v5_v4_v6+_^7_^3+_v3_v2_v5_^4",6
"948",51424,2246.40000000014,"mi","re",0,9,"v5_v4_v6+_^7_^3+_v3_v2_v5_^4",7
"949",51424,2464.35000000009,"fa","sol",0,9,"v5_v4_v6+_^7_^3+_v3_v2_v5_^4",8
"950",51424,2539.12000000034,"fa","fa",1,9,"v5_v4_v6+_^7_^3+_v3_v2_v5_^4",9
"951",51424,2040.22999999998,"mi","ti",0,9,"v7_v6_v5_^6_v5_v4_^5_^6_v5",1
"952",51424,562.529999999562,"re","la",0,9,"v7_v6_v5_^6_v5_v4_^5_^6_v5",2
"953",51424,699.189999999944,"do","sol",0,9,"v7_v6_v5_^6_v5_v4_^5_^6_v5",3
"954",51424,4820.65999999968,"mi","la",0,9,"v7_v6_v5_^6_v5_v4_^5_^6_v5",4
"955",51424,520.260000000242,"re","sol",0,9,"v7_v6_v5_^6_v5_v4_^5_^6_v5",5
"956",51424,683.774999999907,"do","fa",0,9,"v7_v6_v5_^6_v5_v4_^5_^6_v5",6
"957",51424,1335.68999999994,"ti","sol",0,9,"v7_v6_v5_^6_v5_v4_^5_^6_v5",7
"958",51424,1773.71499999985,"la","la",1,9,"v7_v6_v5_^6_v5_v4_^5_^6_v5",8
"959",51424,1305.26999999979,"ti","sol",0,9,"v7_v6_v5_^6_v5_v4_^5_^6_v5",9
"960",51424,951.344999999972,"do","mi",0,9,"^3_^4_^5 _^6_v5_v4_v3_v2_v1",1
"961",51424,480.145000000019,"re","fa",0,9,"^3_^4_^5 _^6_v5_v4_v3_v2_v1",2
"962",51424,633.880000000121,"mi","5 ",0,9,"^3_^4_^5 _^6_v5_v4_v3_v2_v1",3
"963",51424,654.395000000019,"fi","la",0,9,"^3_^4_^5 _^6_v5_v4_v3_v2_v1",4
"964",51424,1192.69000000018,"mi","sol",0,9,"^3_^4_^5 _^6_v5_v4_v3_v2_v1",5
"965",51424,608.914999999804,"re","fa",0,9,"^3_^4_^5 _^6_v5_v4_v3_v2_v1",6
"966",51424,619.345000000205,"do","mi",0,9,"^3_^4_^5 _^6_v5_v4_v3_v2_v1",7
"967",51424,1444.48999999976,"ti","re",0,9,"^3_^4_^5 _^6_v5_v4_v3_v2_v1",8
"968",51424,431.950000000186,"la","do",0,9,"^3_^4_^5 _^6_v5_v4_v3_v2_v1",9
"969",51424,6179.47500000009,"do","sol",0,9,"^5_^6_v5_v4_v3_v2_v1_^2_^3",1
"970",51424,2632.84999999986,"mi","la",0,9,"^5_^6_v5_v4_v3_v2_v1_^2_^3",2
"971",51424,565.479999999749,"re","sol",0,9,"^5_^6_v5_v4_v3_v2_v1_^2_^3",3
"972",51424,580.194999999832,"do","fa",0,9,"^5_^6_v5_v4_v3_v2_v1_^2_^3",4
"973",51424,977.844999999972,"ti","mi",0,9,"^5_^6_v5_v4_v3_v2_v1_^2_^3",5
"974",51424,1068.5149999999,"la","re",0,9,"^5_^6_v5_v4_v3_v2_v1_^2_^3",6
"975",51424,8412.1799999997,"fa","do",0,9,"^5_^6_v5_v4_v3_v2_v1_^2_^3",7
"976",51424,585.185000000289,"sol","re",0,9,"^5_^6_v5_v4_v3_v2_v1_^2_^3",8
"977",51424,889.560000000056,"la","mi",0,9,"^5_^6_v5_v4_v3_v2_v1_^2_^3",9
"978",51424,948.64000000013,"do","re",0,9,"^2_^3_^4_^5_^6_v5_v4_v3_v2",1
"979",51424,571.054999999935,"re","mi",0,9,"^2_^3_^4_^5_^6_v5_v4_v3_v2",2
"980",51424,969.074999999953,"me","fa",0,9,"^2_^3_^4_^5_^6_v5_v4_v3_v2",3
"981",51424,872.854999999981,"sol","sol",1,9,"^2_^3_^4_^5_^6_v5_v4_v3_v2",4
"982",51424,715.344999999972,"fa","la",0,9,"^2_^3_^4_^5_^6_v5_v4_v3_v2",5
"983",51424,1095.53499999992,"me","sol",0,9,"^2_^3_^4_^5_^6_v5_v4_v3_v2",6
"984",51424,1778.48499999987,"re","fa",0,9,"^2_^3_^4_^5_^6_v5_v4_v3_v2",7
"985",51424,1746.54499999993,"do","mi",0,9,"^2_^3_^4_^5_^6_v5_v4_v3_v2",8
"986",51424,3299,"do","re",0,9,"^2_^3_^4_^5_^6_v5_v4_v3_v2",9
"987",51424,1599.41000000015,"do","re",0,9,"^2_^4_v3_v2_v1_v3_v2+_^3_^5+",1
"988",51424,1026.84500000044,"me","fa",0,9,"^2_^4_v3_v2_v1_v3_v2+_^3_^5+",2
"989",51424,768.149999999907,"re","mi",0,9,"^2_^4_v3_v2_v1_v3_v2+_^3_^5+",3
"990",51424,1150.43999999994,"do","re",0,9,"^2_^4_v3_v2_v1_v3_v2+_^3_^5+",4
"991",51424,2047.16999999993,"re","do",0,9,"^2_^4_v3_v2_v1_v3_v2+_^3_^5+",5
"992",51424,1109.33000000007,"do","mi",0,9,"^2_^4_v3_v2_v1_v3_v2+_^3_^5+",6
"993",51424,2816.84499999997,"la","me",0,9,"^2_^4_v3_v2_v1_v3_v2+_^3_^5+",7
"994",51424,3403.59999999963,"do","mi",0,9,"^2_^4_v3_v2_v1_v3_v2+_^3_^5+",8
"995",51424,3169.91500000004,"fa","le",0,9,"^2_^4_v3_v2_v1_v3_v2+_^3_^5+",9
"996",55070,1547.75499994867,"do","do",1,2,"^1_^2+",1
"997",55070,1030.92000004835,"me","me",1,2,"^1_^2+",2
"998",55070,5705.54499991704,"mi","mi",1,2,"3_^6",1
"999",55070,1295.18499993719,"la","la",1,2,"3_^6",2
"1000",55070,1044.03999994975,"re","re",1,2,"v2_v1",1
"1001",55070,665.990000008605,"do","do",1,2,"v2_v1",2
"1002",55070,941.509999916889,"fa","fa",1,2,"v4_v3",1
"1003",55070,783.565000048839,"mi","mi",1,2,"v4_v3",2
"1004",55070,2931.03500001598,"re","re",1,2,"^2_v7-",1
"1005",55070,1011.52000005823,"te","te",1,2,"^2_v7-",2
"1006",55070,1255.14000002295,"mi","mi",1,2,"v3_v2",1
"1007",55070,695.505000068806,"re","re",1,2,"v3_v2",2
"1008",55070,12750.0900001032,"sol","sol",1,2,"v5_v1+",1
"1009",55070,1544.21500000171,"ra","ra",1,2,"v5_v1+",2
"1010",55070,10044.579999987,"mi","mi",1,2,"^3_v4+",1
"1011",55070,977.234999998473,"fi","fi",1,2,"^3_v4+",2
"1012",55070,1596.26499994192,"sol","sol",1,2,"^5_^1+",1
"1013",55070,4563.36000002921,"ra","ra",1,2,"^5_^1+",2
"1014",55070,936.989999958314,"ti","ti",1,2,"v7_v3",1
"1015",55070,971.434999955818,"mi","mi",1,2,"v7_v3",2
"1016",55070,1906.09499998391,"re","re",1,3,"v2_v5_^3",1
"1017",55070,2173.94999996759,"sol","sol",1,3,"v2_v5_^3",2
"1018",55070,976.78500006441,"mi","mi",1,3,"v2_v5_^3",3
"1019",55070,2130.39499998558,"do","do",1,3,"^1_v6_v5+",1
"1020",55070,1183.03499999456,"la","la",1,3,"^1_v6_v5+",2
"1021",55070,996.685000020079,"le","le",1,3,"^1_v6_v5+",3
"1022",55070,1121.09999998938,"fa","fa",1,3,"v4_v3_v2",1
"1023",55070,586.36000007391,"mi","mi",1,3,"v4_v3_v2",2
"1024",55070,566.375000053085,"re","re",1,3,"v4_v3_v2",3
"1025",55070,980.619999929331,"sol","sol",1,3,"v5_v4_v3",1
"1026",55070,743.550000013784,"fa","fa",1,3,"v5_v4_v3",2
"1027",55070,621.980000054464,"mi","mi",1,3,"v5_v4_v3",3
"1028",55070,1259.48999996763,"mi","mi",1,3,"v3_v2_v1",1
"1029",55070,593.55999995023,"re","re",1,3,"v3_v2_v1",2
"1030",55070,554.525000043213,"do","do",1,3,"v3_v2_v1",3
"1031",55070,2646.62999997381,"la","la",1,3,"6_^1_v5",1
"1032",55070,680.845000082627,"do","do",1,3,"6_^1_v5",2
"1033",55070,923.94999996759,"sol","sol",1,3,"6_^1_v5",3
"1034",55070,1144.10000003409,"do","do",1,3,"1_v1+_^2",1
"1035",55070,545.849999994971,"ra","ra",1,3,"1_v1+_^2",2
"1036",55070,501.569999963976,"re","re",1,3,"1_v1+_^2",3
"1037",55070,1428.42500004917,"do","do",1,3,"v1_v7-_^7",1
"1038",55070,560.569999972358,"te","te",1,3,"v1_v7-_^7",2
"1039",55070,484.270000015385,"ti","ti",1,3,"v1_v7-_^7",3
"1040",55070,884.925000020303,"do","do",1,3,"v1_v7-_7-",1
"1041",55070,520.774999982677,"te","te",1,3,"v1_v7-_7-",2
"1042",55070,455.339999985881,"te","te",1,3,"v1_v7-_7-",3
"1043",55070,1962.4499999918,"la","la",1,5,"^6_v4_v3_^4_^5",1
"1044",55070,2042.51499997918,"fa","fa",1,5,"^6_v4_v3_^4_^5",2
"1045",55070,1917.91499999817,"mi","mi",1,5,"^6_v4_v3_^4_^5",3
"1046",55070,907.419999944977,"fa","fa",1,5,"^6_v4_v3_^4_^5",4
"1047",55070,677.454999997281,"sol","sol",1,5,"^6_v4_v3_^4_^5",5
"1048",55070,1457.91499991901,"re","re",1,5,"v2_2_^3_^4_v2",1
"1049",55070,540.259999921545,"re","re",1,5,"v2_2_^3_^4_v2",2
"1050",55070,4714.4500000868,"mi","mi",1,5,"v2_2_^3_^4_v2",3
"1051",55070,537.895000074059,"fa","fa",1,5,"v2_2_^3_^4_v2",4
"1052",55070,658.195000025444,"re","re",1,5,"v2_2_^3_^4_v2",5
"1053",55070,901.229999959469,"sol","sol",1,5,"v5_v4_v3_v2_v1 ",1
"1054",55070,517.070000059903,"fa","fa",1,5,"v5_v4_v3_v2_v1 ",2
"1055",55070,407.009999966249,"mi","mi",1,5,"v5_v4_v3_v2_v1 ",3
"1056",55070,510.965000023134,"re","re",1,5,"v5_v4_v3_v2_v1 ",4
"1057",55070,470.994999981485,"do","1 ",0,5,"v5_v4_v3_v2_v1 ",5
"1058",55070,1248.87500004843,"la","la",1,5,"^6_v5_v4_v3_v2",1
"1059",55070,496.099999989383,"sol","sol",1,5,"^6_v5_v4_v3_v2",2
"1060",55070,509.309999994002,"fa","fa",1,5,"^6_v5_v4_v3_v2",3
"1061",55070,410.524999955669,"mi","mi",1,5,"^6_v5_v4_v3_v2",4
"1062",55070,454.209999996237,"re","re",1,5,"^6_v5_v4_v3_v2",5
"1063",55070,1587.93499995954,"sol","sol",1,5,"v5_^6+_^7_^1_5",1
"1064",55070,527.230000006966,"la","te",0,5,"v5_^6+_^7_^1_5",2
"1065",55070,625.804999959655,"ti","ti",1,5,"v5_^6+_^7_^1_5",3
"1066",55070,634.089999948628,"do","do",1,5,"v5_^6+_^7_^1_5",4
"1067",55070,884.144999901764,"sol","sol",1,5,"v5_^6+_^7_^1_5",5
"1068",55070,1241.72499997076,"sol","sol",1,5,"^5_^6_v5_v4_v3",1
"1069",55070,485.895000048913,"la","la",1,5,"^5_^6_v5_v4_v3",2
"1070",55070,532.400000025518,"sol","sol",1,5,"^5_^6_v5_v4_v3",3
"1071",55070,502.9649999924,"fa","fa",1,5,"^5_^6_v5_v4_v3",4
"1072",55070,455.19999996759,"mi","mi",1,5,"^5_^6_v5_v4_v3",5
"1073",55070,3108.22000005282,"fi","fi",1,5,"v5-_v3_3_^4+_v3",1
"1074",55070,521.730000036769,"mi","mi",1,5,"v5-_v3_3_^4+_v3",2
"1075",55070,483.795000007376,"mi","mi",1,5,"v5-_v3_3_^4+_v3",3
"1076",55070,547.325000050478,"fi","fi",1,5,"v5-_v3_3_^4+_v3",4
"1077",55070,501.359999994747,"mi","mi",1,5,"v5-_v3_3_^4+_v3",5
"1078",55070,961.060000001453,"sol","sol",1,5,"v5_v4_v3_v2_v1",1
"1079",55070,481.489999918267,"fa","fa",1,5,"v5_v4_v3_v2_v1",2
"1080",55070,381.41499995254,"mi","mi",1,5,"v5_v4_v3_v2_v1",3
"1081",55070,510.209999978542,"re","re",1,5,"v5_v4_v3_v2_v1",4
"1082",55070,436.099999933504,"do","do",1,5,"v5_v4_v3_v2_v1",5
"1083",55070,1147.54999999423,"do","do",1,7,"^1_v7_v6_v5_v4_v3_v2",1
"1084",55070,462.815000093542,"ti","ti",1,7,"^1_v7_v6_v5_v4_v3_v2",2
"1085",55070,529.025000054389,"la","la",1,7,"^1_v7_v6_v5_v4_v3_v2",3
"1086",55070,577.095000073314,"sol","sol",1,7,"^1_v7_v6_v5_v4_v3_v2",4
"1087",55070,602.529999916442,"fa","fa",1,7,"^1_v7_v6_v5_v4_v3_v2",5
"1088",55070,425.04999996163,"mi","mi",1,7,"^1_v7_v6_v5_v4_v3_v2",6
"1089",55070,491.784999961965,"re","re",1,7,"^1_v7_v6_v5_v4_v3_v2",7
"1090",55070,6706.66000002529,"fa","fa",1,7,"^4_v6-_v5-_^6-_^4_v2-_2-",1
"1091",55070,1981.98500007857,"la","le",0,7,"^4_v6-_v5-_^6-_^4_v2-_2-",2
"1092",55070,621.060000034049,"la","fi",0,7,"^4_v6-_v5-_^6-_^4_v2-_2-",3
"1093",55070,6206.54499996454,"ti","le",0,7,"^4_v6-_v5-_^6-_^4_v2-_2-",4
"1094",55070,1257.80999998096,"fa","fa",1,7,"^4_v6-_v5-_^6-_^4_v2-_2-",5
"1095",55070,1044.38999993727,"la","ra",0,7,"^4_v6-_v5-_^6-_^4_v2-_2-",6
"1096",55070,500.625000102445,"la","ra",0,7,"^4_v6-_v5-_^6-_^4_v2-_2-",7
"1097",55070,10726.9199999282,"fa","fa",1,7,"^4_^5_^6_v5_v4_v3_v2",1
"1098",55070,527.560000075027,"sol","sol",1,7,"^4_^5_^6_v5_v4_v3_v2",2
"1099",55070,545.180000015534,"la","la",1,7,"^4_^5_^6_v5_v4_v3_v2",3
"1100",55070,450.714999926277,"sol","sol",1,7,"^4_^5_^6_v5_v4_v3_v2",4
"1101",55070,416.710000019521,"fa","fa",1,7,"^4_^5_^6_v5_v4_v3_v2",5
"1102",55070,634.659999981523,"mi","mi",1,7,"^4_^5_^6_v5_v4_v3_v2",6
"1103",55070,518.135000020266,"re","re",1,7,"^4_^5_^6_v5_v4_v3_v2",7
"1104",55070,1360.32000009436,"la","la",1,7,"^6_v5+_v4_^5+_v3_v1_v7-",1
"1105",55070,446.274999994785,"le","le",1,7,"^6_v5+_v4_^5+_v3_v1_v7-",2
"1106",55070,948.375000036322,"sol","fa",0,7,"^6_v5+_v4_^5+_v3_v1_v7-",3
"1107",55070,532.540000043809,"le","le",1,7,"^6_v5+_v4_^5+_v3_v1_v7-",4
"1108",55070,2166.5600000415,"fa","mi",0,7,"^6_v5+_v4_^5+_v3_v1_v7-",5
"1109",55070,1174.58500002977,"me","do",0,7,"^6_v5+_v4_^5+_v3_v1_v7-",6
"1110",55070,516.490000067279,"re","te",0,7,"^6_v5+_v4_^5+_v3_v1_v7-",7
"1111",55070,971.075000008568,"sol","sol",1,7,"^5_^6_v5_v4_v3_v2_v1",1
"1112",55070,492.254999931902,"la","la",1,7,"^5_^6_v5_v4_v3_v2_v1",2
"1113",55070,488.144999952056,"sol","sol",1,7,"^5_^6_v5_v4_v3_v2_v1",3
"1114",55070,504.000000073574,"fa","fa",1,7,"^5_^6_v5_v4_v3_v2_v1",4
"1115",55070,395.870000007562,"mi","mi",1,7,"^5_^6_v5_v4_v3_v2_v1",5
"1116",55070,437.450000084937,"re","re",1,7,"^5_^6_v5_v4_v3_v2_v1",6
"1117",55070,415.62999994494,"do","do",1,7,"^5_^6_v5_v4_v3_v2_v1",7
"1118",55070,1669.04999990948,"do","do",1,7,"v1_^2_v1_v7_^1_^3_v2",1
"1119",55070,601.030000019819,"ra","re",0,7,"v1_^2_v1_v7_^1_^3_v2",2
"1120",55070,495.899999979883,"do","do",1,7,"v1_^2_v1_v7_^1_^3_v2",3
"1121",55070,732.644999981858,"ti","ti",1,7,"v1_^2_v1_v7_^1_^3_v2",4
"1122",55070,858.269999967888,"do","do",1,7,"v1_^2_v1_v7_^1_^3_v2",5
"1123",55070,2947.07999995444,"mi","mi",1,7,"v1_^2_v1_v7_^1_^3_v2",6
"1124",55070,467.615000088699,"re","re",1,7,"v1_^2_v1_v7_^1_^3_v2",7
"1125",55070,1416.39999998733,"do","do",1,7,"1_^3_v1_^5_v3_v2_^3",1
"1126",55070,811.054999940097,"mi","mi",1,7,"1_^3_v1_^5_v3_v2_^3",2
"1127",55070,607.985000009649,"do","do",1,7,"1_^3_v1_^5_v3_v2_^3",3
"1128",55070,1246.37499998789,"sol","sol",1,7,"1_^3_v1_^5_v3_v2_^3",4
"1129",55070,2228.43999997713,"mi","mi",1,7,"1_^3_v1_^5_v3_v2_^3",5
"1130",55070,412.280000047758,"re","re",1,7,"1_^3_v1_^5_v3_v2_^3",6
"1131",55070,513.979999930598,"mi","mi",1,7,"1_^3_v1_^5_v3_v2_^3",7
"1132",55070,884.324999991804,"sol","sol",1,9,"^5_^6_v5_v4_v3_v2_v1_^2_^3",1
"1133",55070,542.374999960884,"la","la",1,9,"^5_^6_v5_v4_v3_v2_v1_^2_^3",2
"1134",55070,518.225000007078,"sol","sol",1,9,"^5_^6_v5_v4_v3_v2_v1_^2_^3",3
"1135",55070,565.815000096336,"fa","fa",1,9,"^5_^6_v5_v4_v3_v2_v1_^2_^3",4
"1136",55070,435.679999995045,"mi","mi",1,9,"^5_^6_v5_v4_v3_v2_v1_^2_^3",5
"1137",55070,461.159999947995,"re","re",1,9,"^5_^6_v5_v4_v3_v2_v1_^2_^3",6
"1138",55070,506.529999896884,"do","do",1,9,"^5_^6_v5_v4_v3_v2_v1_^2_^3",7
"1139",55070,521.545000025071,"re","re",1,9,"^5_^6_v5_v4_v3_v2_v1_^2_^3",8
"1140",55070,496.420000097714,"mi","mi",1,9,"^5_^6_v5_v4_v3_v2_v1_^2_^3",9
"1141",55070,1050.53500004578,"sol","sol",1,9,"v5_v4_v6+_^7_^3+_v3_v2_v5_^4",1
"1142",55070,579.989999998361,"fa","fa",1,9,"v5_v4_v6+_^7_^3+_v3_v2_v5_^4",2
"1143",55070,4398.96000002045,"la","te",0,9,"v5_v4_v6+_^7_^3+_v3_v2_v5_^4",3
"1144",55070,572.25000008475,"ti","ti",1,9,"v5_v4_v6+_^7_^3+_v3_v2_v5_^4",4
"1145",55070,5946.16000005044,"mi","3+",0,9,"v5_v4_v6+_^7_^3+_v3_v2_v5_^4",5
"1146",55070,504.575000028126,"me","mi",0,9,"v5_v4_v6+_^7_^3+_v3_v2_v5_^4",6
"1147",55070,544.494999921881,"re","re",1,9,"v5_v4_v6+_^7_^3+_v3_v2_v5_^4",7
"1148",55070,4263.78999999724,"te","sol",0,9,"v5_v4_v6+_^7_^3+_v3_v2_v5_^4",8
"1149",55070,1747.50499997754,"ra","fa",0,9,"v5_v4_v6+_^7_^3+_v3_v2_v5_^4",9
"1150",55070,5386.38999999966,"mi","mi",1,9,"^3_^4_^5 _^6_v5_v4_v3_v2_v1",1
"1151",55070,445.154999964871,"fa","fa",1,9,"^3_^4_^5 _^6_v5_v4_v3_v2_v1",2
"1152",55070,552.410000003874,"sol","5 ",0,9,"^3_^4_^5 _^6_v5_v4_v3_v2_v1",3
"1153",55070,959.890000056475,"la","la",1,9,"^3_^4_^5 _^6_v5_v4_v3_v2_v1",4
"1154",55070,468.379999976605,"sol","sol",1,9,"^3_^4_^5 _^6_v5_v4_v3_v2_v1",5
"1155",55070,842.814999981783,"fa","fa",1,9,"^3_^4_^5 _^6_v5_v4_v3_v2_v1",6
"1156",55070,546.319999964908,"mi","mi",1,9,"^3_^4_^5 _^6_v5_v4_v3_v2_v1",7
"1157",55070,611.939999973401,"re","re",1,9,"^3_^4_^5 _^6_v5_v4_v3_v2_v1",8
"1158",55070,2351.55999998096,"do","do",1,9,"^3_^4_^5 _^6_v5_v4_v3_v2_v1",9
"1159",55070,2609.07500004396,"re","re",1,9,"^2_^4_v3_v2_v1_v3_v2+_^3_^5+",1
"1160",55070,666.230000089854,"fa","fa",1,9,"^2_^4_v3_v2_v1_v3_v2+_^3_^5+",2
"1161",55070,405.129999970086,"mi","mi",1,9,"^2_^4_v3_v2_v1_v3_v2+_^3_^5+",3
"1162",55070,487.949999980628,"re","re",1,9,"^2_^4_v3_v2_v1_v3_v2+_^3_^5+",4
"1163",55070,948.070000042208,"do","do",1,9,"^2_^4_v3_v2_v1_v3_v2+_^3_^5+",5
"1164",55070,1184.94999990799,"fi","mi",0,9,"^2_^4_v3_v2_v1_v3_v2+_^3_^5+",6
"1165",55070,1705.74000000488,"mi","me",0,9,"^2_^4_v3_v2_v1_v3_v2+_^3_^5+",7
"1166",55070,665.840000030585,"fi","mi",0,9,"^2_^4_v3_v2_v1_v3_v2+_^3_^5+",8
"1167",55070,1853.13499998301,"me","le",0,9,"^2_^4_v3_v2_v1_v3_v2+_^3_^5+",9
"1168",55070,1384.60500002839,"re","re",1,9,"^2_^3_^4_^5_^6_v5_v4_v3_v2",1
"1169",55070,1138.95500008948,"mi","mi",1,9,"^2_^3_^4_^5_^6_v5_v4_v3_v2",2
"1170",55070,402.125000022352,"fa","fa",1,9,"^2_^3_^4_^5_^6_v5_v4_v3_v2",3
"1171",55070,543.530000024475,"sol","sol",1,9,"^2_^3_^4_^5_^6_v5_v4_v3_v2",4
"1172",55070,491.470000008121,"la","la",1,9,"^2_^3_^4_^5_^6_v5_v4_v3_v2",5
"1173",55070,474.754999973811,"sol","sol",1,9,"^2_^3_^4_^5_^6_v5_v4_v3_v2",6
"1174",55070,535.455000004731,"fa","fa",1,9,"^2_^3_^4_^5_^6_v5_v4_v3_v2",7
"1175",55070,404.749999986961,"mi","mi",1,9,"^2_^3_^4_^5_^6_v5_v4_v3_v2",8
"1176",55070,435.109999962151,"re","re",1,9,"^2_^3_^4_^5_^6_v5_v4_v3_v2",9
"1177",55070,1708.99499999359,"ti","ti",1,9,"v7_v6_v5_^6_v5_v4_^5_^6_v5",1
"1178",55070,482.154999976046,"la","la",1,9,"v7_v6_v5_^6_v5_v4_^5_^6_v5",2
"1179",55070,494.004999985918,"sol","sol",1,9,"v7_v6_v5_^6_v5_v4_^5_^6_v5",3
"1180",55070,473.240000079386,"la","la",1,9,"v7_v6_v5_^6_v5_v4_^5_^6_v5",4
"1181",55070,523.999999975786,"sol","sol",1,9,"v7_v6_v5_^6_v5_v4_^5_^6_v5",5
"1182",55070,573.86999996379,"fa","fa",1,9,"v7_v6_v5_^6_v5_v4_^5_^6_v5",6
"1183",55070,555.999999982305,"sol","sol",1,9,"v7_v6_v5_^6_v5_v4_^5_^6_v5",7
"1184",55070,473.814999917522,"la","la",1,9,"v7_v6_v5_^6_v5_v4_^5_^6_v5",8
"1185",55070,444.144999957643,"sol","sol",1,9,"v7_v6_v5_^6_v5_v4_^5_^6_v5",9
"1186",55070,4463.74000003561,"mi","mi",1,9,"^3_^4_v2_v7_^1_^2_^3_3_^4",1
"1187",55070,551.504999981262,"fa","fa",1,9,"^3_^4_v2_v7_^1_^2_^3_3_^4",2
"1188",55070,1041.93499998655,"re","re",1,9,"^3_^4_v2_v7_^1_^2_^3_3_^4",3
"1189",55070,758.965000044554,"ti","ti",1,9,"^3_^4_v2_v7_^1_^2_^3_3_^4",4
"1190",55070,2801.2700000545,"re","do",0,9,"^3_^4_v2_v7_^1_^2_^3_3_^4",5
"1191",55070,570.454999920912,"mi","re",0,9,"^3_^4_v2_v7_^1_^2_^3_3_^4",6
"1192",55070,496.595000033267,"mi","mi",1,9,"^3_^4_v2_v7_^1_^2_^3_3_^4",7
"1193",55070,546.154999989085,"fa","mi",0,9,"^3_^4_v2_v7_^1_^2_^3_3_^4",8
"1194",55070,1024.66500003356,"fa","fa",1,9,"^3_^4_v2_v7_^1_^2_^3_3_^4",9
"1195",55761,3715.73999989778,"re","re",1,2,"v2_v1",1
"1196",55761,1943.28000000678,"do","do",1,2,"v2_v1",2
"1197",55761,5797.89500008337,"re","sol",0,2,"^5_^1+",1
"1198",55761,2798.36999997497,"le","ra",0,2,"^5_^1+",2
"1199",55761,2362.53000004217,"do","do",1,2,"^1_^2+",1
"1200",55761,1260.5999999214,"me","me",1,2,"^1_^2+",2
"1201",55761,4810.01499993727,"re","re",1,2,"^2_v7-",1
"1202",55761,5673.86000021361,"te","te",1,2,"^2_v7-",2
"1203",55761,2630.16499998048,"sol","sol",1,2,"v5_v1+",1
"1204",55761,848.740000044927,"ra","ra",1,2,"v5_v1+",2
"1205",55761,1367.29500000365,"ti","ti",1,2,"v7_v3",1
"1206",55761,3020.7549999468,"mi","mi",1,2,"v7_v3",2
"1207",55761,5552.23000003025,"re","mi",0,2,"3_^6",1
"1208",55761,1860.72499980219,"la","la",1,2,"3_^6",2
"1209",55761,6315.63500012271,"fa","fa",1,2,"v4_v3",1
"1210",55761,597.134999930859,"mi","mi",1,2,"v4_v3",2
"1211",55761,3743.34000004455,"mi","mi",1,2,"v3_v2",1
"1212",55761,1062.88000009954,"re","re",1,2,"v3_v2",2
"1213",55761,1107.13999997824,"mi","mi",1,2,"^3_v4+",1
"1214",55761,679.400000022724,"fi","fi",1,2,"^3_v4+",2
"1215",55761,2119.33499993756,"re","re",1,3,"v2_v5_^3",1
"1216",55761,1709.21000000089,"sol","sol",1,3,"v2_v5_^3",2
"1217",55761,4053.31999994814,"mi","mi",1,3,"v2_v5_^3",3
"1218",55761,1300.31999992207,"mi","mi",1,3,"v3_v2_v1",1
"1219",55761,628.860000055283,"re","re",1,3,"v3_v2_v1",2
"1220",55761,838.600000133738,"do","do",1,3,"v3_v2_v1",3
"1221",55761,2299.24999992363,"do","do",1,3,"v1_v7-_7-",1
"1222",55761,766.53499994427,"te","te",1,3,"v1_v7-_7-",2
"1223",55761,828.824999975041,"te","te",1,3,"v1_v7-_7-",3
"1224",55761,1284.45999999531,"sol","sol",1,3,"v5_v4_v3",1
"1225",55761,654.795000096783,"fa","fa",1,3,"v5_v4_v3",2
"1226",55761,882.815000135452,"mi","mi",1,3,"v5_v4_v3",3
"1227",55761,1521.32000005804,"do","do",1,3,"1_v1+_^2",1
"1228",55761,1422.15500003658,"ra","ra",1,3,"1_v1+_^2",2
"1229",55761,1704.61499993689,"re","re",1,3,"1_v1+_^2",3
"1230",55761,1951.31000014953,"la","la",1,3,"6_^1_v5",1
"1231",55761,1384.58999991417,"do","do",1,3,"6_^1_v5",2
"1232",55761,1829.29000002332,"sol","sol",1,3,"6_^1_v5",3
"1233",55761,3083.39500008151,"do","do",1,3,"^1_v6_v5+",1
"1234",55761,1822.55000015721,"le","la",0,3,"^1_v6_v5+",2
"1235",55761,1395.50000010058,"sol","le",0,3,"^1_v6_v5+",3
"1236",55761,9439.86999988556,"do","do",1,3,"v1_v7-_^7",1
"1237",55761,4701.31999999285,"te","te",1,3,"v1_v7-_^7",2
"1238",55761,628.990000113845,"ti","ti",1,3,"v1_v7-_^7",3
"1239",55761,1848.38500013575,"fa","fa",1,3,"v4_v3_v2",1
"1240",55761,789.95000012219,"mi","mi",1,3,"v4_v3_v2",2
"1241",55761,965.844999998808,"re","re",1,3,"v4_v3_v2",3
"1242",55761,4263.8900000602,"re","re",1,5,"v2_2_^3_^4_v2",1
"1243",55761,684.00500016287,"re","re",1,5,"v2_2_^3_^4_v2",2
"1244",55761,874.689999967813,"mi","mi",1,5,"v2_2_^3_^4_v2",3
"1245",55761,2359.1899999883,"fa","fa",1,5,"v2_2_^3_^4_v2",4
"1246",55761,1305.81500008702,"re","re",1,5,"v2_2_^3_^4_v2",5
"1247",55761,1610.38500000723,"sol","sol",1,5,"v5_v4_v3_v2_v1",1
"1248",55761,686.715000076219,"fa","fa",1,5,"v5_v4_v3_v2_v1",2
"1249",55761,589.915000135079,"mi","mi",1,5,"v5_v4_v3_v2_v1",3
"1250",55761,869.365000165999,"re","re",1,5,"v5_v4_v3_v2_v1",4
"1251",55761,663.120000157505,"do","do",1,5,"v5_v4_v3_v2_v1",5
"1252",55761,1554.40499982797,"sol","sol",1,5,"^5_^6_v5_v4_v3",1
"1253",55761,649.130000034347,"la","la",1,5,"^5_^6_v5_v4_v3",2
"1254",55761,709.92000005208,"sol","sol",1,5,"^5_^6_v5_v4_v3",3
"1255",55761,797.855000011623,"fa","fa",1,5,"^5_^6_v5_v4_v3",4
"1256",55761,555.374999996275,"mi","mi",1,5,"^5_^6_v5_v4_v3",5
"1257",55761,15417.385000037,"le","fi",0,5,"v5-_v3_3_^4+_v3",1
"1258",55761,662.170000141487,"fi","mi",0,5,"v5-_v3_3_^4+_v3",2
"1259",55761,271.925000008196,"fi","mi",0,5,"v5-_v3_3_^4+_v3",3
"1260",55761,633.810000028461,"le","fi",0,5,"v5-_v3_3_^4+_v3",4
"1261",55761,669.05999998562,"fi","mi",0,5,"v5-_v3_3_^4+_v3",5
"1262",55761,2667.44500002824,"sol","sol",1,5,"v5_^6+_^7_^1_5",1
"1263",55761,631.049999967217,"la","te",0,5,"v5_^6+_^7_^1_5",2
"1264",55761,581.795000005513,"ti","ti",1,5,"v5_^6+_^7_^1_5",3
"1265",55761,605.514999944717,"do","do",1,5,"v5_^6+_^7_^1_5",4
"1266",55761,746.76000000909,"sol","sol",1,5,"v5_^6+_^7_^1_5",5
"1267",55761,2351.35499993339,"la","la",1,5,"^6_v4_v3_^4_^5",1
"1268",55761,1124.7049998492,"fa","fa",1,5,"^6_v4_v3_^4_^5",2
"1269",55761,1134.24000004306,"mi","mi",1,5,"^6_v4_v3_^4_^5",3
"1270",55761,2000.01000007614,"fa","fa",1,5,"^6_v4_v3_^4_^5",4
"1271",55761,1395.620000083,"sol","sol",1,5,"^6_v4_v3_^4_^5",5
"1272",55761,1317.60000018403,"la","la",1,5,"^6_v5_v4_v3_v2",1
"1273",55761,774.394999956712,"sol","sol",1,5,"^6_v5_v4_v3_v2",2
"1274",55761,664.920000126585,"fa","fa",1,5,"^6_v5_v4_v3_v2",3
"1275",55761,662.879999959841,"mi","mi",1,5,"^6_v5_v4_v3_v2",4
"1276",55761,1006.3000000082,"re","re",1,5,"^6_v5_v4_v3_v2",5
"1277",55761,1023.49500008859,"sol","sol",1,5,"v5_v4_v3_v2_v1 ",1
"1278",55761,660.739999962971,"fa","fa",1,5,"v5_v4_v3_v2_v1 ",2
"1279",55761,606.424999888986,"mi","mi",1,5,"v5_v4_v3_v2_v1 ",3
"1280",55761,758.099999977276,"re","re",1,5,"v5_v4_v3_v2_v1 ",4
"1281",55761,642.764999996871,"do","1 ",0,5,"v5_v4_v3_v2_v1 ",5
"1282",55761,8392.51500018872,"le","fa",0,7,"^4_v6-_v5-_^6-_^4_v2-_2-",1
"1283",55761,2014.88000014797,"me","le",0,7,"^4_v6-_v5-_^6-_^4_v2-_2-",2
"1284",55761,526.009999914095,"re","fi",0,7,"^4_v6-_v5-_^6-_^4_v2-_2-",3
"1285",55761,503.675000043586,"me","le",0,7,"^4_v6-_v5-_^6-_^4_v2-_2-",4
"1286",55761,820.210000034422,"le","fa",0,7,"^4_v6-_v5-_^6-_^4_v2-_2-",5
"1287",55761,716.784999938682,"sol","ra",0,7,"^4_v6-_v5-_^6-_^4_v2-_2-",6
"1288",55761,331.209999974817,"sol","ra",0,7,"^4_v6-_v5-_^6-_^4_v2-_2-",7
"1289",55761,1249.80000010692,"do","do",1,7,"^1_v7_v6_v5_v4_v3_v2",1
"1290",55761,578.794999979436,"ti","ti",1,7,"^1_v7_v6_v5_v4_v3_v2",2
"1291",55761,696.445000125095,"la","la",1,7,"^1_v7_v6_v5_v4_v3_v2",3
"1292",55761,717.169999843463,"sol","sol",1,7,"^1_v7_v6_v5_v4_v3_v2",4
"1293",55761,774.459999985993,"fa","fa",1,7,"^1_v7_v6_v5_v4_v3_v2",5
"1294",55761,569.499999983236,"mi","mi",1,7,"^1_v7_v6_v5_v4_v3_v2",6
"1295",55761,845.355000114068,"re","re",1,7,"^1_v7_v6_v5_v4_v3_v2",7
"1296",55761,1174.94000005536,"sol","sol",1,7,"^5_^6_v5_v4_v3_v2_v1",1
"1297",55761,650.870000012219,"la","la",1,7,"^5_^6_v5_v4_v3_v2_v1",2
"1298",55761,949.900000123307,"sol","sol",1,7,"^5_^6_v5_v4_v3_v2_v1",3
"1299",55761,728.06500014849,"fa","fa",1,7,"^5_^6_v5_v4_v3_v2_v1",4
"1300",55761,568.955000024289,"mi","mi",1,7,"^5_^6_v5_v4_v3_v2_v1",5
"1301",55761,728.025000076741,"re","re",1,7,"^5_^6_v5_v4_v3_v2_v1",6
"1302",55761,757.039999822155,"do","do",1,7,"^5_^6_v5_v4_v3_v2_v1",7
"1303",55761,2950.33500017598,"do","do",1,7,"1_^3_v1_^5_v3_v2_^3",1
"1304",55761,3377.33500008471,"mi","mi",1,7,"1_^3_v1_^5_v3_v2_^3",2
"1305",55761,3285.36999993958,"do","do",1,7,"1_^3_v1_^5_v3_v2_^3",3
"1306",55761,1927.35000001267,"sol","sol",1,7,"1_^3_v1_^5_v3_v2_^3",4
"1307",55761,926.699999952689,"fa","mi",0,7,"1_^3_v1_^5_v3_v2_^3",5
"1308",55761,980.389999924228,"mi","re",0,7,"1_^3_v1_^5_v3_v2_^3",6
"1309",55761,5817.55000003614,"mi","mi",1,7,"1_^3_v1_^5_v3_v2_^3",7
"1310",55761,903.339999960735,"fa","fa",1,7,"^4_^5_^6_v5_v4_v3_v2",1
"1311",55761,744.545000139624,"sol","sol",1,7,"^4_^5_^6_v5_v4_v3_v2",2
"1312",55761,702.675000065938,"la","la",1,7,"^4_^5_^6_v5_v4_v3_v2",3
"1313",55761,668.425000039861,"sol","sol",1,7,"^4_^5_^6_v5_v4_v3_v2",4
"1314",55761,664.474999997765,"fa","fa",1,7,"^4_^5_^6_v5_v4_v3_v2",5
"1315",55761,1220.36000015214,"mi","mi",1,7,"^4_^5_^6_v5_v4_v3_v2",6
"1316",55761,729.044999927282,"re","re",1,7,"^4_^5_^6_v5_v4_v3_v2",7
"1317",55761,7349.6799999848,"do","do",1,7,"v1_^2_v1_v7_^1_^3_v2",1
"1318",55761,869.690000079572,"re","re",1,7,"v1_^2_v1_v7_^1_^3_v2",2
"1319",55761,785.665000090376,"do","do",1,7,"v1_^2_v1_v7_^1_^3_v2",3
"1320",55761,1278.05999992415,"ti","ti",1,7,"v1_^2_v1_v7_^1_^3_v2",4
"1321",55761,1820.00999990851,"do","do",1,7,"v1_^2_v1_v7_^1_^3_v2",5
"1322",55761,1550.92499987222,"mi","mi",1,7,"v1_^2_v1_v7_^1_^3_v2",6
"1323",55761,1045.274999924,"re","re",1,7,"v1_^2_v1_v7_^1_^3_v2",7
"1324",55761,1085.73499997146,"do","la",0,7,"^6_v5+_v4_^5+_v3_v1_v7-",1
"1325",55761,5858.00000000745,"te","le",0,7,"^6_v5+_v4_^5+_v3_v1_v7-",2
"1326",55761,688.205000013113,"le","fa",0,7,"^6_v5+_v4_^5+_v3_v1_v7-",3
"1327",55761,604.065000079572,"te","le",0,7,"^6_v5+_v4_^5+_v3_v1_v7-",4
"1328",55761,646.139999851584,"le","mi",0,7,"^6_v5+_v4_^5+_v3_v1_v7-",5
"1329",55761,4765.76999993995,"fi","do",0,7,"^6_v5+_v4_^5+_v3_v1_v7-",6
"1330",55761,818.210000172257,"mi","te",0,7,"^6_v5+_v4_^5+_v3_v1_v7-",7
"1331",55761,3675.41999998502,"mi","mi",1,9,"^3_^4_^5 _^6_v5_v4_v3_v2_v1",1
"1332",55761,621.935000177473,"fa","fa",1,9,"^3_^4_^5 _^6_v5_v4_v3_v2_v1",2
"1333",55761,709.47500015609,"sol","5 ",0,9,"^3_^4_^5 _^6_v5_v4_v3_v2_v1",3
"1334",55761,666.855000192299,"la","la",1,9,"^3_^4_^5 _^6_v5_v4_v3_v2_v1",4
"1335",55761,646.420000120997,"sol","sol",1,9,"^3_^4_^5 _^6_v5_v4_v3_v2_v1",5
"1336",55761,1029.62499996647,"fa","fa",1,9,"^3_^4_^5 _^6_v5_v4_v3_v2_v1",6
"1337",55761,893.655000021681,"mi","mi",1,9,"^3_^4_^5 _^6_v5_v4_v3_v2_v1",7
"1338",55761,2801.90999992192,"re","re",1,9,"^3_^4_^5 _^6_v5_v4_v3_v2_v1",8
"1339",55761,849.194999784231,"do","do",1,9,"^3_^4_^5 _^6_v5_v4_v3_v2_v1",9
"1340",55761,1392.91499997489,"re","re",1,9,"^2_^3_^4_^5_^6_v5_v4_v3_v2",1
"1341",55761,2587.30000001378,"fa","mi",0,9,"^2_^3_^4_^5_^6_v5_v4_v3_v2",2
"1342",55761,800.969999982044,"sol","fa",0,9,"^2_^3_^4_^5_^6_v5_v4_v3_v2",3
"1343",55761,751.784999854863,"la","sol",0,9,"^2_^3_^4_^5_^6_v5_v4_v3_v2",4
"1344",55761,1123.69000003673,"sol","la",0,9,"^2_^3_^4_^5_^6_v5_v4_v3_v2",5
"1345",55761,805.320000043139,"fa","sol",0,9,"^2_^3_^4_^5_^6_v5_v4_v3_v2",6
"1346",55761,1510.71500009857,"mi","fa",0,9,"^2_^3_^4_^5_^6_v5_v4_v3_v2",7
"1347",55761,750.075000105426,"re","mi",0,9,"^2_^3_^4_^5_^6_v5_v4_v3_v2",8
"1348",55761,3202.25500012748,"re","re",1,9,"^2_^3_^4_^5_^6_v5_v4_v3_v2",9
"1349",55761,2306.22499994934,"sol","sol",1,9,"^5_^6_v5_v4_v3_v2_v1_^2_^3",1
"1350",55761,1038.93000003882,"la","la",1,9,"^5_^6_v5_v4_v3_v2_v1_^2_^3",2
"1351",55761,895.245000021532,"sol","sol",1,9,"^5_^6_v5_v4_v3_v2_v1_^2_^3",3
"1352",55761,783.170000184327,"fa","fa",1,9,"^5_^6_v5_v4_v3_v2_v1_^2_^3",4
"1353",55761,606.64499993436,"mi","mi",1,9,"^5_^6_v5_v4_v3_v2_v1_^2_^3",5
"1354",55761,774.350000079721,"re","re",1,9,"^5_^6_v5_v4_v3_v2_v1_^2_^3",6
"1355",55761,791.36999999173,"do","do",1,9,"^5_^6_v5_v4_v3_v2_v1_^2_^3",7
"1356",55761,759.390000021085,"re","re",1,9,"^5_^6_v5_v4_v3_v2_v1_^2_^3",8
"1357",55761,812.864999985322,"mi","mi",1,9,"^5_^6_v5_v4_v3_v2_v1_^2_^3",9
"1358",55761,1510.33999980427,"re","re",1,9,"^2_^4_v3_v2_v1_v3_v2+_^3_^5+",1
"1359",55761,2188.56499996036,"fa","fa",1,9,"^2_^4_v3_v2_v1_v3_v2+_^3_^5+",2
"1360",55761,630.249999929219,"mi","mi",1,9,"^2_^4_v3_v2_v1_v3_v2+_^3_^5+",3
"1361",55761,820.349999936298,"re","re",1,9,"^2_^4_v3_v2_v1_v3_v2+_^3_^5+",4
"1362",55761,1536.48500004783,"do","do",1,9,"^2_^4_v3_v2_v1_v3_v2+_^3_^5+",5
"1363",55761,6584.80999991298,"fi","mi",0,9,"^2_^4_v3_v2_v1_v3_v2+_^3_^5+",6
"1364",55761,3251.71999982558,"le","me",0,9,"^2_^4_v3_v2_v1_v3_v2+_^3_^5+",7
"1365",55761,1231.89499997534,"ra","mi",0,9,"^2_^4_v3_v2_v1_v3_v2+_^3_^5+",8
"1366",55761,1194.75999986753,"te","le",0,9,"^2_^4_v3_v2_v1_v3_v2+_^3_^5+",9
"1367",55761,1860.82999990322,"ti","ti",1,9,"v7_v6_v5_^6_v5_v4_^5_^6_v5",1
"1368",55761,3981.35000001639,"la","la",1,9,"v7_v6_v5_^6_v5_v4_^5_^6_v5",2
"1369",55761,1012.31999997981,"sol","sol",1,9,"v7_v6_v5_^6_v5_v4_^5_^6_v5",3
"1370",55761,829.81999986805,"fi","la",0,9,"v7_v6_v5_^6_v5_v4_^5_^6_v5",4
"1371",55761,587.195000145584,"sol","sol",1,9,"v7_v6_v5_^6_v5_v4_^5_^6_v5",5
"1372",55761,997.585000004619,"la","fa",0,9,"v7_v6_v5_^6_v5_v4_^5_^6_v5",6
"1373",55761,884.155000094324,"ti","sol",0,9,"v7_v6_v5_^6_v5_v4_^5_^6_v5",7
"1374",55761,1921.91000003368,"la","la",1,9,"v7_v6_v5_^6_v5_v4_^5_^6_v5",8
"1375",55761,3805.21999998018,"sol","sol",1,9,"v7_v6_v5_^6_v5_v4_^5_^6_v5",9
"1376",55761,3259.55999991857,"sol","sol",1,9,"v5_v4_v6+_^7_^3+_v3_v2_v5_^4",1
"1377",55761,965.444999979809,"fa","fa",1,9,"v5_v4_v6+_^7_^3+_v3_v2_v5_^4",2
"1378",55761,1664.01499998756,"la","te",0,9,"v5_v4_v6+_^7_^3+_v3_v2_v5_^4",3
"1379",55761,655.435000080615,"ti","ti",1,9,"v5_v4_v6+_^7_^3+_v3_v2_v5_^4",4
"1380",55761,3103.71000017039,"me","3+",0,9,"v5_v4_v6+_^7_^3+_v3_v2_v5_^4",5
"1381",55761,746.095000067726,"re","mi",0,9,"v5_v4_v6+_^7_^3+_v3_v2_v5_^4",6
"1382",55761,6347.33500005677,"fi","re",0,9,"v5_v4_v6+_^7_^3+_v3_v2_v5_^4",7
"1383",55761,506.750000175089,"fa","sol",0,9,"v5_v4_v6+_^7_^3+_v3_v2_v5_^4",8
"1384",55761,549.265000037849,"mi","fa",0,9,"v5_v4_v6+_^7_^3+_v3_v2_v5_^4",9
"1385",55761,5470.5149999354,"mi","mi",1,9,"^3_^4_v2_v7_^1_^2_^3_3_^4",1
"1386",55761,606.759999878705,"fa","fa",1,9,"^3_^4_v2_v7_^1_^2_^3_3_^4",2
"1387",55761,613.874999806285,"mi","re",0,9,"^3_^4_v2_v7_^1_^2_^3_3_^4",3
"1388",55761,4435.83499989472,"do","ti",0,9,"^3_^4_v2_v7_^1_^2_^3_3_^4",4
"1389",55761,704.499999992549,"re","do",0,9,"^3_^4_v2_v7_^1_^2_^3_3_^4",5
"1390",55761,756.730000022799,"mi","re",0,9,"^3_^4_v2_v7_^1_^2_^3_3_^4",6
"1391",55761,2558.18499997258,"do","mi",0,9,"^3_^4_v2_v7_^1_^2_^3_3_^4",7
"1392",55761,587.234999984503,"re","mi",0,9,"^3_^4_v2_v7_^1_^2_^3_3_^4",8
"1393",55761,655.289999907836,"mi","fa",0,9,"^3_^4_v2_v7_^1_^2_^3_3_^4",9
"1394",69510,5411.04499999713,"do","mi",0,2,"3_^6",1
"1395",69510,1967.37500000012,"fa","la",0,2,"3_^6",2
"1396",69510,2047.599999998,"re","sol",0,2,"^5_^1+",1
"1397",69510,3012.70500000101,"le","ra",0,2,"^5_^1+",2
"1398",69510,1984.01000000013,"re","mi",0,2,"^3_v4+",1
"1399",69510,2444.02999999863,"me","fi",0,2,"^3_v4+",2
"1400",69510,832.884999999893,"do","do",1,2,"^1_^2+",1
"1401",69510,680.185000001104,"me","me",1,2,"^1_^2+",2
"1402",69510,3144.20500000054,"do","fa",0,2,"v4_v3",1
"1403",69510,2832.47499999928,"ti","mi",0,2,"v4_v3",2
"1404",69510,1421.64500000223,"do","re",0,2,"^2_v7-",1
"1405",69510,3549.1399999992,"la","te",0,2,"^2_v7-",2
"1406",69510,2680.8549999987,"re","mi",0,2,"v3_v2",1
"1407",69510,776.314999999246,"ti","re",0,2,"v3_v2",2
"1408",69510,1010.42500000051,"re","re",1,2,"v2_v1",1
"1409",69510,1192.5499999997,"do","do",1,2,"v2_v1",2
"1410",69510,5902.97499999718,"me","ti",0,2,"v7_v3",1
"1411",69510,740.685000000638,"te","mi",0,2,"v7_v3",2
"1412",69510,5881.99000000174,"fa","sol",0,2,"v5_v1+",1
"1413",69510,1072.53499999933,"ti","ra",0,2,"v5_v1+",2
"1414",69510,5370.35000000114,"mi","do",0,3,"v1_v7-_^7",1
"1415",69510,605.685000002268,"ra","te",0,3,"v1_v7-_^7",2
"1416",69510,800.715000001132,"re","ti",0,3,"v1_v7-_^7",3
"1417",69510,3394.19000000274,"me","fa",0,3,"v4_v3_v2",1
"1418",69510,540.1749999983,"re","mi",0,3,"v4_v3_v2",2
"1419",69510,692.425000001094,"do","re",0,3,"v4_v3_v2",3
"1420",69510,1944.98999999999,"me","re",0,3,"v2_v5_^3",1
"1421",69510,606.935000003432,"fa","sol",0,3,"v2_v5_^3",2
"1422",69510,1444.43000000319,"re","mi",0,3,"v2_v5_^3",3
"1423",69510,5147.19500000146,"fa","sol",0,3,"v5_v4_v3",1
"1424",69510,791.439999997267,"mi","fa",0,3,"v5_v4_v3",2
"1425",69510,780.109999999637,"re","mi",0,3,"v5_v4_v3",3
"1426",69510,1940.1199999993,"mi","mi",1,3,"v3_v2_v1",1
"1427",69510,655.039999997825,"re","re",1,3,"v3_v2_v1",2
"1428",69510,534.179999998771,"do","do",1,3,"v3_v2_v1",3
"1429",69510,4702.49999999942,"ti","do",0,3,"^1_v6_v5+",1
"1430",69510,1573.56000000075,"la","la",1,3,"^1_v6_v5+",2
"1431",69510,440.689999999362,"le","le",1,3,"^1_v6_v5+",3
"1432",69510,4539.59499999846,"la","la",1,3,"6_^1_v5",1
"1433",69510,1353.74000000232,"ti","do",0,3,"6_^1_v5",2
"1434",69510,1190.25000000326,"sol","sol",1,3,"6_^1_v5",3
"1435",69510,1225.0250000034,"do","do",1,3,"1_v1+_^2",1
"1436",69510,726.325000003213,"ra","ra",1,3,"1_v1+_^2",2
"1437",69510,1040.57499999902,"me","re",0,3,"1_v1+_^2",3
"1438",69510,4933.75499999826,"me","do",0,3,"v1_v7-_7-",1
"1439",69510,439.845000000787,"re","te",0,3,"v1_v7-_7-",2
"1440",69510,358.295000001788,"re","te",0,3,"v1_v7-_7-",3
"1441",69510,9844.9099999998,"re","fi",0,5,"v5-_v3_3_^4+_v3",1
"1442",69510,2331.93000000028,"re","mi",0,5,"v5-_v3_3_^4+_v3",2
"1443",69510,1520.30500000191,"re","mi",0,5,"v5-_v3_3_^4+_v3",3
"1444",69510,334.520000000368,"re","fi",0,5,"v5-_v3_3_^4+_v3",4
"1445",69510,702.300000000861,"re","mi",0,5,"v5-_v3_3_^4+_v3",5
"1446",69510,3256.3599999994,"ra","re",0,5,"v2_2_^3_^4_v2",1
"1447",69510,498.120000000228,"ra","re",0,5,"v2_2_^3_^4_v2",2
"1448",69510,999.469999998808,"mi","mi",1,5,"v2_2_^3_^4_v2",3
"1449",69510,528.484999998822,"fa","fa",1,5,"v2_2_^3_^4_v2",4
"1450",69510,1146.38500000001,"ra","re",0,5,"v2_2_^3_^4_v2",5
"1451",69510,7935.75000000058,"mi","sol",0,5,"^5_^6_v5_v4_v3",1
"1452",69510,568.070000001113,"fa","la",0,5,"^5_^6_v5_v4_v3",2
"1453",69510,746.484999999753,"mi","sol",0,5,"^5_^6_v5_v4_v3",3
"1454",69510,1128.39500000339,"re","fa",0,5,"^5_^6_v5_v4_v3",4
"1455",69510,2700.52999999828,"do","mi",0,5,"^5_^6_v5_v4_v3",5
"1456",69510,2964.92000000214,"do","sol",0,5,"v5_^6+_^7_^1_5",1
"1457",69510,1162.44000000006,"mi","te",0,5,"v5_^6+_^7_^1_5",2
"1458",69510,840.364999999991,"fa","ti",0,5,"v5_^6+_^7_^1_5",3
"1459",69510,712.559999999939,"sol","do",0,5,"v5_^6+_^7_^1_5",4
"1460",69510,1370.24999999988,"mi","sol",0,5,"v5_^6+_^7_^1_5",5
"1461",69510,2816.96999999997,"do","sol",0,5,"v5_v4_v3_v2_v1 ",1
"1462",69510,1480.36000000127,"ti","fa",0,5,"v5_v4_v3_v2_v1 ",2
"1463",69510,4922.054999999,"la","mi",0,5,"v5_v4_v3_v2_v1 ",3
"1464",69510,2967.97999999754,"fa","re",0,5,"v5_v4_v3_v2_v1 ",4
"1465",69510,2052.27999999991,"do","1 ",0,5,"v5_v4_v3_v2_v1 ",5
"1466",69510,3849.01499999978,"fa","la",0,5,"^6_v5_v4_v3_v2",1
"1467",69510,5346.58500000299,"mi","sol",0,5,"^6_v5_v4_v3_v2",2
"1468",69510,373.980000000331,"me","fa",0,5,"^6_v5_v4_v3_v2",3
"1469",69510,600.419999998761,"re","mi",0,5,"^6_v5_v4_v3_v2",4
"1470",69510,856.220000001485,"do","re",0,5,"^6_v5_v4_v3_v2",5
"1471",69510,4223.89999999723,"sol","sol",1,5,"v5_v4_v3_v2_v1",1
"1472",69510,709.939999997034,"fa","fa",1,5,"v5_v4_v3_v2_v1",2
"1473",69510,532.015000000596,"mi","mi",1,5,"v5_v4_v3_v2_v1",3
"1474",69510,566.155000000377,"re","re",1,5,"v5_v4_v3_v2_v1",4
"1475",69510,567.044999999809,"do","do",1,5,"v5_v4_v3_v2_v1",5
"1476",69510,982.09499999939,"sol","la",0,5,"^6_v4_v3_^4_^5",1
"1477",69510,1696.55000000051,"mi","fa",0,5,"^6_v4_v3_^4_^5",2
"1478",69510,720.304999998887,"re","mi",0,5,"^6_v4_v3_^4_^5",3
"1479",69510,576.629999999539,"mi","fa",0,5,"^6_v4_v3_^4_^5",4
"1480",69510,752.499999998719,"sol","sol",1,5,"^6_v4_v3_^4_^5",5
"1481",69510,4708.200000001,"ti","do",0,7,"^1_v7_v6_v5_v4_v3_v2",1
"1482",69510,735.624999997439,"la","ti",0,7,"^1_v7_v6_v5_v4_v3_v2",2
"1483",69510,946.694999998785,"sol","la",0,7,"^1_v7_v6_v5_v4_v3_v2",3
"1484",69510,672.089999996359,"fa","sol",0,7,"^1_v7_v6_v5_v4_v3_v2",4
"1485",69510,1470.39999999828,"mi","fa",0,7,"^1_v7_v6_v5_v4_v3_v2",5
"1486",69510,608.199999998789,"re","mi",0,7,"^1_v7_v6_v5_v4_v3_v2",6
"1487",69510,1908.46500000043,"ra","re",0,7,"^1_v7_v6_v5_v4_v3_v2",7
"1488",69510,1311.08999999915,"re","fa",0,7,"^4_^5_^6_v5_v4_v3_v2",1
"1489",69510,886.099999999744,"mi","sol",0,7,"^4_^5_^6_v5_v4_v3_v2",2
"1490",69510,1454.60000000091,"sol","la",0,7,"^4_^5_^6_v5_v4_v3_v2",3
"1491",69510,778.415000000736,"fa","sol",0,7,"^4_^5_^6_v5_v4_v3_v2",4
"1492",69510,1140.41999999969,"me","fa",0,7,"^4_^5_^6_v5_v4_v3_v2",5
"1493",69510,584.230000000331,"re","mi",0,7,"^4_^5_^6_v5_v4_v3_v2",6
"1494",69510,1148.26500000339,"do","re",0,7,"^4_^5_^6_v5_v4_v3_v2",7
"1495",69510,1512.3899999999,"do","fa",0,7,"^4_v6-_v5-_^6-_^4_v2-_2-",1
"1496",69510,2860.82499999984,"le","le",1,7,"^4_v6-_v5-_^6-_^4_v2-_2-",2
"1497",69510,692.00500000082,"sol","fi",0,7,"^4_v6-_v5-_^6-_^4_v2-_2-",3
"1498",69510,856.230000001146,"le","le",1,7,"^4_v6-_v5-_^6-_^4_v2-_2-",4
"1499",69510,3122.24000000057,"mi","fa",0,7,"^4_v6-_v5-_^6-_^4_v2-_2-",5
"1500",69510,609.850000000792,"re","ra",0,7,"^4_v6-_v5-_^6-_^4_v2-_2-",6
"1501",69510,190.340000001015,"re","ra",0,7,"^4_v6-_v5-_^6-_^4_v2-_2-",7
"1502",69510,1837.3900000006,"do","la",0,7,"^6_v5+_v4_^5+_v3_v1_v7-",1
"1503",69510,672.344999999041,"ti","le",0,7,"^6_v5+_v4_^5+_v3_v1_v7-",2
"1504",69510,593.365000000689,"te","fa",0,7,"^6_v5+_v4_^5+_v3_v1_v7-",3
"1505",69510,519.755000001169,"ti","le",0,7,"^6_v5+_v4_^5+_v3_v1_v7-",4
"1506",69510,648.379999998724,"la","mi",0,7,"^6_v5+_v4_^5+_v3_v1_v7-",5
"1507",69510,632.299999997602,"sol","do",0,7,"^6_v5+_v4_^5+_v3_v1_v7-",6
"1508",69510,291.965000000317,"sol","te",0,7,"^6_v5+_v4_^5+_v3_v1_v7-",7
"1509",69510,673.330000001471,"do","sol",0,7,"^5_^6_v5_v4_v3_v2_v1",1
"1510",69510,890.244999998715,"re","la",0,7,"^5_^6_v5_v4_v3_v2_v1",2
"1511",69510,2240.82000000263,"do","sol",0,7,"^5_^6_v5_v4_v3_v2_v1",3
"1512",69510,1153.51499999803,"ti","fa",0,7,"^5_^6_v5_v4_v3_v2_v1",4
"1513",69510,758.344999998342,"la","mi",0,7,"^5_^6_v5_v4_v3_v2_v1",5
"1514",69510,1704.1500000013,"sol","re",0,7,"^5_^6_v5_v4_v3_v2_v1",6
"1515",69510,786.144999998156,"fa","do",0,7,"^5_^6_v5_v4_v3_v2_v1",7
"1516",69510,991.855000000214,"do","do",1,7,"1_^3_v1_^5_v3_v2_^3",1
"1517",69510,1222.6950000003,"mi","mi",1,7,"1_^3_v1_^5_v3_v2_^3",2
