"","subject","rt","button_pressed_vector_c","trial_answer","score","trial_length","stimulus","serial_order"
"1",14193,7184.77500003204,"me","re",0,2,"^2_v7-",1
"2",14193,3140.4849999845,"do","te",0,2,"^2_v7-",2
"3",14193,1020.97999997064,"sol","mi",0,2,"v3_v2",1
"4",14193,829.259999971837,"fa","re",0,2,"v3_v2",2
"5",14193,999.730000041425,"re","re",1,2,"v2_v1",1
"6",14193,673.110000032932,"do","do",1,2,"v2_v1",2
"7",14193,10779.5000000037,"ti","fa",0,2,"v4_v3",1
"8",14193,672.925000019372,"la","mi",0,2,"v4_v3",2
"9",14193,9618.32000000775,"fi","mi",0,2,"^3_v4+",1
"10",14193,713.244999989867,"sol","fi",0,2,"^3_v4+",2
"11",14193,4775.41499998048,"me","mi",0,2,"3_^6",1
"12",14193,754.249999996275,"sol","la",0,2,"3_^6",2
"13",14193,2727.94999997318,"do","do",1,2,"^1_^2+",1
"14",14193,3436.6600000076,"me","me",1,2,"^1_^2+",2
"15",14193,5712.99000002816,"fi","sol",0,2,"v5_v1+",1
"16",14193,4931.57499999553,"ra","ra",1,2,"v5_v1+",2
"17",14193,1158.88000000268,"ti","ti",1,2,"v7_v3",1
"18",14193,4006.71500002593,"me","mi",0,2,"v7_v3",2
"19",14193,5561.50000001118,"sol","sol",1,2,"^5_^1+",1
"20",14193,4155.84000001848,"ra","ra",1,2,"^5_^1+",2
"21",14193,2651.19999996573,"fa","fa",1,3,"v4_v3_v2",1
"22",14193,427.629999991506,"mi","mi",1,3,"v4_v3_v2",2
"23",14193,585.505000025034,"re","re",1,3,"v4_v3_v2",3
"24",14193,11423.0599999987,"la","la",1,3,"6_^1_v5",1
"25",14193,914.84500002116,"fa","do",0,3,"6_^1_v5",2
"26",14193,1313.47499997541,"mi","sol",0,3,"6_^1_v5",3
"27",14193,1459.45999998227,"re","re",1,3,"v2_v5_^3",1
"28",14193,3598.31499994919,"fa","sol",0,3,"v2_v5_^3",2
"29",14193,760.295000042766,"mi","mi",1,3,"v2_v5_^3",3
"30",14193,10109.6200000048,"sol","sol",1,3,"v5_v4_v3",1
"31",14193,476.350000012666,"fa","fa",1,3,"v5_v4_v3",2
"32",14193,326.960000034422,"mi","mi",1,3,"v5_v4_v3",3
"33",14193,1173.63999999315,"do","do",1,3,"1_v1+_^2",1
"34",14193,351.244999967515,"ra","ra",1,3,"1_v1+_^2",2
"35",14193,382.720000050962,"re","re",1,3,"1_v1+_^2",3
"36",14193,16409.1650000177,"te","do",0,3,"v1_v7-_^7",1
"37",14193,476.495000012219,"la","te",0,3,"v1_v7-_^7",2
"38",14193,515.494999997318,"ti","ti",1,3,"v1_v7-_^7",3
"39",14193,1469.26499996334,"mi","mi",1,3,"v3_v2_v1",1
"40",14193,654.745000008494,"re","re",1,3,"v3_v2_v1",2
"41",14193,579.42500000447,"do","do",1,3,"v3_v2_v1",3
"42",14193,22765.1800000481,"do","do",1,3,"^1_v6_v5+",1
"43",14193,2150.64000000805,"la","la",1,3,"^1_v6_v5+",2
"44",14193,3657.57999999821,"fa","le",0,3,"^1_v6_v5+",3
"45",14193,1651.00500004739,"do","do",1,3,"v1_v7-_v7-",1
"46",14193,719.409999959171,"te","te",1,3,"v1_v7-_v7-",2
"47",14193,358.07499999553,"te","te",1,3,"v1_v7-_v7-",3
"48",14193,1124.3549999781,"sol","sol",1,5,"v5_v4_v3_v2_v1",1
"49",14193,892.514999955893,"fa","fa",1,5,"v5_v4_v3_v2_v1",2
"50",14193,907.255000028759,"mi","mi",1,5,"v5_v4_v3_v2_v1",3
"51",14193,703.414999999106,"re","re",1,5,"v5_v4_v3_v2_v1",4
"52",14193,701.890000026673,"do","do",1,5,"v5_v4_v3_v2_v1",5
"53",14193,3793.89000002667,"sol","sol",1,5,"v5_^6+_^7_^1_5",1
"54",14193,633.635000031441,"la","te",0,5,"v5_^6+_^7_^1_5",2
"55",14193,737.109999988228,"ti","ti",1,5,"v5_^6+_^7_^1_5",3
"56",14193,372.22500000149,"do","do",1,5,"v5_^6+_^7_^1_5",4
"57",14193,797.384999983013,"sol","sol",1,5,"v5_^6+_^7_^1_5",5
"58",14193,1862.01999999955,"fi","fi",1,5,"v5-_v3_3_^4+_v3",1
"59",14193,2246.54500000179,"fa","mi",0,5,"v5-_v3_3_^4+_v3",2
"60",14193,445.160000003874,"fa","mi",0,5,"v5-_v3_3_^4+_v3",3
"61",14193,498.825000017881,"fi","fi",1,5,"v5-_v3_3_^4+_v3",4
"62",14193,562.78500001505,"fa","mi",0,5,"v5-_v3_3_^4+_v3",5
"63",14193,47014.0450000167,"sol","la",0,5,"^6_v4_v3_^4_^5",1
"64",14193,508.834999985993,"fa","fa",1,5,"^6_v4_v3_^4_^5",2
"65",14193,412.63000003621,"mi","mi",1,5,"^6_v4_v3_^4_^5",3
"66",14193,367.384999990463,"fa","fa",1,5,"^6_v4_v3_^4_^5",4
"67",14193,477.35000000149,"sol","sol",1,5,"^6_v4_v3_^4_^5",5
"68",14193,5171.33500001952,"la","la",1,5,"^6_v5_v4_v3_v2",1
"69",14193,516.430000018328,"sol","sol",1,5,"^6_v5_v4_v3_v2",2
"70",14193,898.690000001341,"fa","fa",1,5,"^6_v5_v4_v3_v2",3
"71",14193,1079.28000000492,"mi","mi",1,5,"^6_v5_v4_v3_v2",4
"72",14193,530.804999988526,"re","re",1,5,"^6_v5_v4_v3_v2",5
"73",14193,1262.74999999255,"sol","sol",1,5,"^5_^6_v5_v4_v3",1
"74",14193,500.195000026375,"la","la",1,5,"^5_^6_v5_v4_v3",2
"75",14193,461.015000008047,"sol","sol",1,5,"^5_^6_v5_v4_v3",3
"76",14193,703.735000044107,"fa","fa",1,5,"^5_^6_v5_v4_v3",4
"77",14193,610.46999995783,"mi","mi",1,5,"^5_^6_v5_v4_v3",5
"78",14193,13585.1700000353,"re","re",1,5,"v2_2_^3_^4_v2",1
"79",14193,610.324999958277,"re","re",1,5,"v2_2_^3_^4_v2",2
"80",14193,633.42500000447,"mi","mi",1,5,"v2_2_^3_^4_v2",3
"81",14193,404.634999983013,"fa","fa",1,5,"v2_2_^3_^4_v2",4
"82",14193,563.189999960363,"re","re",1,5,"v2_2_^3_^4_v2",5
"83",14193,924.54999999702,"sol","sol",1,5,"v5_v4_v3_v2_v1",6
"84",14193,641.160000000149,"fa","fa",1,5,"v5_v4_v3_v2_v1",7
"85",14193,406.81000001356,"mi","mi",1,5,"v5_v4_v3_v2_v1",8
"86",14193,485.654999967664,"re","re",1,5,"v5_v4_v3_v2_v1",9
"87",14193,506.934999953955,"do","do",1,5,"v5_v4_v3_v2_v1",10
"88",14193,12294.75,"le","la",0,7,"^6_v5+_v4_^5+_v3_v1_v7-",1
"89",14193,6230.90999998525,"sol","le",0,7,"^6_v5+_v4_^5+_v3_v1_v7-",2
"90",14193,3435.94499997422,"mi","fa",0,7,"^6_v5+_v4_^5+_v3_v1_v7-",3
"91",14193,867.510000012815,"sol","le",0,7,"^6_v5+_v4_^5+_v3_v1_v7-",4
"92",14193,1518.76999996603,"le","mi",0,7,"^6_v5+_v4_^5+_v3_v1_v7-",5
"93",14193,2002.76999996603,"la","do",0,7,"^6_v5+_v4_^5+_v3_v1_v7-",6
"94",14193,335.094999991357,"le","te",0,7,"^6_v5+_v4_^5+_v3_v1_v7-",7
"95",14193,1300.51499995217,"do","do",1,7,"v1_^2_v1_v7_^1_^3_v2",1
"96",14193,641.124999966472,"re","re",1,7,"v1_^2_v1_v7_^1_^3_v2",2
"97",14193,601.035000000149,"do","do",1,7,"v1_^2_v1_v7_^1_^3_v2",3
"98",14193,774.940000031143,"ti","ti",1,7,"v1_^2_v1_v7_^1_^3_v2",4
"99",14193,781.004999998957,"do","do",1,7,"v1_^2_v1_v7_^1_^3_v2",5
"100",14193,1643.31000001356,"me","mi",0,7,"v1_^2_v1_v7_^1_^3_v2",6
"101",14193,742.619999974966,"re","re",1,7,"v1_^2_v1_v7_^1_^3_v2",7
"102",14193,6315.17999997735,"fa","fa",1,7,"^4_^5_^6_v5_v4_v3_v2",1
"103",14193,779.879999984056,"sol","sol",1,7,"^4_^5_^6_v5_v4_v3_v2",2
"104",14193,1041.36500001326,"la","la",1,7,"^4_^5_^6_v5_v4_v3_v2",3
"105",14193,530.830000005662,"sol","sol",1,7,"^4_^5_^6_v5_v4_v3_v2",4
"106",14193,608.729999978095,"fa","fa",1,7,"^4_^5_^6_v5_v4_v3_v2",5
"107",14193,2043.09500002861,"mi","mi",1,7,"^4_^5_^6_v5_v4_v3_v2",6
"108",14193,1156.91000001878,"fa","re",0,7,"^4_^5_^6_v5_v4_v3_v2",7
"109",14193,962.560000017285,"ti","do",0,7,"^1_v7_v6_v5_v4_v3_v2",1
"110",14193,555.389999993145,"la","ti",0,7,"^1_v7_v6_v5_v4_v3_v2",2
"111",14193,687.009999994189,"sol","la",0,7,"^1_v7_v6_v5_v4_v3_v2",3
"112",14193,624.949999965727,"fa","sol",0,7,"^1_v7_v6_v5_v4_v3_v2",4
"113",14193,697.645000007004,"mi","fa",0,7,"^1_v7_v6_v5_v4_v3_v2",5
"114",14193,678.040000025183,"re","mi",0,7,"^1_v7_v6_v5_v4_v3_v2",6
"115",14193,7955.51000000164,"re","re",1,7,"^1_v7_v6_v5_v4_v3_v2",7
"116",14193,11855.7099999748,"sol","fa",0,7,"^4_v6-_v5-_^6-_^4_v2-_2-",1
"117",14193,1241.63999996334,"mi","le",0,7,"^4_v6-_v5-_^6-_^4_v2-_2-",2
"118",14193,1040.81500001624,"re","fi",0,7,"^4_v6-_v5-_^6-_^4_v2-_2-",3
"119",14193,1047.00499999896,"mi","le",0,7,"^4_v6-_v5-_^6-_^4_v2-_2-",4
"120",14193,3342.28000004217,"sol","fa",0,7,"^4_v6-_v5-_^6-_^4_v2-_2-",5
"121",14193,648.564999982715,"mi","ra",0,7,"^4_v6-_v5-_^6-_^4_v2-_2-",6
"122",14193,203.364999964833,"mi","ra",0,7,"^4_v6-_v5-_^6-_^4_v2-_2-",7
"123",14193,11777.7650000043,"sol","sol",1,7,"^5_^6_v5_v4_v3_v2_v1",1
"124",14193,452.56499998644,"la","la",1,7,"^5_^6_v5_v4_v3_v2_v1",2
"125",14193,436.690000001341,"sol","sol",1,7,"^5_^6_v5_v4_v3_v2_v1",3
"126",14193,602.814999990165,"fa","fa",1,7,"^5_^6_v5_v4_v3_v2_v1",4
"127",14193,406.034999992698,"mi","mi",1,7,"^5_^6_v5_v4_v3_v2_v1",5
"128",14193,796.365000016987,"re","re",1,7,"^5_^6_v5_v4_v3_v2_v1",6
"129",14193,562.925000034273,"do","do",1,7,"^5_^6_v5_v4_v3_v2_v1",7
"130",14193,1513.12999997661,"do","do",1,7,"1_^3_v1_^5_v3_v2_^3",1
"131",14193,3082.66499999538,"mi","mi",1,7,"1_^3_v1_^5_v3_v2_^3",2
"132",14193,931.340000011027,"do","do",1,7,"1_^3_v1_^5_v3_v2_^3",3
"133",14193,2410.6799999699,"sol","sol",1,7,"1_^3_v1_^5_v3_v2_^3",4
"134",14193,2315.854999993,"mi","mi",1,7,"1_^3_v1_^5_v3_v2_^3",5
"135",14193,508.620000038296,"re","re",1,7,"1_^3_v1_^5_v3_v2_^3",6
"136",14193,476.924999967217,"mi","mi",1,7,"1_^3_v1_^5_v3_v2_^3",7
"137",14193,10137.6650000438,"fa","ti",0,9,"v7_v6_v5_^6_v5_v4_^5_^6_v5",1
"138",14193,696,"mi","la",0,9,"v7_v6_v5_^6_v5_v4_^5_^6_v5",2
"139",14193,609.399999961257,"re","sol",0,9,"v7_v6_v5_^6_v5_v4_^5_^6_v5",3
"140",14193,649.2349999547,"mi","la",0,9,"v7_v6_v5_^6_v5_v4_^5_^6_v5",4
"141",14193,673.240000031888,"re","sol",0,9,"v7_v6_v5_^6_v5_v4_^5_^6_v5",5
"142",14193,1157.04999998212,"mi","fa",0,9,"v7_v6_v5_^6_v5_v4_^5_^6_v5",6
"143",14193,562.22000002116,"fa","sol",0,9,"v7_v6_v5_^6_v5_v4_^5_^6_v5",7
"144",14193,804.92500000447,"sol","la",0,9,"v7_v6_v5_^6_v5_v4_^5_^6_v5",8
"145",14193,506.960000030696,"fa","sol",0,9,"v7_v6_v5_^6_v5_v4_^5_^6_v5",9
"146",14193,4107.75999998301,"re","mi",0,9,"^3_^4_v2_v7_^1_^2_^3_3_^4",1
"147",14193,641.144999995828,"mi","fa",0,9,"^3_^4_v2_v7_^1_^2_^3_3_^4",2
"148",14193,6506.3199999854,"re","re",1,9,"^3_^4_v2_v7_^1_^2_^3_3_^4",3
"149",14193,1501.69500003755,"ti","ti",1,9,"^3_^4_v2_v7_^1_^2_^3_3_^4",4
"150",14193,656.125000037253,"do","do",1,9,"^3_^4_v2_v7_^1_^2_^3_3_^4",5
"151",14193,1409.24000000954,"mi","re",0,9,"^3_^4_v2_v7_^1_^2_^3_3_^4",6
"152",14193,609.315000012517,"re","mi",0,9,"^3_^4_v2_v7_^1_^2_^3_3_^4",7
"153",14193,1697.17499998212,"do","mi",0,9,"^3_^4_v2_v7_^1_^2_^3_3_^4",8
"154",14193,610.835000000894,"re","fa",0,9,"^3_^4_v2_v7_^1_^2_^3_3_^4",9
"155",14193,3145.32499998808,"re","re",1,9,"^2_^3_^4_^5_^6_v5_v4_v3_v2",1
"156",14193,656.955000013113,"mi","mi",1,9,"^2_^3_^4_^5_^6_v5_v4_v3_v2",2
"157",14193,741.535000041127,"fa","fa",1,9,"^2_^3_^4_^5_^6_v5_v4_v3_v2",3
"158",14193,530.924999967217,"sol","sol",1,9,"^2_^3_^4_^5_^6_v5_v4_v3_v2",4
"159",14193,993.34500002861,"la","la",1,9,"^2_^3_^4_^5_^6_v5_v4_v3_v2",5
"160",14193,530.875000052154,"sol","sol",1,9,"^2_^3_^4_^5_^6_v5_v4_v3_v2",6
"161",14193,680.975000023842,"fa","fa",1,9,"^2_^3_^4_^5_^6_v5_v4_v3_v2",7
"162",14193,1227.14500001073,"mi","mi",1,9,"^2_^3_^4_^5_^6_v5_v4_v3_v2",8
"163",14193,1893.02499999851,"re","re",1,9,"^2_^3_^4_^5_^6_v5_v4_v3_v2",9
"164",14193,2957.97000005096,"sol","sol",1,9,"^5_^6_v5_v4_v3_v2_v1_^2_^3",1
"165",14193,656.580000013113,"la","la",1,9,"^5_^6_v5_v4_v3_v2_v1_^2_^3",2
"166",14193,547.420000016689,"sol","sol",1,9,"^5_^6_v5_v4_v3_v2_v1_^2_^3",3
"167",14193,648.790000006557,"fa","fa",1,9,"^5_^6_v5_v4_v3_v2_v1_^2_^3",4
"168",14193,608.925000011921,"mi","mi",1,9,"^5_^6_v5_v4_v3_v2_v1_^2_^3",5
"169",14193,640.789999976754,"re","re",1,9,"^5_^6_v5_v4_v3_v2_v1_^2_^3",6
"170",14193,494.040000021458,"do","do",1,9,"^5_^6_v5_v4_v3_v2_v1_^2_^3",7
"171",14193,820.44999999553,"re","re",1,9,"^5_^6_v5_v4_v3_v2_v1_^2_^3",8
"172",14193,625.520000003278,"mi","mi",1,9,"^5_^6_v5_v4_v3_v2_v1_^2_^3",9
"173",14193,8140.01999999583,"mi","re",0,9,"^2_^4_v3_v2_v1_v3_v2+_^3_^5+",1
"174",14193,525.380000002682,"fa","fa",1,9,"^2_^4_v3_v2_v1_v3_v2+_^3_^5+",2
"175",14193,530.005000010133,"mi","mi",1,9,"^2_^4_v3_v2_v1_v3_v2+_^3_^5+",3
"176",14193,608.469999976456,"re","re",1,9,"^2_^4_v3_v2_v1_v3_v2+_^3_^5+",4
"177",14193,1813.91000002623,"do","do",1,9,"^2_^4_v3_v2_v1_v3_v2+_^3_^5+",5
"178",14193,1307.05000000447,"te","mi",0,9,"^2_^4_v3_v2_v1_v3_v2+_^3_^5+",6
"179",14193,985.079999953508,"ti","me",0,9,"^2_^4_v3_v2_v1_v3_v2+_^3_^5+",7
"180",14193,743.035000048578,"la","mi",0,9,"^2_^4_v3_v2_v1_v3_v2+_^3_^5+",8
"181",14193,390.92000003159,"do","le",0,9,"^2_^4_v3_v2_v1_v3_v2+_^3_^5+",9
"182",14193,2800.96500000358,"mi","mi",1,9,"^3_^4_^5_^6_v5_v4_v3_v2_v1",1
"183",14193,633.114999979734,"fa","fa",1,9,"^3_^4_^5_^6_v5_v4_v3_v2_v1",2
"184",14193,689.534999959171,"sol","sol",1,9,"^3_^4_^5_^6_v5_v4_v3_v2_v1",3
"185",14193,1502.24499998242,"la","la",1,9,"^3_^4_^5_^6_v5_v4_v3_v2_v1",4
"186",14193,553.24500001967,"sol","sol",1,9,"^3_^4_^5_^6_v5_v4_v3_v2_v1",5
"187",14193,1047.53499996662,"fa","fa",1,9,"^3_^4_^5_^6_v5_v4_v3_v2_v1",6
"188",14193,476.844999998808,"mi","mi",1,9,"^3_^4_^5_^6_v5_v4_v3_v2_v1",7
"189",14193,719.974999956787,"re","re",1,9,"^3_^4_^5_^6_v5_v4_v3_v2_v1",8
"190",14193,602.119999989867,"do","do",1,9,"^3_^4_^5_^6_v5_v4_v3_v2_v1",9
"191",14193,6322.61000002921,"sol","sol",1,9,"v5_v4_v6+_^7_^3+_v3_v2_v5_^4",1
"192",14193,1274.40500003099,"la","fa",0,9,"v5_v4_v6+_^7_^3+_v3_v2_v5_^4",2
"193",14193,570.880000017583,"sol","te",0,9,"v5_v4_v6+_^7_^3+_v3_v2_v5_^4",3
"194",14193,860.760000012815,"fa","ti",0,9,"v5_v4_v6+_^7_^3+_v3_v2_v5_^4",4
"195",14193,1353.59499999136,"me","mi",0,9,"v5_v4_v6+_^7_^3+_v3_v2_v5_^4",5
"196",14193,1204.65000002831,"re","mi",0,9,"v5_v4_v6+_^7_^3+_v3_v2_v5_^4",6
"197",14193,1831.31999999285,"la","re",0,9,"v5_v4_v6+_^7_^3+_v3_v2_v5_^4",7
"198",14193,2175.34499999881,"ti","sol",0,9,"v5_v4_v6+_^7_^3+_v3_v2_v5_^4",8
"199",14193,4860.68499996513,"mi","fa",0,9,"v5_v4_v6+_^7_^3+_v3_v2_v5_^4",9
"200",22189,8895.46499995049,"re","mi",0,2,"3_^6",1
"201",22189,5564.97000006493,"sol","la",0,2,"3_^6",2
"202",22189,14950.9799999651,"mi","mi",1,2,"v3_v2",1
"203",22189,903.240000014193,"re","re",1,2,"v3_v2",2
"204",22189,3822.56999996025,"do","re",0,2,"^2_v7-",1
"205",22189,17797.6100000087,"sol","te",0,2,"^2_v7-",2
"206",22189,11954.9549999647,"la","sol",0,2,"v5_v1+",1
"207",22189,19848.2749999966,"re","ra",0,2,"v5_v1+",2
"208",22189,11023.0549999978,"re","sol",0,2,"^5_^1+",1
"209",22189,3861.91500001587,"le","ra",0,2,"^5_^1+",2
"210",22189,34501.569999964,"le","mi",0,2,"^3_v4+",1
"211",22189,840.169999981299,"la","fi",0,2,"^3_v4+",2
"212",22189,27795.8050000016,"fa","fa",1,2,"v4_v3",1
"213",22189,5164.21499999706,"mi","mi",1,2,"v4_v3",2
"214",22189,14180.534999934,"fi","ti",0,2,"v7_v3",1
"215",22189,1671.36999999639,"ra","mi",0,2,"v7_v3",2
"216",22189,1553.31499991007,"do","do",1,2,"^1_^2+",1
"217",22189,5882.40000000224,"me","me",1,2,"^1_^2+",2
"218",22189,3452.98499998171,"ra","re",0,2,"v2_v1",1
"219",22189,2218.28999998979,"ti","do",0,2,"v2_v1",2
"220",22189,11433.480000007,"do","do",1,3,"^1_v6_v5+",1
"221",22189,8025.44999995735,"te","la",0,3,"^1_v6_v5+",2
"222",22189,1239.09500008449,"la","le",0,3,"^1_v6_v5+",3
"223",22189,13680.8650000021,"do","do",1,3,"v1_v7-_^7",1
"224",22189,2585.59999999125,"la","te",0,3,"v1_v7-_^7",2
"225",22189,605.045000091195,"te","ti",0,3,"v1_v7-_^7",3
"226",22189,8118.00999997649,"re","do",0,3,"1_v1+_^2",1
"227",22189,520.549999899231,"me","ra",0,3,"1_v1+_^2",2
"228",22189,540.440000011586,"mi","re",0,3,"1_v1+_^2",3
"229",22189,22899.3300000438,"do","la",0,3,"6_^1_v5",1
"230",22189,4531.33999998681,"mi","do",0,3,"6_^1_v5",2
"231",22189,563.419999903999,"fa","sol",0,3,"6_^1_v5",3
"232",22189,19301.7100000288,"do","re",0,3,"v2_v5_^3",1
"233",22189,1512.86500005517,"sol","sol",1,3,"v2_v5_^3",2
"234",22189,1262.89999997243,"mi","mi",1,3,"v2_v5_^3",3
"235",22189,21087.5450000167,"fa","fa",1,3,"v4_v3_v2",1
"236",22189,738.060000003316,"mi","mi",1,3,"v4_v3_v2",2
"237",22189,711.24500001315,"re","re",1,3,"v4_v3_v2",3
"238",22189,2030.03999998327,"mi","mi",1,3,"v3_v2_v1",1
"239",22189,660.885000019334,"re","re",1,3,"v3_v2_v1",2
"240",22189,767.529999953695,"do","do",1,3,"v3_v2_v1",3
"241",22189,11262.1250000084,"sol","sol",1,3,"v5_v4_v3",1
"242",22189,1684.44499990437,"fa","fa",1,3,"v5_v4_v3",2
"243",22189,1593.24000007473,"mi","mi",1,3,"v5_v4_v3",3
"244",22189,27495.0749999844,"me","do",0,3,"v1_v7-_v7-",1
"245",22189,1305.92499999329,"do","te",0,3,"v1_v7-_v7-",2
"246",22189,611.890000058338,"do","te",0,3,"v1_v7-_v7-",3
"247",22189,17878.7399999565,"me","fi",0,5,"v5-_v3_3_^4+_v3",1
"248",22189,1011.6299999645,"re","mi",0,5,"v5-_v3_3_^4+_v3",2
"249",22189,454.524999950081,"re","mi",0,5,"v5-_v3_3_^4+_v3",3
"250",22189,561.744999955408,"me","fi",0,5,"v5-_v3_3_^4+_v3",4
"251",22189,575.454999925569,"re","mi",0,5,"v5-_v3_3_^4+_v3",5
"252",22189,2341.86500008218,"sol","sol",1,5,"v5_v4_v3_v2_v1",1
"253",22189,941.684999968857,"fa","fa",1,5,"v5_v4_v3_v2_v1",2
"254",22189,940.760000026785,"mi","mi",1,5,"v5_v4_v3_v2_v1",3
"255",22189,833.059999975376,"re","re",1,5,"v5_v4_v3_v2_v1",4
"256",22189,928.550000069663,"do","do",1,5,"v5_v4_v3_v2_v1",5
"257",22189,14346.8700000085,"sol","sol",1,5,"^5_^6_v5_v4_v3",1
"258",22189,1563.44000005629,"fa","la",0,5,"^5_^6_v5_v4_v3",2
"259",22189,3259.84499999322,"sol","sol",1,5,"^5_^6_v5_v4_v3",3
"260",22189,952.129999990575,"fa","fa",1,5,"^5_^6_v5_v4_v3",4
"261",22189,540.670000016689,"mi","mi",1,5,"^5_^6_v5_v4_v3",5
"262",22189,2231.68000008445,"sol","sol",1,5,"v5_v4_v3_v2_v1",6
"263",22189,1026.91000001505,"fa","fa",1,5,"v5_v4_v3_v2_v1",7
"264",22189,561.814999906346,"mi","mi",1,5,"v5_v4_v3_v2_v1",8
"265",22189,661.784999887459,"re","re",1,5,"v5_v4_v3_v2_v1",9
"266",22189,755.284999962896,"do","do",1,5,"v5_v4_v3_v2_v1",10
"267",22189,6107.90999990422,"ra","re",0,5,"v2_2_^3_^4_v2",1
"268",22189,765.485000098124,"ra","re",0,5,"v2_2_^3_^4_v2",2
"269",22189,5651.37500001583,"me","mi",0,5,"v2_2_^3_^4_v2",3
"270",22189,6587.65999996103,"mi","fa",0,5,"v2_2_^3_^4_v2",4
"271",22189,5072.71000009496,"ra","re",0,5,"v2_2_^3_^4_v2",5
"272",22189,22689.1900000628,"la","la",1,5,"^6_v4_v3_^4_^5",1
"273",22189,1649.5049999794,"sol","fa",0,5,"^6_v4_v3_^4_^5",2
"274",22189,1248.54499998037,"fa","mi",0,5,"^6_v4_v3_^4_^5",3
"275",22189,1097.84000006039,"mi","fa",0,5,"^6_v4_v3_^4_^5",4
"276",22189,1564.49500005692,"me","sol",0,5,"^6_v4_v3_^4_^5",5
"277",22189,23778.5999999614,"la","la",1,5,"^6_v5_v4_v3_v2",1
"278",22189,832.554999971762,"sol","sol",1,5,"^6_v5_v4_v3_v2",2
"279",22189,740.044999984093,"fa","fa",1,5,"^6_v5_v4_v3_v2",3
"280",22189,1665.06999998819,"mi","mi",1,5,"^6_v5_v4_v3_v2",4
"281",22189,948.949999990873,"re","re",1,5,"^6_v5_v4_v3_v2",5
"282",22189,16619.2049999954,"fa","sol",0,5,"v5_^6+_^7_^1_5",1
"283",22189,346.209999988787,"fa","te",0,5,"v5_^6+_^7_^1_5",2
"284",22189,1399.92499991786,"sol","ti",0,5,"v5_^6+_^7_^1_5",3
"285",22189,5701.2050000485,"le","do",0,5,"v5_^6+_^7_^1_5",4
"286",22189,810.749999945983,"fa","sol",0,5,"v5_^6+_^7_^1_5",5
"287",22189,18177.7800000273,"fa","la",0,7,"^6_v5+_v4_^5+_v3_v1_v7-",1
"288",22189,1141.13000000361,"me","le",0,7,"^6_v5+_v4_^5+_v3_v1_v7-",2
"289",22189,2771.7699999921,"re","fa",0,7,"^6_v5+_v4_^5+_v3_v1_v7-",3
"290",22189,927.219999954104,"do","le",0,7,"^6_v5+_v4_^5+_v3_v1_v7-",4
"291",22189,2352.04500006512,"la","mi",0,7,"^6_v5+_v4_^5+_v3_v1_v7-",5
"292",22189,694.825000013225,"ti","do",0,7,"^6_v5+_v4_^5+_v3_v1_v7-",6
"293",22189,1105.01499997918,"la","te",0,7,"^6_v5+_v4_^5+_v3_v1_v7-",7
"294",22189,5405.69000004325,"re","fa",0,7,"^4_^5_^6_v5_v4_v3_v2",1
"295",22189,838.909999933094,"mi","sol",0,7,"^4_^5_^6_v5_v4_v3_v2",2
"296",22189,669.484999962151,"re","la",0,7,"^4_^5_^6_v5_v4_v3_v2",3
"297",22189,654.53499997966,"do","sol",0,7,"^4_^5_^6_v5_v4_v3_v2",4
"298",22189,1628.34000005387,"ti","fa",0,7,"^4_^5_^6_v5_v4_v3_v2",5
"299",22189,583.220000029542,"la","mi",0,7,"^4_^5_^6_v5_v4_v3_v2",6
"300",22189,1391.98499999475,"sol","re",0,7,"^4_^5_^6_v5_v4_v3_v2",7
"301",22189,1264.96999990195,"do","do",1,7,"^1_v7_v6_v5_v4_v3_v2",1
"302",22189,669.755000039004,"ti","ti",1,7,"^1_v7_v6_v5_v4_v3_v2",2
"303",22189,633.085000095889,"la","la",1,7,"^1_v7_v6_v5_v4_v3_v2",3
"304",22189,632.759999949485,"sol","sol",1,7,"^1_v7_v6_v5_v4_v3_v2",4
"305",22189,762.204999919049,"fa","fa",1,7,"^1_v7_v6_v5_v4_v3_v2",5
"306",22189,690.850000013597,"mi","mi",1,7,"^1_v7_v6_v5_v4_v3_v2",6
"307",22189,2366.8399999151,"re","re",1,7,"^1_v7_v6_v5_v4_v3_v2",7
"308",22189,4479.25500001293,"la","fa",0,7,"^4_v6-_v5-_^6-_^4_v2-_2-",1
"309",22189,976.165000000037,"re","le",0,7,"^4_v6-_v5-_^6-_^4_v2-_2-",2
"310",22189,796.400000108406,"mi","fi",0,7,"^4_v6-_v5-_^6-_^4_v2-_2-",3
"311",22189,1891.44500007387,"re","le",0,7,"^4_v6-_v5-_^6-_^4_v2-_2-",4
"312",22189,1048.56999998447,"la","fa",0,7,"^4_v6-_v5-_^6-_^4_v2-_2-",5
"313",22189,1479.50499993749,"fi","ra",0,7,"^4_v6-_v5-_^6-_^4_v2-_2-",6
"314",22189,517.735000001267,"fi","ra",0,7,"^4_v6-_v5-_^6-_^4_v2-_2-",7
"315",22189,1461.81000000797,"me","do",0,7,"1_^3_v1_^5_v3_v2_^3",1
"316",22189,1173.13500004821,"ti","mi",0,7,"1_^3_v1_^5_v3_v2_^3",2
"317",22189,765.654999995604,"le","do",0,7,"1_^3_v1_^5_v3_v2_^3",3
"318",22189,856.904999935068,"fi","sol",0,7,"1_^3_v1_^5_v3_v2_^3",4
"319",22189,667.765000020154,"le","mi",0,7,"1_^3_v1_^5_v3_v2_^3",5
"320",22189,2423.53999998886,"fi","re",0,7,"1_^3_v1_^5_v3_v2_^3",6
"321",22189,1701.20999997016,"te","mi",0,7,"1_^3_v1_^5_v3_v2_^3",7
"322",22189,10592.1700000763,"sol","sol",1,7,"^5_^6_v5_v4_v3_v2_v1",1
"323",22189,901.169999968261,"la","la",1,7,"^5_^6_v5_v4_v3_v2_v1",2
"324",22189,675.879999995232,"sol","sol",1,7,"^5_^6_v5_v4_v3_v2_v1",3
"325",22189,713.034999906085,"fa","fa",1,7,"^5_^6_v5_v4_v3_v2_v1",4
"326",22189,1033.70000002906,"re","mi",0,7,"^5_^6_v5_v4_v3_v2_v1",5
"327",22189,791.489999974146,"do","re",0,7,"^5_^6_v5_v4_v3_v2_v1",6
"328",22189,626.784999971278,"do","do",1,7,"^5_^6_v5_v4_v3_v2_v1",7
"329",22189,5036.6300001042,"te","do",0,7,"v1_^2_v1_v7_^1_^3_v2",1
"330",22189,1236.74000008032,"do","re",0,7,"v1_^2_v1_v7_^1_^3_v2",2
"331",22189,559.705000021495,"te","do",0,7,"v1_^2_v1_v7_^1_^3_v2",3
"332",22189,641.735000070184,"le","ti",0,7,"v1_^2_v1_v7_^1_^3_v2",4
"333",22189,933.184999972582,"fa","do",0,7,"v1_^2_v1_v7_^1_^3_v2",5
"334",22189,740.519999992102,"le","mi",0,7,"v1_^2_v1_v7_^1_^3_v2",6
"335",22189,1491.50999996345,"sol","re",0,7,"v1_^2_v1_v7_^1_^3_v2",7
"336",22189,4003.35999997333,"do","ti",0,9,"v7_v6_v5_^6_v5_v4_^5_^6_v5",1
"337",22189,2315.16500003636,"te","la",0,9,"v7_v6_v5_^6_v5_v4_^5_^6_v5",2
"338",22189,1522.62000006158,"do","sol",0,9,"v7_v6_v5_^6_v5_v4_^5_^6_v5",3
"339",22189,696.409999975003,"te","la",0,9,"v7_v6_v5_^6_v5_v4_^5_^6_v5",4
"340",22189,912.600000039674,"le","sol",0,9,"v7_v6_v5_^6_v5_v4_^5_^6_v5",5
"341",22189,1699.3149999762,"fi","fa",0,9,"v7_v6_v5_^6_v5_v4_^5_^6_v5",6
"342",22189,861.83000006713,"le","sol",0,9,"v7_v6_v5_^6_v5_v4_^5_^6_v5",7
"343",22189,1078.28500005417,"fi","la",0,9,"v7_v6_v5_^6_v5_v4_^5_^6_v5",8
"344",22189,769.854999962263,"fa","sol",0,9,"v7_v6_v5_^6_v5_v4_^5_^6_v5",9
"345",22189,2716.04500000831,"fa","mi",0,9,"^3_^4_v2_v7_^1_^2_^3_3_^4",1
"346",22189,772.035000030883,"sol","fa",0,9,"^3_^4_v2_v7_^1_^2_^3_3_^4",2
"347",22189,574.619999970309,"fa","re",0,9,"^3_^4_v2_v7_^1_^2_^3_3_^4",3
"348",22189,2051.46499990951,"re","ti",0,9,"^3_^4_v2_v7_^1_^2_^3_3_^4",4
"349",22189,1907.04499999993,"mi","do",0,9,"^3_^4_v2_v7_^1_^2_^3_3_^4",5
"350",22189,577.580000041053,"re","re",1,9,"^3_^4_v2_v7_^1_^2_^3_3_^4",6
"351",22189,661.730000050738,"do","mi",0,9,"^3_^4_v2_v7_^1_^2_^3_3_^4",7
"352",22189,551.74500006251,"re","mi",0,9,"^3_^4_v2_v7_^1_^2_^3_3_^4",8
"353",22189,790.299999993294,"mi","fa",0,9,"^3_^4_v2_v7_^1_^2_^3_3_^4",9
"354",22189,1363.43500006478,"do","sol",0,9,"v5_v4_v6+_^7_^3+_v3_v2_v5_^4",1
"355",22189,531.929999939166,"ti","fa",0,9,"v5_v4_v6+_^7_^3+_v3_v2_v5_^4",2
"356",22189,809.149999986403,"fi","te",0,9,"v5_v4_v6+_^7_^3+_v3_v2_v5_^4",3
"357",22189,1327.47000001837,"te","ti",0,9,"v5_v4_v6+_^7_^3+_v3_v2_v5_^4",4
"358",22189,746.805000002496,"le","mi",0,9,"v5_v4_v6+_^7_^3+_v3_v2_v5_^4",5
"359",22189,1071.01499999408,"me","mi",0,9,"v5_v4_v6+_^7_^3+_v3_v2_v5_^4",6
"360",22189,1306.37499992736,"sol","re",0,9,"v5_v4_v6+_^7_^3+_v3_v2_v5_^4",7
"361",22189,554.810000001453,"fi","sol",0,9,"v5_v4_v6+_^7_^3+_v3_v2_v5_^4",8
"362",22189,1213.23999995366,"re","fa",0,9,"v5_v4_v6+_^7_^3+_v3_v2_v5_^4",9
"363",22189,1651.25999995507,"re","re",1,9,"^2_^4_v3_v2_v1_v3_v2+_^3_^5+",1
"364",22189,814.110000035726,"te","fa",0,9,"^2_^4_v3_v2_v1_v3_v2+_^3_^5+",2
"365",22189,1083.23500002734,"la","mi",0,9,"^2_^4_v3_v2_v1_v3_v2+_^3_^5+",3
"366",22189,1700.52499999292,"sol","re",0,9,"^2_^4_v3_v2_v1_v3_v2+_^3_^5+",4
"367",22189,925.979999941774,"fa","do",0,9,"^2_^4_v3_v2_v1_v3_v2+_^3_^5+",5
"368",22189,675.285000004806,"le","mi",0,9,"^2_^4_v3_v2_v1_v3_v2+_^3_^5+",6
"369",22189,625.024999957532,"sol","me",0,9,"^2_^4_v3_v2_v1_v3_v2+_^3_^5+",7
"370",22189,648.010000004433,"mi","mi",1,9,"^2_^4_v3_v2_v1_v3_v2+_^3_^5+",8
"371",22189,857.390000019222,"re","le",0,9,"^2_^4_v3_v2_v1_v3_v2+_^3_^5+",9
"372",22189,2410.96999996807,"sol","sol",1,9,"^5_^6_v5_v4_v3_v2_v1_^2_^3",1
"373",22189,590.059999958612,"la","la",1,9,"^5_^6_v5_v4_v3_v2_v1_^2_^3",2
"374",22189,1040.76499992516,"sol","sol",1,9,"^5_^6_v5_v4_v3_v2_v1_^2_^3",3
"375",22189,740.434999926947,"fa","fa",1,9,"^5_^6_v5_v4_v3_v2_v1_^2_^3",4
"376",22189,741.049999953248,"mi","mi",1,9,"^5_^6_v5_v4_v3_v2_v1_^2_^3",5
"377",22189,848.35500002373,"re","re",1,9,"^5_^6_v5_v4_v3_v2_v1_^2_^3",6
"378",22189,1592.79499994591,"do","do",1,9,"^5_^6_v5_v4_v3_v2_v1_^2_^3",7
"379",22189,725.609999964945,"re","re",1,9,"^5_^6_v5_v4_v3_v2_v1_^2_^3",8
"380",22189,683.770000003278,"mi","mi",1,9,"^5_^6_v5_v4_v3_v2_v1_^2_^3",9
"381",22189,16950.130000012,"do","re",0,9,"^2_^3_^4_^5_^6_v5_v4_v3_v2",1
"382",22189,655.660000047646,"re","mi",0,9,"^2_^3_^4_^5_^6_v5_v4_v3_v2",2
"383",22189,510.540000046603,"me","fa",0,9,"^2_^3_^4_^5_^6_v5_v4_v3_v2",3
"384",22189,719.144999980927,"fa","sol",0,9,"^2_^3_^4_^5_^6_v5_v4_v3_v2",4
"385",22189,770.295000053011,"sol","la",0,9,"^2_^3_^4_^5_^6_v5_v4_v3_v2",5
"386",22189,740.699999965727,"fa","sol",0,9,"^2_^3_^4_^5_^6_v5_v4_v3_v2",6
"387",22189,733.224999974482,"me","fa",0,9,"^2_^3_^4_^5_^6_v5_v4_v3_v2",7
"388",22189,612.959999940358,"re","mi",0,9,"^2_^3_^4_^5_^6_v5_v4_v3_v2",8
"389",22189,1262.88000005297,"do","re",0,9,"^2_^3_^4_^5_^6_v5_v4_v3_v2",9
"390",22189,2581.14499994554,"fa","mi",0,9,"^3_^4_^5_^6_v5_v4_v3_v2_v1",1
"391",22189,3253.81999998353,"sol","fa",0,9,"^3_^4_^5_^6_v5_v4_v3_v2_v1",2
"392",22189,1005.34999999218,"fa","sol",0,9,"^3_^4_^5_^6_v5_v4_v3_v2_v1",3
"393",22189,1320.4600000754,"mi","la",0,9,"^3_^4_^5_^6_v5_v4_v3_v2_v1",4
"394",22189,915.860000066459,"re","sol",0,9,"^3_^4_^5_^6_v5_v4_v3_v2_v1",5
"395",22189,2889.36999998987,"do","fa",0,9,"^3_^4_^5_^6_v5_v4_v3_v2_v1",6
"396",22189,1055.64499995671,"la","mi",0,9,"^3_^4_^5_^6_v5_v4_v3_v2_v1",7
"397",22189,776.799999992363,"sol","re",0,9,"^3_^4_^5_^6_v5_v4_v3_v2_v1",8
"398",22189,590.304999961518,"la","do",0,9,"^3_^4_^5_^6_v5_v4_v3_v2_v1",9
"399",31141,1300,"fa","fa",1,2,"v4_v3",1
"400",31141,595,"mi","mi",1,2,"v4_v3",2
"401",31141,1353,"mi","mi",1,2,"3_^6",1
"402",31141,832,"la","la",1,2,"3_^6",2
"403",31141,1259,"mi","mi",1,2,"^3_v4+",1
"404",31141,675,"fi","fi",1,2,"^3_v4+",2
"405",31141,1239,"re","re",1,2,"v2_v1",1
"406",31141,774,"do","do",1,2,"v2_v1",2
"407",31141,1673,"mi","mi",1,2,"v3_v2",1
"408",31141,786,"re","re",1,2,"v3_v2",2
"409",31141,1496,"sol","sol",1,2,"^5_^1+",1
"410",31141,853,"ra","ra",1,2,"^5_^1+",2
"411",31141,2154,"ti","ti",1,2,"v7_v3",1
"412",31141,1270,"mi","mi",1,2,"v7_v3",2
"413",31141,873,"do","do",1,2,"^1_^2+",1
"414",31141,854,"me","me",1,2,"^1_^2+",2
"415",31141,2900,"sol","sol",1,2,"v5_v1+",1
"416",31141,1293,"ra","ra",1,2,"v5_v1+",2
"417",31141,1465,"re","re",1,2,"^2_v7-",1
"418",31141,1090,"te","te",1,2,"^2_v7-",2
"419",31141,986,"do","do",1,3,"v1_v7-_v7-",1
"420",31141,1336,"te","te",1,3,"v1_v7-_v7-",2
"421",31141,483,"te","te",1,3,"v1_v7-_v7-",3
"422",31141,1801,"la","la",1,3,"6_^1_v5",1
"423",31141,887,"do","do",1,3,"6_^1_v5",2
"424",31141,910,"sol","sol",1,3,"6_^1_v5",3
"425",31141,938,"do","do",1,3,"v1_v7-_^7",1
"426",31141,674,"te","te",1,3,"v1_v7-_^7",2
"427",31141,1045,"ti","ti",1,3,"v1_v7-_^7",3
"428",31141,1239,"mi","mi",1,3,"v3_v2_v1",1
"429",31141,730,"re","re",1,3,"v3_v2_v1",2
"430",31141,640,"do","do",1,3,"v3_v2_v1",3
"431",31141,1270,"fa","fa",1,3,"v4_v3_v2",1
"432",31141,505,"mi","mi",1,3,"v4_v3_v2",2
"433",31141,730,"re","re",1,3,"v4_v3_v2",3
"434",31141,1617,"do","do",1,3,"^1_v6_v5+",1
"435",31141,877,"la","la",1,3,"^1_v6_v5+",2
"436",31141,674,"le","le",1,3,"^1_v6_v5+",3
"437",31141,1324,"sol","sol",1,3,"v5_v4_v3",1
"438",31141,696,"fa","fa",1,3,"v5_v4_v3",2
"439",31141,527,"mi","mi",1,3,"v5_v4_v3",3
"440",31141,2989,"do","do",1,3,"1_v1+_^2",1
"441",31141,1080,"ra","ra",1,3,"1_v1+_^2",2
"442",31141,1057,"re","re",1,3,"1_v1+_^2",3
"443",31141,1616,"re","re",1,3,"v2_v5_^3",1
"444",31141,1044,"sol","sol",1,3,"v2_v5_^3",2
"445",31141,1260,"mi","mi",1,3,"v2_v5_^3",3
"446",31141,1318,"la","la",1,5,"^6_v5_v4_v3_v2",1
"447",31141,595,"sol","sol",1,5,"^6_v5_v4_v3_v2",2
"448",31141,617,"fa","fa",1,5,"^6_v5_v4_v3_v2",3
"449",31141,628,"mi","mi",1,5,"^6_v5_v4_v3_v2",4
"450",31141,628,"re","re",1,5,"^6_v5_v4_v3_v2",5
"451",31141,1224,"sol","sol",1,5,"v5_v4_v3_v2_v1",1
"452",31141,505,"fa","fa",1,5,"v5_v4_v3_v2_v1",2
"453",31141,662,"mi","mi",1,5,"v5_v4_v3_v2_v1",3
"454",31141,483,"re","re",1,5,"v5_v4_v3_v2_v1",4
"455",31141,449,"do","do",1,5,"v5_v4_v3_v2_v1",5
"456",31141,1166,"sol","sol",1,5,"^5_^6_v5_v4_v3",1
"457",31141,550,"la","la",1,5,"^5_^6_v5_v4_v3",2
"458",31141,764,"sol","sol",1,5,"^5_^6_v5_v4_v3",3
"459",31141,641,"fa","fa",1,5,"^5_^6_v5_v4_v3",4
"460",31141,798,"mi","mi",1,5,"^5_^6_v5_v4_v3",5
"461",31141,1112,"sol","sol",1,5,"v5_v4_v3_v2_v1",6
"462",31141,618,"fa","fa",1,5,"v5_v4_v3_v2_v1",7
"463",31141,495,"mi","mi",1,5,"v5_v4_v3_v2_v1",8
"464",31141,697,"re","re",1,5,"v5_v4_v3_v2_v1",9
"465",31141,539,"do","do",1,5,"v5_v4_v3_v2_v1",10
"466",31141,1867,"fi","fi",1,5,"v5-_v3_3_^4+_v3",1
"467",31141,752,"mi","mi",1,5,"v5-_v3_3_^4+_v3",2
"468",31141,482,"mi","mi",1,5,"v5-_v3_3_^4+_v3",3
"469",31141,765,"fi","fi",1,5,"v5-_v3_3_^4+_v3",4
"470",31141,890,"mi","mi",1,5,"v5-_v3_3_^4+_v3",5
"471",31141,1029,"re","re",1,5,"v2_2_^3_^4_v2",1
"472",31141,606,"re","re",1,5,"v2_2_^3_^4_v2",2
"473",31141,1236,"mi","mi",1,5,"v2_2_^3_^4_v2",3
"474",31141,584,"fa","fa",1,5,"v2_2_^3_^4_v2",4
"475",31141,753,"re","re",1,5,"v2_2_^3_^4_v2",5
"476",31141,1164,"sol","sol",1,5,"v5_^6+_^7_^1_5",1
"477",31141,629,"la","te",0,5,"v5_^6+_^7_^1_5",2
"478",31141,641,"ti","ti",1,5,"v5_^6+_^7_^1_5",3
"479",31141,550,"do","do",1,5,"v5_^6+_^7_^1_5",4
"480",31141,966,"sol","sol",1,5,"v5_^6+_^7_^1_5",5
"481",31141,1908,"la","la",1,5,"^6_v4_v3_^4_^5",1
"482",31141,933,"fa","fa",1,5,"^6_v4_v3_^4_^5",2
"483",31141,674,"mi","mi",1,5,"^6_v4_v3_^4_^5",3
"484",31141,674,"fa","fa",1,5,"^6_v4_v3_^4_^5",4
"485",31141,696,"sol","sol",1,5,"^6_v4_v3_^4_^5",5
"486",31141,1111,"sol","sol",1,7,"^5_^6_v5_v4_v3_v2_v1",1
"487",31141,608,"la","la",1,7,"^5_^6_v5_v4_v3_v2_v1",2
"488",31141,695,"sol","sol",1,7,"^5_^6_v5_v4_v3_v2_v1",3
"489",31141,573,"fa","fa",1,7,"^5_^6_v5_v4_v3_v2_v1",4
"490",31141,505,"mi","mi",1,7,"^5_^6_v5_v4_v3_v2_v1",5
"491",31141,629,"re","re",1,7,"^5_^6_v5_v4_v3_v2_v1",6
"492",31141,483,"do","do",1,7,"^5_^6_v5_v4_v3_v2_v1",7
"493",31141,1486,"do","do",1,7,"1_^3_v1_^5_v3_v2_^3",1
"494",31141,1022,"re","mi",0,7,"1_^3_v1_^5_v3_v2_^3",2
"495",31141,664,"do","do",1,7,"1_^3_v1_^5_v3_v2_^3",3
"496",31141,956,"sol","sol",1,7,"1_^3_v1_^5_v3_v2_^3",4
"497",31141,967,"mi","mi",1,7,"1_^3_v1_^5_v3_v2_^3",5
"498",31141,687,"re","re",1,7,"1_^3_v1_^5_v3_v2_^3",6
"499",31141,718,"mi","mi",1,7,"1_^3_v1_^5_v3_v2_^3",7
"500",31141,918,"do","do",1,7,"^1_v7_v6_v5_v4_v3_v2",1
"501",31141,449,"ti","ti",1,7,"^1_v7_v6_v5_v4_v3_v2",2
"502",31141,470,"la","la",1,7,"^1_v7_v6_v5_v4_v3_v2",3
"503",31141,561,"sol","sol",1,7,"^1_v7_v6_v5_v4_v3_v2",4
"504",31141,484,"fa","fa",1,7,"^1_v7_v6_v5_v4_v3_v2",5
"505",31141,1057,"mi","mi",1,7,"^1_v7_v6_v5_v4_v3_v2",6
"506",31141,607,"re","re",1,7,"^1_v7_v6_v5_v4_v3_v2",7
"507",31141,42965,"fa","fa",1,7,"^4_v6-_v5-_^6-_^4_v2-_2-",1
"508",31141,898,"le","le",1,7,"^4_v6-_v5-_^6-_^4_v2-_2-",2
"509",31141,833,"fi","fi",1,7,"^4_v6-_v5-_^6-_^4_v2-_2-",3
"510",31141,831,"le","le",1,7,"^4_v6-_v5-_^6-_^4_v2-_2-",4
"511",31141,990,"fa","fa",1,7,"^4_v6-_v5-_^6-_^4_v2-_2-",5
"512",31141,652,"ra","ra",1,7,"^4_v6-_v5-_^6-_^4_v2-_2-",6
"513",31141,606,"ra","ra",1,7,"^4_v6-_v5-_^6-_^4_v2-_2-",7
"514",31141,1490,"fa","fa",1,7,"^4_^5_^6_v5_v4_v3_v2",1
"515",31141,1101,"sol","sol",1,7,"^4_^5_^6_v5_v4_v3_v2",2
"516",31141,606,"la","la",1,7,"^4_^5_^6_v5_v4_v3_v2",3
"517",31141,562,"sol","sol",1,7,"^4_^5_^6_v5_v4_v3_v2",4
"518",31141,628,"fa","fa",1,7,"^4_^5_^6_v5_v4_v3_v2",5
"519",31141,504,"mi","mi",1,7,"^4_^5_^6_v5_v4_v3_v2",6
"520",31141,551,"re","re",1,7,"^4_^5_^6_v5_v4_v3_v2",7
"521",31141,1115,"do","do",1,7,"v1_^2_v1_v7_^1_^3_v2",1
"522",31141,662,"re","re",1,7,"v1_^2_v1_v7_^1_^3_v2",2
"523",31141,753,"do","do",1,7,"v1_^2_v1_v7_^1_^3_v2",3
"524",31141,921,"ti","ti",1,7,"v1_^2_v1_v7_^1_^3_v2",4
"525",31141,832,"do","do",1,7,"v1_^2_v1_v7_^1_^3_v2",5
"526",31141,1068,"mi","mi",1,7,"v1_^2_v1_v7_^1_^3_v2",6
"527",31141,675,"re","re",1,7,"v1_^2_v1_v7_^1_^3_v2",7
"528",31141,27719,"la","la",1,7,"^6_v5+_v4_^5+_v3_v1_v7-",1
"529",31141,1168,"fi","le",0,7,"^6_v5+_v4_^5+_v3_v1_v7-",2
"530",31141,448,"mi","fa",0,7,"^6_v5+_v4_^5+_v3_v1_v7-",3
"531",31141,561,"fi","le",0,7,"^6_v5+_v4_^5+_v3_v1_v7-",4
"532",31141,2643,"me","mi",0,7,"^6_v5+_v4_^5+_v3_v1_v7-",5
"533",31141,651,"do","do",1,7,"^6_v5+_v4_^5+_v3_v1_v7-",6
"534",31141,315,"do","te",0,7,"^6_v5+_v4_^5+_v3_v1_v7-",7
"535",31141,24472,"re","re",1,9,"^2_^3_^4_^5_^6_v5_v4_v3_v2",1
"536",31141,685,"mi","mi",1,9,"^2_^3_^4_^5_^6_v5_v4_v3_v2",2
"537",31141,853,"fa","fa",1,9,"^2_^3_^4_^5_^6_v5_v4_v3_v2",3
"538",31141,630,"sol","sol",1,9,"^2_^3_^4_^5_^6_v5_v4_v3_v2",4
"539",31141,550,"la","la",1,9,"^2_^3_^4_^5_^6_v5_v4_v3_v2",5
"540",31141,709,"sol","sol",1,9,"^2_^3_^4_^5_^6_v5_v4_v3_v2",6
"541",31141,832,"fa","fa",1,9,"^2_^3_^4_^5_^6_v5_v4_v3_v2",7
"542",31141,561,"mi","mi",1,9,"^2_^3_^4_^5_^6_v5_v4_v3_v2",8
"543",31141,607,"re","re",1,9,"^2_^3_^4_^5_^6_v5_v4_v3_v2",9
"544",31141,4775,"mi","mi",1,9,"^3_^4_^5_^6_v5_v4_v3_v2_v1",1
"545",31141,527,"fa","fa",1,9,"^3_^4_^5_^6_v5_v4_v3_v2_v1",2
"546",31141,595,"sol","sol",1,9,"^3_^4_^5_^6_v5_v4_v3_v2_v1",3
"547",31141,516,"la","la",1,9,"^3_^4_^5_^6_v5_v4_v3_v2_v1",4
"548",31141,416,"sol","sol",1,9,"^3_^4_^5_^6_v5_v4_v3_v2_v1",5
"549",31141,505,"fa","fa",1,9,"^3_^4_^5_^6_v5_v4_v3_v2_v1",6
"550",31141,460,"mi","mi",1,9,"^3_^4_^5_^6_v5_v4_v3_v2_v1",7
"551",31141,416,"re","re",1,9,"^3_^4_^5_^6_v5_v4_v3_v2_v1",8
"552",31141,461,"do","do",1,9,"^3_^4_^5_^6_v5_v4_v3_v2_v1",9
"553",31141,1669,"ti","ti",1,9,"v7_v6_v5_^6_v5_v4_^5_^6_v5",1
"554",31141,562,"la","la",1,9,"v7_v6_v5_^6_v5_v4_^5_^6_v5",2
"555",31141,574,"sol","sol",1,9,"v7_v6_v5_^6_v5_v4_^5_^6_v5",3
"556",31141,550,"fa","la",0,9,"v7_v6_v5_^6_v5_v4_^5_^6_v5",4
"557",31141,472,"sol","sol",1,9,"v7_v6_v5_^6_v5_v4_^5_^6_v5",5
"558",31141,539,"fa","fa",1,9,"v7_v6_v5_^6_v5_v4_^5_^6_v5",6
"559",31141,472,"sol","sol",1,9,"v7_v6_v5_^6_v5_v4_^5_^6_v5",7
"560",31141,515,"la","la",1,9,"v7_v6_v5_^6_v5_v4_^5_^6_v5",8
"561",31141,428,"sol","sol",1,9,"v7_v6_v5_^6_v5_v4_^5_^6_v5",9
"562",31141,1191,"sol","sol",1,9,"^5_^6_v5_v4_v3_v2_v1_^2_^3",1
"563",31141,595,"la","la",1,9,"^5_^6_v5_v4_v3_v2_v1_^2_^3",2
"564",31141,617,"sol","sol",1,9,"^5_^6_v5_v4_v3_v2_v1_^2_^3",3
"565",31141,461,"fa","fa",1,9,"^5_^6_v5_v4_v3_v2_v1_^2_^3",4
"566",31141,742,"mi","mi",1,9,"^5_^6_v5_v4_v3_v2_v1_^2_^3",5
"567",31141,460,"re","re",1,9,"^5_^6_v5_v4_v3_v2_v1_^2_^3",6
"568",31141,551,"do","do",1,9,"^5_^6_v5_v4_v3_v2_v1_^2_^3",7
"569",31141,539,"re","re",1,9,"^5_^6_v5_v4_v3_v2_v1_^2_^3",8
"570",31141,528,"mi","mi",1,9,"^5_^6_v5_v4_v3_v2_v1_^2_^3",9
"571",31141,1536,"mi","mi",1,9,"^3_^4_v2_v7_^1_^2_^3_3_^4",1
"572",31141,494,"fa","fa",1,9,"^3_^4_v2_v7_^1_^2_^3_3_^4",2
"573",31141,505,"re","re",1,9,"^3_^4_v2_v7_^1_^2_^3_3_^4",3
"574",31141,787,"ti","ti",1,9,"^3_^4_v2_v7_^1_^2_^3_3_^4",4
"575",31141,877,"do","do",1,9,"^3_^4_v2_v7_^1_^2_^3_3_^4",5
"576",31141,967,"re","re",1,9,"^3_^4_v2_v7_^1_^2_^3_3_^4",6
"577",31141,461,"mi","mi",1,9,"^3_^4_v2_v7_^1_^2_^3_3_^4",7
"578",31141,506,"fa","mi",0,9,"^3_^4_v2_v7_^1_^2_^3_3_^4",8
"579",31141,1788,"mi","fa",0,9,"^3_^4_v2_v7_^1_^2_^3_3_^4",9
"580",31141,6830,"sol","sol",1,9,"v5_v4_v6+_^7_^3+_v3_v2_v5_^4",1
"581",31141,483,"fi","fa",0,9,"v5_v4_v6+_^7_^3+_v3_v2_v5_^4",2
"582",31141,595,"fa","te",0,9,"v5_v4_v6+_^7_^3+_v3_v2_v5_^4",3
"583",31141,809,"sol","ti",0,9,"v5_v4_v6+_^7_^3+_v3_v2_v5_^4",4
"584",31141,1687,"me","mi",0,9,"v5_v4_v6+_^7_^3+_v3_v2_v5_^4",5
"585",31141,2327,"me","mi",0,9,"v5_v4_v6+_^7_^3+_v3_v2_v5_^4",6
"586",31141,606,"re","re",1,9,"v5_v4_v6+_^7_^3+_v3_v2_v5_^4",7
"587",31141,2237,"mi","sol",0,9,"v5_v4_v6+_^7_^3+_v3_v2_v5_^4",8
"588",31141,2395,"re","fa",0,9,"v5_v4_v6+_^7_^3+_v3_v2_v5_^4",9
"589",31141,4317,"mi","re",0,9,"^2_^4_v3_v2_v1_v3_v2+_^3_^5+",1
"590",31141,844,"sol","fa",0,9,"^2_^4_v3_v2_v1_v3_v2+_^3_^5+",2
"591",31141,483,"fa","mi",0,9,"^2_^4_v3_v2_v1_v3_v2+_^3_^5+",3
"592",31141,516,"mi","re",0,9,"^2_^4_v3_v2_v1_v3_v2+_^3_^5+",4
"593",31141,529,"me","do",0,9,"^2_^4_v3_v2_v1_v3_v2+_^3_^5+",5
"594",31141,1147,"mi","mi",1,9,"^2_^4_v3_v2_v1_v3_v2+_^3_^5+",6
"595",31141,28678,"ra","me",0,9,"^2_^4_v3_v2_v1_v3_v2+_^3_^5+",7
"596",31141,4218,"fi","mi",0,9,"^2_^4_v3_v2_v1_v3_v2+_^3_^5+",8
"597",31141,189,"fi","le",0,9,"^2_^4_v3_v2_v1_v3_v2+_^3_^5+",9
"598",35697,10849,"fa","re",0,2,"v2_v1",1
"599",35697,1724,"mi","do",0,2,"v2_v1",2
"600",35697,7253,"la","sol",0,2,"v5_v1+",1
"601",35697,2845,"ra","ra",1,2,"v5_v1+",2
"602",35697,11586,"la","ti",0,2,"v7_v3",1
"603",35697,974,"mi","mi",1,2,"v7_v3",2
"604",35697,1744,"fa","fa",1,2,"v4_v3",1
"605",35697,433,"mi","mi",1,2,"v4_v3",2
"606",35697,5307,"mi","mi",1,2,"^3_v4+",1
"607",35697,715,"fi","fi",1,2,"^3_v4+",2
"608",35697,9629,"fa","mi",0,2,"3_^6",1
"609",35697,3477,"la","la",1,2,"3_^6",2
"610",35697,14487,"ti","re",0,2,"^2_v7-",1
"611",35697,1382,"sol","te",0,2,"^2_v7-",2
"612",35697,13424,"do","do",1,2,"^1_^2+",1
"613",35697,2432,"fi","me",0,2,"^1_^2+",2
"614",35697,8848,"mi","mi",1,2,"v3_v2",1
"615",35697,1754,"re","re",1,2,"v3_v2",2
"616",35697,11110,"fi","sol",0,2,"^5_^1+",1
"617",35697,943,"do","ra",0,2,"^5_^1+",2
"618",35697,2318,"do","do",1,3,"1_v1+_^2",1
"619",35697,911,"ra","ra",1,3,"1_v1+_^2",2
"620",35697,1222,"me","re",0,3,"1_v1+_^2",3
"621",35697,4664,"do","do",1,3,"v1_v7-_v7-",1
"622",35697,669,"ti","te",0,3,"v1_v7-_v7-",2
"623",35697,643,"ti","te",0,3,"v1_v7-_v7-",3
"624",35697,4294,"mi","mi",1,3,"v3_v2_v1",1
"625",35697,682,"re","re",1,3,"v3_v2_v1",2
"626",35697,713,"do","do",1,3,"v3_v2_v1",3
"627",35697,6783,"fa","re",0,3,"v2_v5_^3",1
"628",35697,1347,"la","sol",0,3,"v2_v5_^3",2
"629",35697,2253,"sol","mi",0,3,"v2_v5_^3",3
"630",35697,13962,"sol","la",0,3,"6_^1_v5",1
"631",35697,2316,"la","do",0,3,"6_^1_v5",2
"632",35697,3530,"mi","sol",0,3,"6_^1_v5",3
"633",35697,3818,"sol","sol",1,3,"v5_v4_v3",1
"634",35697,1590,"fa","fa",1,3,"v5_v4_v3",2
"635",35697,620,"mi","mi",1,3,"v5_v4_v3",3
"636",35697,21566,"do","do",1,3,"v1_v7-_^7",1
"637",35697,931,"la","te",0,3,"v1_v7-_^7",2
"638",35697,628,"te","ti",0,3,"v1_v7-_^7",3
"639",35697,11196,"fa","fa",1,3,"v4_v3_v2",1
"640",35697,620,"mi","mi",1,3,"v4_v3_v2",2
"641",35697,1185,"re","re",1,3,"v4_v3_v2",3
"642",35697,4325,"do","do",1,3,"^1_v6_v5+",1
"643",35697,2249,"ti","la",0,3,"^1_v6_v5+",2
"644",35697,1207,"te","le",0,3,"^1_v6_v5+",3
"645",35697,23910,"fa","la",0,5,"^6_v4_v3_^4_^5",1
"646",35697,949,"ra","fa",0,5,"^6_v4_v3_^4_^5",2
"647",35697,773,"do","mi",0,5,"^6_v4_v3_^4_^5",3
"648",35697,1783,"ra","fa",0,5,"^6_v4_v3_^4_^5",4
"649",35697,957,"me","sol",0,5,"^6_v4_v3_^4_^5",5
"650",35697,9868,"sol","sol",1,5,"v5_v4_v3_v2_v1",1
"651",35697,735,"fa","fa",1,5,"v5_v4_v3_v2_v1",2
"652",35697,662,"mi","mi",1,5,"v5_v4_v3_v2_v1",3
"653",35697,571,"re","re",1,5,"v5_v4_v3_v2_v1",4
"654",35697,1330,"do","do",1,5,"v5_v4_v3_v2_v1",5
"655",35697,3380,"sol","sol",1,5,"v5_v4_v3_v2_v1",6
"656",35697,867,"fa","fa",1,5,"v5_v4_v3_v2_v1",7
"657",35697,589,"mi","mi",1,5,"v5_v4_v3_v2_v1",8
"658",35697,717,"re","re",1,5,"v5_v4_v3_v2_v1",9
"659",35697,684,"do","do",1,5,"v5_v4_v3_v2_v1",10
"660",35697,5883,"me","re",0,5,"v2_2_^3_^4_v2",1
"661",35697,776,"me","re",0,5,"v2_2_^3_^4_v2",2
"662",35697,744,"mi","mi",1,5,"v2_2_^3_^4_v2",3
"663",35697,8343,"le","fa",0,5,"v2_2_^3_^4_v2",4
"664",35697,578,"sol","re",0,5,"v2_2_^3_^4_v2",5
"665",35697,4575,"sol","sol",1,5,"^5_^6_v5_v4_v3",1
"666",35697,888,"le","la",0,5,"^5_^6_v5_v4_v3",2
"667",35697,847,"sol","sol",1,5,"^5_^6_v5_v4_v3",3
"668",35697,1023,"fa","fa",1,5,"^5_^6_v5_v4_v3",4
"669",35697,2990,"me","mi",0,5,"^5_^6_v5_v4_v3",5
"670",35697,1808,"fi","fi",1,5,"v5-_v3_3_^4+_v3",1
"671",35697,2927,"mi","mi",1,5,"v5-_v3_3_^4+_v3",2
"672",35697,855,"mi","mi",1,5,"v5-_v3_3_^4+_v3",3
"673",35697,948,"fi","fi",1,5,"v5-_v3_3_^4+_v3",4
"674",35697,1049,"mi","mi",1,5,"v5-_v3_3_^4+_v3",5
"675",35697,5563,"do","sol",0,5,"v5_^6+_^7_^1_5",1
"676",35697,1257,"re","te",0,5,"v5_^6+_^7_^1_5",2
"677",35697,1820,"me","ti",0,5,"v5_^6+_^7_^1_5",3
"678",35697,1169,"fa","do",0,5,"v5_^6+_^7_^1_5",4
"679",35697,2882,"re","sol",0,5,"v5_^6+_^7_^1_5",5
"680",35697,11480,"do","la",0,5,"^6_v5_v4_v3_v2",1
"681",35697,796,"ti","sol",0,5,"^6_v5_v4_v3_v2",2
"682",35697,7246,"te","fa",0,5,"^6_v5_v4_v3_v2",3
"683",35697,1832,"la","mi",0,5,"^6_v5_v4_v3_v2",4
"684",35697,1028,"sol","re",0,5,"^6_v5_v4_v3_v2",5
"685",35697,23311,"te","fa",0,7,"^4_v6-_v5-_^6-_^4_v2-_2-",1
"686",35697,929,"re","le",0,7,"^4_v6-_v5-_^6-_^4_v2-_2-",2
"687",35697,578,"re","fi",0,7,"^4_v6-_v5-_^6-_^4_v2-_2-",3
"688",35697,1256,"la","le",0,7,"^4_v6-_v5-_^6-_^4_v2-_2-",4
"689",35697,692,"te","fa",0,7,"^4_v6-_v5-_^6-_^4_v2-_2-",5
"690",35697,2070,"re","ra",0,7,"^4_v6-_v5-_^6-_^4_v2-_2-",6
"691",35697,791,"re","ra",0,7,"^4_v6-_v5-_^6-_^4_v2-_2-",7
"692",35697,12090,"re","do",0,7,"1_^3_v1_^5_v3_v2_^3",1
"693",35697,821,"sol","mi",0,7,"1_^3_v1_^5_v3_v2_^3",2
"694",35697,931,"re","do",0,7,"1_^3_v1_^5_v3_v2_^3",3
"695",35697,1343,"la","sol",0,7,"1_^3_v1_^5_v3_v2_^3",4
"696",35697,1004,"sol","mi",0,7,"1_^3_v1_^5_v3_v2_^3",5
"697",35697,2174,"re","re",1,7,"1_^3_v1_^5_v3_v2_^3",6
"698",35697,1024,"re","mi",0,7,"1_^3_v1_^5_v3_v2_^3",7
"699",35697,6484,"sol","sol",1,7,"^5_^6_v5_v4_v3_v2_v1",1
"700",35697,716,"la","la",1,7,"^5_^6_v5_v4_v3_v2_v1",2
"701",35697,726,"sol","sol",1,7,"^5_^6_v5_v4_v3_v2_v1",3
"702",35697,853,"fa","fa",1,7,"^5_^6_v5_v4_v3_v2_v1",4
"703",35697,518,"mi","mi",1,7,"^5_^6_v5_v4_v3_v2_v1",5
"704",35697,728,"re","re",1,7,"^5_^6_v5_v4_v3_v2_v1",6
"705",35697,641,"do","do",1,7,"^5_^6_v5_v4_v3_v2_v1",7
"706",35697,4296,"do","do",1,7,"v1_^2_v1_v7_^1_^3_v2",1
"707",35697,697,"re","re",1,7,"v1_^2_v1_v7_^1_^3_v2",2
"708",35697,828,"do","do",1,7,"v1_^2_v1_v7_^1_^3_v2",3
"709",35697,1209,"mi","ti",0,7,"v1_^2_v1_v7_^1_^3_v2",4
"710",35697,757,"fa","do",0,7,"v1_^2_v1_v7_^1_^3_v2",5
"711",35697,4511,"mi","mi",1,7,"v1_^2_v1_v7_^1_^3_v2",6
"712",35697,1681,"re","re",1,7,"v1_^2_v1_v7_^1_^3_v2",7
"713",35697,4695,"fa","fa",1,7,"^4_^5_^6_v5_v4_v3_v2",1
"714",35697,620,"sol","sol",1,7,"^4_^5_^6_v5_v4_v3_v2",2
"715",35697,682,"fa","la",0,7,"^4_^5_^6_v5_v4_v3_v2",3
"716",35697,590,"sol","sol",1,7,"^4_^5_^6_v5_v4_v3_v2",4
"717",35697,716,"le","fa",0,7,"^4_^5_^6_v5_v4_v3_v2",5
"718",35697,1085,"fa","mi",0,7,"^4_^5_^6_v5_v4_v3_v2",6
"719",35697,2365,"me","re",0,7,"^4_^5_^6_v5_v4_v3_v2",7
"720",35697,11257,"do","do",1,7,"^1_v7_v6_v5_v4_v3_v2",1
"721",35697,575,"ti","ti",1,7,"^1_v7_v6_v5_v4_v3_v2",2
"722",35697,777,"la","la",1,7,"^1_v7_v6_v5_v4_v3_v2",3
"723",35697,680,"sol","sol",1,7,"^1_v7_v6_v5_v4_v3_v2",4
"724",35697,692,"fa","fa",1,7,"^1_v7_v6_v5_v4_v3_v2",5
"725",35697,497,"mi","mi",1,7,"^1_v7_v6_v5_v4_v3_v2",6
"726",35697,682,"re","re",1,7,"^1_v7_v6_v5_v4_v3_v2",7
"727",35697,7476,"la","la",1,7,"^6_v5+_v4_^5+_v3_v1_v7-",1
"728",35697,675,"sol","le",0,7,"^6_v5+_v4_^5+_v3_v1_v7-",2
"729",35697,559,"fi","fa",0,7,"^6_v5+_v4_^5+_v3_v1_v7-",3
"730",35697,4056,"le","le",1,7,"^6_v5+_v4_^5+_v3_v1_v7-",4
"731",35697,619,"la","mi",0,7,"^6_v5+_v4_^5+_v3_v1_v7-",5
"732",35697,6415,"fa","do",0,7,"^6_v5+_v4_^5+_v3_v1_v7-",6
"733",35697,454,"mi","te",0,7,"^6_v5+_v4_^5+_v3_v1_v7-",7
"734",35697,7706,"te","sol",0,9,"v5_v4_v6+_^7_^3+_v3_v2_v5_^4",1
"735",35697,598,"la","fa",0,9,"v5_v4_v6+_^7_^3+_v3_v2_v5_^4",2
"736",35697,610,"sol","te",0,9,"v5_v4_v6+_^7_^3+_v3_v2_v5_^4",3
"737",35697,2005,"fa","ti",0,9,"v5_v4_v6+_^7_^3+_v3_v2_v5_^4",4
"738",35697,505,"mi","mi",1,9,"v5_v4_v6+_^7_^3+_v3_v2_v5_^4",5
"739",35697,1486,"me","mi",0,9,"v5_v4_v6+_^7_^3+_v3_v2_v5_^4",6
"740",35697,1697,"la","re",0,9,"v5_v4_v6+_^7_^3+_v3_v2_v5_^4",7
"741",35697,1325,"te","sol",0,9,"v5_v4_v6+_^7_^3+_v3_v2_v5_^4",8
"742",35697,2143,"la","fa",0,9,"v5_v4_v6+_^7_^3+_v3_v2_v5_^4",9
"743",35697,15716,"la","mi",0,9,"^3_^4_v2_v7_^1_^2_^3_3_^4",1
"744",35697,745,"te","fa",0,9,"^3_^4_v2_v7_^1_^2_^3_3_^4",2
"745",35697,583,"la","re",0,9,"^3_^4_v2_v7_^1_^2_^3_3_^4",3
"746",35697,1036,"sol","ti",0,9,"^3_^4_v2_v7_^1_^2_^3_3_^4",4
"747",35697,684,"fa","do",0,9,"^3_^4_v2_v7_^1_^2_^3_3_^4",5
"748",35697,719,"fa","re",0,9,"^3_^4_v2_v7_^1_^2_^3_3_^4",6
"749",35697,922,"sol","mi",0,9,"^3_^4_v2_v7_^1_^2_^3_3_^4",7
"750",35697,582,"la","mi",0,9,"^3_^4_v2_v7_^1_^2_^3_3_^4",8
"751",35697,2003,"sol","fa",0,9,"^3_^4_v2_v7_^1_^2_^3_3_^4",9
"752",35697,2545,"ti","sol",0,9,"^5_^6_v5_v4_v3_v2_v1_^2_^3",1
"753",35697,645,"do","la",0,9,"^5_^6_v5_v4_v3_v2_v1_^2_^3",2
"754",35697,748,"ti","sol",0,9,"^5_^6_v5_v4_v3_v2_v1_^2_^3",3
"755",35697,602,"la","fa",0,9,"^5_^6_v5_v4_v3_v2_v1_^2_^3",4
"756",35697,706,"sol","mi",0,9,"^5_^6_v5_v4_v3_v2_v1_^2_^3",5
"757",35697,2128,"la","re",0,9,"^5_^6_v5_v4_v3_v2_v1_^2_^3",6
"758",35697,600,"sol","do",0,9,"^5_^6_v5_v4_v3_v2_v1_^2_^3",7
"759",35697,603,"mi","re",0,9,"^5_^6_v5_v4_v3_v2_v1_^2_^3",8
"760",35697,573,"fa","mi",0,9,"^5_^6_v5_v4_v3_v2_v1_^2_^3",9
"761",35697,7574,"sol","re",0,9,"^2_^4_v3_v2_v1_v3_v2+_^3_^5+",1
"762",35697,488,"le","fa",0,9,"^2_^4_v3_v2_v1_v3_v2+_^3_^5+",2
"763",35697,688,"sol","mi",0,9,"^2_^4_v3_v2_v1_v3_v2+_^3_^5+",3
"764",35697,873,"fa","re",0,9,"^2_^4_v3_v2_v1_v3_v2+_^3_^5+",4
"765",35697,1787,"me","do",0,9,"^2_^4_v3_v2_v1_v3_v2+_^3_^5+",5
"766",35697,995,"mi","mi",1,9,"^2_^4_v3_v2_v1_v3_v2+_^3_^5+",6
"767",35697,853,"fi","me",0,9,"^2_^4_v3_v2_v1_v3_v2+_^3_^5+",7
"768",35697,2849,"me","mi",0,9,"^2_^4_v3_v2_v1_v3_v2+_^3_^5+",8
"769",35697,895,"re","le",0,9,"^2_^4_v3_v2_v1_v3_v2+_^3_^5+",9
"770",35697,1957,"mi","mi",1,9,"^3_^4_^5_^6_v5_v4_v3_v2_v1",1
"771",35697,774,"fa","fa",1,9,"^3_^4_^5_^6_v5_v4_v3_v2_v1",2
"772",35697,588,"mi","sol",0,9,"^3_^4_^5_^6_v5_v4_v3_v2_v1",3
"773",35697,3041,"la","la",1,9,"^3_^4_^5_^6_v5_v4_v3_v2_v1",4
"774",35697,600,"ti","sol",0,9,"^3_^4_^5_^6_v5_v4_v3_v2_v1",5
"775",35697,705,"sol","fa",0,9,"^3_^4_^5_^6_v5_v4_v3_v2_v1",6
"776",35697,1507,"fa","mi",0,9,"^3_^4_^5_^6_v5_v4_v3_v2_v1",7
"777",35697,727,"mi","re",0,9,"^3_^4_^5_^6_v5_v4_v3_v2_v1",8
"778",35697,1396,"fa","do",0,9,"^3_^4_^5_^6_v5_v4_v3_v2_v1",9
"779",35697,2991,"mi","re",0,9,"^2_^3_^4_^5_^6_v5_v4_v3_v2",1
"780",35697,732,"fa","mi",0,9,"^2_^3_^4_^5_^6_v5_v4_v3_v2",2
"781",35697,675,"sol","fa",0,9,"^2_^3_^4_^5_^6_v5_v4_v3_v2",3
"782",35697,610,"la","sol",0,9,"^2_^3_^4_^5_^6_v5_v4_v3_v2",4
"783",35697,558,"ti","la",0,9,"^2_^3_^4_^5_^6_v5_v4_v3_v2",5
"784",35697,548,"la","sol",0,9,"^2_^3_^4_^5_^6_v5_v4_v3_v2",6
"785",35697,753,"sol","fa",0,9,"^2_^3_^4_^5_^6_v5_v4_v3_v2",7
"786",35697,916,"fa","mi",0,9,"^2_^3_^4_^5_^6_v5_v4_v3_v2",8
"787",35697,849,"sol","re",0,9,"^2_^3_^4_^5_^6_v5_v4_v3_v2",9
"788",35697,1256,"ti","ti",1,9,"v7_v6_v5_^6_v5_v4_^5_^6_v5",1
"789",35697,706,"la","la",1,9,"v7_v6_v5_^6_v5_v4_^5_^6_v5",2
"790",35697,705,"sol","sol",1,9,"v7_v6_v5_^6_v5_v4_^5_^6_v5",3
"791",35697,1069,"la","la",1,9,"v7_v6_v5_^6_v5_v4_^5_^6_v5",4
"792",35697,583,"sol","sol",1,9,"v7_v6_v5_^6_v5_v4_^5_^6_v5",5
"793",35697,813,"fa","fa",1,9,"v7_v6_v5_^6_v5_v4_^5_^6_v5",6
"794",35697,1269,"sol","sol",1,9,"v7_v6_v5_^6_v5_v4_^5_^6_v5",7
"795",35697,509,"la","la",1,9,"v7_v6_v5_^6_v5_v4_^5_^6_v5",8
"796",35697,509,"sol","sol",1,9,"v7_v6_v5_^6_v5_v4_^5_^6_v5",9
"797",38531,2948.89999999577,"sol","sol",1,2,"v5_v1+",1
"798",38531,2126.70999999682,"ra","ra",1,2,"v5_v1+",2
"799",38531,795.140000001993,"re","re",1,2,"v2_v1",1
"800",38531,478.904999996303,"do","do",1,2,"v2_v1",2
"801",38531,1126.40500000271,"do","do",1,2,"^1_^2+",1
"802",38531,631.305000002729,"me","me",1,2,"^1_^2+",2
"803",38531,734.839999997406,"fa","fa",1,2,"v4_v3",1
"804",38531,430.399999997579,"mi","mi",1,2,"v4_v3",2
"805",38531,852.890000001877,"mi","mi",1,2,"v3_v2",1
"806",38531,590.96000000136,"re","re",1,2,"v3_v2",2
"807",38531,1147.74499999476,"sol","sol",1,2,"^5_^1+",1
"808",38531,1007.10499999695,"ra","ra",1,2,"^5_^1+",2
"809",38531,1853.62999999779,"re","re",1,2,"^2_v7-",1
"810",38531,10167.3249999948,"fa","te",0,2,"^2_v7-",2
"811",38531,2041.2500000021,"sol","ti",0,2,"v7_v3",1
"812",38531,924.609999994631,"do","mi",0,2,"v7_v3",2
"813",38531,816.95500000217,"me","mi",0,2,"^3_v4+",1
"814",38531,2238.32499999856,"fi","fi",1,2,"^3_v4+",2
"815",38531,2408.06000000157,"re","mi",0,2,"3_^6",1
"816",38531,2061.53500000085,"la","la",1,2,"3_^6",2
"817",38531,1496.95000000065,"re","re",1,3,"v2_v5_^3",1
"818",38531,7086.43999999913,"sol","sol",1,3,"v2_v5_^3",2
"819",38531,974.535000001313,"mi","mi",1,3,"v2_v5_^3",3
"820",38531,8441.59500000393,"sol","do",0,3,"v1_v7-_v7-",1
"821",38531,710.950000000536,"fa","te",0,3,"v1_v7-_v7-",2
"822",38531,414.740000000224,"fa","te",0,3,"v1_v7-_v7-",3
"823",38531,1026.58499999961,"mi","mi",1,3,"v3_v2_v1",1
"824",38531,630.774999997811,"re","re",1,3,"v3_v2_v1",2
"825",38531,558.034999994561,"do","do",1,3,"v3_v2_v1",3
"826",38531,978.519999996992,"fa","fa",1,3,"v4_v3_v2",1
"827",38531,454.234999997308,"mi","mi",1,3,"v4_v3_v2",2
"828",38531,711.210000001243,"re","re",1,3,"v4_v3_v2",3
"829",38531,873.885000000941,"do","do",1,3,"1_v1+_^2",1
"830",38531,454.699999994715,"ra","ra",1,3,"1_v1+_^2",2
"831",38531,670.400000002701,"re","re",1,3,"1_v1+_^2",3
"832",38531,880.505000000936,"do","do",1,3,"^1_v6_v5+",1
"833",38531,670.099999995786,"la","la",1,3,"^1_v6_v5+",2
"834",38531,438.294999999925,"le","le",1,3,"^1_v6_v5+",3
"835",38531,992.120000002556,"do","do",1,3,"v1_v7-_^7",1
"836",38531,574.36500000034,"te","te",1,3,"v1_v7-_^7",2
"837",38531,663.459999996121,"ti","ti",1,3,"v1_v7-_^7",3
"838",38531,919.345000002068,"sol","sol",1,3,"v5_v4_v3",1
"839",38531,551.265000001877,"fa","fa",1,3,"v5_v4_v3",2
"840",38531,366.935000005527,"mi","mi",1,3,"v5_v4_v3",3
"841",38531,2468.69500000321,"la","la",1,3,"6_^1_v5",1
"842",38531,727.340000004857,"do","do",1,3,"6_^1_v5",2
"843",38531,4678.5200000013,"sol","sol",1,3,"6_^1_v5",3
"844",38531,1043.33500000206,"la","la",1,5,"^6_v4_v3_^4_^5",1
"845",38531,1062.08500000497,"sol","fa",0,5,"^6_v4_v3_^4_^5",2
"846",38531,830.909999996889,"fa","mi",0,5,"^6_v4_v3_^4_^5",3
"847",38531,6830.77500000224,"fa","fa",1,5,"^6_v4_v3_^4_^5",4
"848",38531,734.705000002519,"sol","sol",1,5,"^6_v4_v3_^4_^5",5
"849",38531,841.629999995348,"sol","sol",1,5,"v5_v4_v3_v2_v1",1
"850",38531,614.704999999958,"fa","fa",1,5,"v5_v4_v3_v2_v1",2
"851",38531,486.475000005215,"mi","mi",1,5,"v5_v4_v3_v2_v1",3
"852",38531,559.845000003465,"re","re",1,5,"v5_v4_v3_v2_v1",4
"853",38531,526.41500000027,"do","do",1,5,"v5_v4_v3_v2_v1",5
"854",38531,900.680000006221,"re","re",1,5,"v2_2_^3_^4_v2",1
"855",38531,519.6350000042,"re","re",1,5,"v2_2_^3_^4_v2",2
"856",38531,1694.15000000305,"mi","mi",1,5,"v2_2_^3_^4_v2",3
"857",38531,1022.60999999999,"fa","fa",1,5,"v2_2_^3_^4_v2",4
"858",38531,1206.76499999536,"re","re",1,5,"v2_2_^3_^4_v2",5
"859",38531,923.580000002403,"sol","sol",1,5,"v5_v4_v3_v2_v1",6
"860",38531,537.465000001248,"fa","fa",1,5,"v5_v4_v3_v2_v1",7
"861",38531,452.505000001169,"mi","mi",1,5,"v5_v4_v3_v2_v1",8
"862",38531,631.500000003143,"re","re",1,5,"v5_v4_v3_v2_v1",9
"863",38531,550.799999997253,"do","do",1,5,"v5_v4_v3_v2_v1",10
"864",38531,7250.85500000569,"fi","fi",1,5,"v5-_v3_3_^4+_v3",1
"865",38531,598.94499999797,"mi","mi",1,5,"v5-_v3_3_^4+_v3",2
"866",38531,430.325000001234,"mi","mi",1,5,"v5-_v3_3_^4+_v3",3
"867",38531,519.124999998952,"fi","fi",1,5,"v5-_v3_3_^4+_v3",4
"868",38531,558.310000000405,"mi","mi",1,5,"v5-_v3_3_^4+_v3",5
"869",38531,974.014999999781,"sol","sol",1,5,"v5_^6+_^7_^1_5",1
"870",38531,718.720000004396,"la","te",0,5,"v5_^6+_^7_^1_5",2
"871",38531,622.350000005099,"ti","ti",1,5,"v5_^6+_^7_^1_5",3
"872",38531,590.694999999017,"do","do",1,5,"v5_^6+_^7_^1_5",4
"873",38531,735.030000003404,"sol","sol",1,5,"v5_^6+_^7_^1_5",5
"874",38531,1097.97499999683,"la","la",1,5,"^6_v5_v4_v3_v2",1
"875",38531,550.0400000019,"sol","sol",1,5,"^6_v5_v4_v3_v2",2
"876",38531,775.354999997886,"fa","fa",1,5,"^6_v5_v4_v3_v2",3
"877",38531,406.605000003823,"mi","mi",1,5,"^6_v5_v4_v3_v2",4
"878",38531,647.210000002757,"re","re",1,5,"^6_v5_v4_v3_v2",5
"879",38531,802.650000005146,"sol","sol",1,5,"^5_^6_v5_v4_v3",1
"880",38531,598.959999995772,"la","la",1,5,"^5_^6_v5_v4_v3",2
"881",38531,591.065000000526,"sol","sol",1,5,"^5_^6_v5_v4_v3",3
"882",38531,518.340000002296,"fa","fa",1,5,"^5_^6_v5_v4_v3",4
"883",38531,415.155000002473,"mi","mi",1,5,"^5_^6_v5_v4_v3",5
"884",38531,934.37499999709,"do","do",1,7,"1_^3_v1_^5_v3_v2_^3",1
"885",38531,1102.2799999991,"mi","mi",1,7,"1_^3_v1_^5_v3_v2_^3",2
"886",38531,951.025000002119,"do","do",1,7,"1_^3_v1_^5_v3_v2_^3",3
"887",38531,1367.40999999887,"mi","sol",0,7,"1_^3_v1_^5_v3_v2_^3",4
"888",38531,6134.66000000329,"fa","mi",0,7,"1_^3_v1_^5_v3_v2_^3",5
"889",38531,486.42000000109,"mi","re",0,7,"1_^3_v1_^5_v3_v2_^3",6
"890",38531,494.204999995418,"fa","mi",0,7,"1_^3_v1_^5_v3_v2_^3",7
"891",38531,1034.72000000323,"do","do",1,7,"v1_^2_v1_v7_^1_^3_v2",1
"892",38531,774.849999994389,"re","re",1,7,"v1_^2_v1_v7_^1_^3_v2",2
"893",38531,734.83500000299,"do","do",1,7,"v1_^2_v1_v7_^1_^3_v2",3
"894",38531,1086.28499999759,"ti","ti",1,7,"v1_^2_v1_v7_^1_^3_v2",4
"895",38531,903.474999999162,"do","do",1,7,"v1_^2_v1_v7_^1_^3_v2",5
"896",38531,4253.66499999654,"mi","mi",1,7,"v1_^2_v1_v7_^1_^3_v2",6
"897",38531,566.770000004908,"re","re",1,7,"v1_^2_v1_v7_^1_^3_v2",7
"898",38531,791.85499999579,"sol","sol",1,7,"^5_^6_v5_v4_v3_v2_v1",1
"899",38531,639.27500000142,"la","la",1,7,"^5_^6_v5_v4_v3_v2_v1",2
"900",38531,550.830000000075,"sol","sol",1,7,"^5_^6_v5_v4_v3_v2_v1",3
"901",38531,670.514999998035,"fa","fa",1,7,"^5_^6_v5_v4_v3_v2_v1",4
"902",38531,511.115000001155,"mi","mi",1,7,"^5_^6_v5_v4_v3_v2_v1",5
"903",38531,534.294999997597,"re","re",1,7,"^5_^6_v5_v4_v3_v2_v1",6
"904",38531,1071.46500000078,"do","do",1,7,"^5_^6_v5_v4_v3_v2_v1",7
"905",38531,4430.8699999965,"ra","fa",0,7,"^4_v6-_v5-_^6-_^4_v2-_2-",1
"906",38531,2126.91500000074,"la","le",0,7,"^4_v6-_v5-_^6-_^4_v2-_2-",2
"907",38531,414.29500000237,"le","fi",0,7,"^4_v6-_v5-_^6-_^4_v2-_2-",3
"908",38531,518.359999994515,"la","le",0,7,"^4_v6-_v5-_^6-_^4_v2-_2-",4
"909",38531,942.835000001709,"me","fa",0,7,"^4_v6-_v5-_^6-_^4_v2-_2-",5
"910",38531,1758.53500000085,"ra","ra",1,7,"^4_v6-_v5-_^6-_^4_v2-_2-",6
"911",38531,318.735000000685,"ra","ra",1,7,"^4_v6-_v5-_^6-_^4_v2-_2-",7
"912",38531,905.414999993751,"fa","fa",1,7,"^4_^5_^6_v5_v4_v3_v2",1
"913",38531,583.224999994738,"sol","sol",1,7,"^4_^5_^6_v5_v4_v3_v2",2
"914",38531,646.089999994729,"la","la",1,7,"^4_^5_^6_v5_v4_v3_v2",3
"915",38531,455.454999995767,"sol","sol",1,7,"^4_^5_^6_v5_v4_v3_v2",4
"916",38531,566.655000002356,"fa","fa",1,7,"^4_^5_^6_v5_v4_v3_v2",5
"917",38531,710.339999997756,"mi","mi",1,7,"^4_^5_^6_v5_v4_v3_v2",6
"918",38531,727.530000003753,"re","re",1,7,"^4_^5_^6_v5_v4_v3_v2",7
"919",38531,1429.43000000378,"la","la",1,7,"^6_v5+_v4_^5+_v3_v1_v7-",1
"920",38531,1276.87999999756,"sol","le",0,7,"^6_v5+_v4_^5+_v3_v1_v7-",2
"921",38531,1974.97000000288,"me","fa",0,7,"^6_v5+_v4_^5+_v3_v1_v7-",3
"922",38531,2407.18499999633,"fi","le",0,7,"^6_v5+_v4_^5+_v3_v1_v7-",4
"923",38531,3470.49500000139,"re","mi",0,7,"^6_v5+_v4_^5+_v3_v1_v7-",5
"924",38531,1549.90000000549,"do","do",1,7,"^6_v5+_v4_^5+_v3_v1_v7-",6
"925",38531,839.590000003343,"te","te",1,7,"^6_v5+_v4_^5+_v3_v1_v7-",7
"926",38531,823.420000000624,"do","do",1,7,"^1_v7_v6_v5_v4_v3_v2",1
"927",38531,454.069999999832,"ti","ti",1,7,"^1_v7_v6_v5_v4_v3_v2",2
"928",38531,519.534999999451,"la","la",1,7,"^1_v7_v6_v5_v4_v3_v2",3
"929",38531,607.174999997369,"sol","sol",1,7,"^1_v7_v6_v5_v4_v3_v2",4
"930",38531,782.894999996643,"fa","fa",1,7,"^1_v7_v6_v5_v4_v3_v2",5
"931",38531,438.985000000685,"mi","mi",1,7,"^1_v7_v6_v5_v4_v3_v2",6
"932",38531,598.149999998044,"re","re",1,7,"^1_v7_v6_v5_v4_v3_v2",7
"933",38531,1278.82500000112,"re","re",1,9,"^2_^3_^4_^5_^6_v5_v4_v3_v2",1
"934",38531,678.615000004182,"mi","mi",1,9,"^2_^3_^4_^5_^6_v5_v4_v3_v2",2
"935",38531,535.579999996116,"fa","fa",1,9,"^2_^3_^4_^5_^6_v5_v4_v3_v2",3
"936",38531,622.524999998743,"sol","sol",1,9,"^2_^3_^4_^5_^6_v5_v4_v3_v2",4
"937",38531,798.534999994328,"la","la",1,9,"^2_^3_^4_^5_^6_v5_v4_v3_v2",5
"938",38531,703.014999999199,"sol","sol",1,9,"^2_^3_^4_^5_^6_v5_v4_v3_v2",6
"939",38531,575.414999999339,"fa","fa",1,9,"^2_^3_^4_^5_^6_v5_v4_v3_v2",7
"940",38531,598.429999998305,"me","mi",0,9,"^2_^3_^4_^5_^6_v5_v4_v3_v2",8
"941",38531,1703.13000000175,"re","re",1,9,"^2_^3_^4_^5_^6_v5_v4_v3_v2",9
"942",38531,1408.32999999821,"fa","mi",0,9,"^3_^4_v2_v7_^1_^2_^3_3_^4",1
"943",38531,526.275000003865,"mi","fa",0,9,"^3_^4_v2_v7_^1_^2_^3_3_^4",2
"944",38531,575.284999998985,"re","re",1,9,"^3_^4_v2_v7_^1_^2_^3_3_^4",3
"945",38531,3758.25999999512,"ti","ti",1,9,"^3_^4_v2_v7_^1_^2_^3_3_^4",4
"946",38531,2351.09000000381,"do","do",1,9,"^3_^4_v2_v7_^1_^2_^3_3_^4",5
"947",38531,590.609999999171,"re","re",1,9,"^3_^4_v2_v7_^1_^2_^3_3_^4",6
"948",38531,502.534999999683,"mi","mi",1,9,"^3_^4_v2_v7_^1_^2_^3_3_^4",7
"949",38531,2262.82000000356,"fa","mi",0,9,"^3_^4_v2_v7_^1_^2_^3_3_^4",8
"950",38531,374.850000000093,"mi","fa",0,9,"^3_^4_v2_v7_^1_^2_^3_3_^4",9
"951",38531,1197.65500000375,"ti","ti",1,9,"v7_v6_v5_^6_v5_v4_^5_^6_v5",1
"952",38531,582.849999998696,"la","la",1,9,"v7_v6_v5_^6_v5_v4_^5_^6_v5",2
"953",38531,583.255000005011,"sol","sol",1,9,"v7_v6_v5_^6_v5_v4_^5_^6_v5",3
"954",38531,2662.06000000238,"la","la",1,9,"v7_v6_v5_^6_v5_v4_^5_^6_v5",4
"955",38531,831.344999998808,"sol","sol",1,9,"v7_v6_v5_^6_v5_v4_^5_^6_v5",5
"956",38531,766.289999999572,"fa","fa",1,9,"v7_v6_v5_^6_v5_v4_^5_^6_v5",6
"957",38531,495.385000001872,"sol","sol",1,9,"v7_v6_v5_^6_v5_v4_^5_^6_v5",7
"958",38531,518.114999998827,"la","la",1,9,"v7_v6_v5_^6_v5_v4_^5_^6_v5",8
"959",38531,462.979999996722,"sol","sol",1,9,"v7_v6_v5_^6_v5_v4_^5_^6_v5",9
"960",38531,922.930000000633,"sol","sol",1,9,"^5_^6_v5_v4_v3_v2_v1_^2_^3",1
"961",38531,567.364999995334,"la","la",1,9,"^5_^6_v5_v4_v3_v2_v1_^2_^3",2
"962",38531,510.100000006845,"sol","sol",1,9,"^5_^6_v5_v4_v3_v2_v1_^2_^3",3
"963",38531,855.544999998529,"fa","fa",1,9,"^5_^6_v5_v4_v3_v2_v1_^2_^3",4
"964",38531,606.234999999171,"mi","mi",1,9,"^5_^6_v5_v4_v3_v2_v1_^2_^3",5
"965",38531,2270.38500000327,"re","re",1,9,"^5_^6_v5_v4_v3_v2_v1_^2_^3",6
"966",38531,838.855000001844,"do","do",1,9,"^5_^6_v5_v4_v3_v2_v1_^2_^3",7
"967",38531,438.590000005206,"re","re",1,9,"^5_^6_v5_v4_v3_v2_v1_^2_^3",8
"968",38531,431.120000001043,"mi","mi",1,9,"^5_^6_v5_v4_v3_v2_v1_^2_^3",9
"969",38531,1221.74000000092,"mi","mi",1,9,"^3_^4_^5_^6_v5_v4_v3_v2_v1",1
"970",38531,487.000000000931,"fa","fa",1,9,"^3_^4_^5_^6_v5_v4_v3_v2_v1",2
"971",38531,559.929999995977,"sol","sol",1,9,"^3_^4_^5_^6_v5_v4_v3_v2_v1",3
"972",38531,533.804999999236,"la","la",1,9,"^3_^4_^5_^6_v5_v4_v3_v2_v1",4
"973",38531,470.959999998566,"sol","sol",1,9,"^3_^4_^5_^6_v5_v4_v3_v2_v1",5
"974",38531,719.02999999281,"fa","fa",1,9,"^3_^4_^5_^6_v5_v4_v3_v2_v1",6
"975",38531,446.729999996023,"mi","mi",1,9,"^3_^4_^5_^6_v5_v4_v3_v2_v1",7
"976",38531,566.97999999579,"re","re",1,9,"^3_^4_^5_^6_v5_v4_v3_v2_v1",8
"977",38531,870.560000003083,"do","do",1,9,"^3_^4_^5_^6_v5_v4_v3_v2_v1",9
"978",38531,1036.724999998,"sol","sol",1,9,"v5_v4_v6+_^7_^3+_v3_v2_v5_^4",1
"979",38531,694.320000002393,"fa","fa",1,9,"v5_v4_v6+_^7_^3+_v3_v2_v5_^4",2
"980",38531,2070.78000000189,"la","te",0,9,"v5_v4_v6+_^7_^3+_v3_v2_v5_^4",3
"981",38531,631.284999995725,"ti","ti",1,9,"v5_v4_v6+_^7_^3+_v3_v2_v5_^4",4
"982",38531,957.729999994626,"do","mi",0,9,"v5_v4_v6+_^7_^3+_v3_v2_v5_^4",5
"983",38531,1039.29999999679,"fi","mi",0,9,"v5_v4_v6+_^7_^3+_v3_v2_v5_^4",6
"984",38531,503.020000003744,"fa","re",0,9,"v5_v4_v6+_^7_^3+_v3_v2_v5_^4",7
"985",38531,2061.78999999957,"re","sol",0,9,"v5_v4_v6+_^7_^3+_v3_v2_v5_^4",8
"986",38531,655.050000001211,"mi","fa",0,9,"v5_v4_v6+_^7_^3+_v3_v2_v5_^4",9
"987",38531,2539.57999999681,"re","re",1,9,"^2_^4_v3_v2_v1_v3_v2+_^3_^5+",1
"988",38531,3334.19500000309,"mi","fa",0,9,"^2_^4_v3_v2_v1_v3_v2+_^3_^5+",2
"989",38531,1447.45500000147,"fa","mi",0,9,"^2_^4_v3_v2_v1_v3_v2+_^3_^5+",3
"990",38531,342.534999996191,"mi","re",0,9,"^2_^4_v3_v2_v1_v3_v2+_^3_^5+",4
"991",38531,863.019999996992,"do","do",1,9,"^2_^4_v3_v2_v1_v3_v2+_^3_^5+",5
"992",38531,646.229999998584,"fi","mi",0,9,"^2_^4_v3_v2_v1_v3_v2+_^3_^5+",6
"993",38531,623.285000001546,"sol","me",0,9,"^2_^4_v3_v2_v1_v3_v2+_^3_^5+",7
"994",38531,2670.83500000439,"mi","mi",1,9,"^2_^4_v3_v2_v1_v3_v2+_^3_^5+",8
"995",38531,925.974999998463,"la","le",0,9,"^2_^4_v3_v2_v1_v3_v2+_^3_^5+",9
"996",39534,1343.14999999874,"fa","fa",1,2,"v4_v3",1
"997",39534,622.830000000191,"mi","mi",1,2,"v4_v3",2
"998",39534,4025.95499999926,"do","sol",0,2,"v5_v1+",1
"999",39534,1903.11500000104,"ra","ra",1,2,"v5_v1+",2
"1000",39534,3189.98500000092,"re","re",1,2,"v2_v1",1
"1001",39534,495.240000000107,"do","do",1,2,"v2_v1",2
"1002",39534,4414.245,"te","ti",0,2,"v7_v3",1
"1003",39534,3574.58500000031,"mi","mi",1,2,"v7_v3",2
"1004",39534,1026.24000000104,"do","do",1,2,"^1_^2+",1
"1005",39534,1599.72999999998,"me","me",1,2,"^1_^2+",2
"1006",39534,3551.59499999892,"mi","mi",1,2,"3_^6",1
"1007",39534,638.950000000419,"la","la",1,2,"3_^6",2
"1008",39534,7738.47500000009,"re","re",1,2,"^2_v7-",1
"1009",39534,3998.82500000054,"le","te",0,2,"^2_v7-",2
"1010",39534,1381.94999999902,"mi","mi",1,2,"v3_v2",1
"1011",39534,686.970000000671,"re","re",1,2,"v3_v2",2
"1012",39534,5902.08999999962,"mi","mi",1,2,"^3_v4+",1
"1013",39534,486.864999998943,"fi","fi",1,2,"^3_v4+",2
"1014",39534,8451.1050000001,"re","sol",0,2,"^5_^1+",1
"1015",39534,678.439999999711,"le","ra",0,2,"^5_^1+",2
"1016",39534,2989.98000000033,"do","do",1,3,"1_v1+_^2",1
"1017",39534,623.579999999492,"ra","ra",1,3,"1_v1+_^2",2
"1018",39534,446.920000000275,"re","re",1,3,"1_v1+_^2",3
"1019",39534,1292.66500000085,"re","re",1,3,"v2_v5_^3",1
"1020",39534,3847.06000000006,"sol","sol",1,3,"v2_v5_^3",2
"1021",39534,1527.04499999888,"mi","mi",1,3,"v2_v5_^3",3
"1022",39534,14699.1999999991,"la","la",1,3,"6_^1_v5",1
"1023",39534,1406.27999999921,"do","do",1,3,"6_^1_v5",2
"1024",39534,622.945000000997,"sol","sol",1,3,"6_^1_v5",3
"1025",39534,1316.59499999834,"mi","mi",1,3,"v3_v2_v1",1
"1026",39534,494.660000000265,"re","re",1,3,"v3_v2_v1",2
"1027",39534,470.724999999162,"do","do",1,3,"v3_v2_v1",3
"1028",39534,14969.9300000011,"do","do",1,3,"v1_v7-_v7-",1
"1029",39534,422.609999999637,"te","te",1,3,"v1_v7-_v7-",2
"1030",39534,287.274999998743,"te","te",1,3,"v1_v7-_v7-",3
"1031",39534,4138.39000000001,"do","do",1,3,"v1_v7-_^7",1
"1032",39534,518.544999998994,"la","te",0,3,"v1_v7-_^7",2
"1033",39534,447.304999999702,"te","ti",0,3,"v1_v7-_^7",3
"1034",39534,2794.22999999952,"sol","sol",1,3,"v5_v4_v3",1
"1035",39534,550.685000000172,"fa","fa",1,3,"v5_v4_v3",2
"1036",39534,623.369999999297,"mi","mi",1,3,"v5_v4_v3",3
"1037",39534,2706.23499999964,"fa","fa",1,3,"v4_v3_v2",1
"1038",39534,737.665000000503,"mi","mi",1,3,"v4_v3_v2",2
"1039",39534,583.114999999525,"re","re",1,3,"v4_v3_v2",3
"1040",39534,16990.2600000005,"do","do",1,3,"^1_v6_v5+",1
"1041",39534,526.809999999357,"la","la",1,3,"^1_v6_v5+",2
"1042",39534,326.989999999641,"le","le",1,3,"^1_v6_v5+",3
"1043",39534,1311.00000000151,"sol","sol",1,5,"v5_^6+_^7_^1_5",1
"1044",39534,607.350000000326,"la","te",0,5,"v5_^6+_^7_^1_5",2
"1045",39534,566.189999999595,"ti","ti",1,5,"v5_^6+_^7_^1_5",3
"1046",39534,519.345000000554,"do","do",1,5,"v5_^6+_^7_^1_5",4
"1047",39534,575.179999999818,"sol","sol",1,5,"v5_^6+_^7_^1_5",5
"1048",39534,1586.39000000048,"sol","sol",1,5,"v5_v4_v3_v2_v1",1
"1049",39534,551.109999998473,"fa","fa",1,5,"v5_v4_v3_v2_v1",2
"1050",39534,511.234999999986,"mi","mi",1,5,"v5_v4_v3_v2_v1",3
"1051",39534,431.179999999586,"re","re",1,5,"v5_v4_v3_v2_v1",4
"1052",39534,551.140000001295,"do","do",1,5,"v5_v4_v3_v2_v1",5
"1053",39534,1819.27999999968,"la","la",1,5,"^6_v5_v4_v3_v2",1
"1054",39534,566.940000000643,"sol","sol",1,5,"^6_v5_v4_v3_v2",2
"1055",39534,567.139999999199,"fa","fa",1,5,"^6_v5_v4_v3_v2",3
"1056",39534,407.329999999958,"mi","mi",1,5,"^6_v5_v4_v3_v2",4
"1057",39534,519.355000000331,"re","re",1,5,"^6_v5_v4_v3_v2",5
"1058",39534,5614.45500000089,"sol","la",0,5,"^6_v4_v3_^4_^5",1
"1059",39534,535.149999999674,"mi","fa",0,5,"^6_v4_v3_^4_^5",2
"1060",39534,1679.26999999874,"re","mi",0,5,"^6_v4_v3_^4_^5",3
"1061",39534,472.429999999818,"mi","fa",0,5,"^6_v4_v3_^4_^5",4
"1062",39534,326.065000001108,"fa","sol",0,5,"^6_v4_v3_^4_^5",5
"1063",39534,1282.33000000007,"sol","sol",1,5,"v5_v4_v3_v2_v1",6
"1064",39534,519.189999999013,"fa","fa",1,5,"v5_v4_v3_v2_v1",7
"1065",39534,407.225000000792,"mi","mi",1,5,"v5_v4_v3_v2_v1",8
"1066",39534,591.135000000591,"re","re",1,5,"v5_v4_v3_v2_v1",9
"1067",39534,431.375000000116,"do","do",1,5,"v5_v4_v3_v2_v1",10
"1068",39534,2962.29999999923,"re","re",1,5,"v2_2_^3_^4_v2",1
"1069",39534,486.935000000871,"re","re",1,5,"v2_2_^3_^4_v2",2
"1070",39534,623.559999999939,"mi","mi",1,5,"v2_2_^3_^4_v2",3
"1071",39534,455.205000000191,"fa","fa",1,5,"v2_2_^3_^4_v2",4
"1072",39534,959.110000001499,"re","re",1,5,"v2_2_^3_^4_v2",5
"1073",39534,3887.0299999998,"sol","sol",1,5,"^5_^6_v5_v4_v3",1
"1074",39534,727.345000001136,"la","la",1,5,"^5_^6_v5_v4_v3",2
"1075",39534,711.40000000014,"sol","sol",1,5,"^5_^6_v5_v4_v3",3
"1076",39534,463.485000000219,"fa","fa",1,5,"^5_^6_v5_v4_v3",4
"1077",39534,382.8400000002,"mi","mi",1,5,"^5_^6_v5_v4_v3",5
"1078",39534,7439.35500000033,"fi","fi",1,5,"v5-_v3_3_^4+_v3",1
"1079",39534,671.159999999916,"mi","mi",1,5,"v5-_v3_3_^4+_v3",2
"1080",39534,367.154999999795,"mi","mi",1,5,"v5-_v3_3_^4+_v3",3
"1081",39534,423.395000001648,"fi","fi",1,5,"v5-_v3_3_^4+_v3",4
"1082",39534,399.310000000754,"mi","mi",1,5,"v5-_v3_3_^4+_v3",5
"1083",39534,1315.695000001,"do","do",1,7,"1_^3_v1_^5_v3_v2_^3",1
"1084",39534,5222.98500000034,"fa","mi",0,7,"1_^3_v1_^5_v3_v2_^3",2
"1085",39534,951.104999999981,"do","do",1,7,"1_^3_v1_^5_v3_v2_^3",3
"1086",39534,1143.18500000075,"sol","sol",1,7,"1_^3_v1_^5_v3_v2_^3",4
"1087",39534,735.239999999991,"fa","mi",0,7,"1_^3_v1_^5_v3_v2_^3",5
"1088",39534,495.235000000335,"mi","re",0,7,"1_^3_v1_^5_v3_v2_^3",6
"1089",39534,519.20500000054,"fa","mi",0,7,"1_^3_v1_^5_v3_v2_^3",7
"1090",39534,4430.53999999934,"te","la",0,7,"^6_v5+_v4_^5+_v3_v1_v7-",1
"1091",39534,1238.40999999992,"la","le",0,7,"^6_v5+_v4_^5+_v3_v1_v7-",2
"1092",39534,838.649999999674,"sol","fa",0,7,"^6_v5+_v4_^5+_v3_v1_v7-",3
"1093",39534,599.589999999851,"la","le",0,7,"^6_v5+_v4_^5+_v3_v1_v7-",4
"1094",39534,4119.21499999892,"fi","mi",0,7,"^6_v5+_v4_^5+_v3_v1_v7-",5
"1095",39534,630.755000000121,"me","do",0,7,"^6_v5+_v4_^5+_v3_v1_v7-",6
"1096",39534,495.234999998473,"re","te",0,7,"^6_v5+_v4_^5+_v3_v1_v7-",7
"1097",39534,8026.52499999944,"me","fa",0,7,"^4_v6-_v5-_^6-_^4_v2-_2-",1
"1098",39534,2271.07500000042,"te","le",0,7,"^4_v6-_v5-_^6-_^4_v2-_2-",2
"1099",39534,390.999999999767,"te","fi",0,7,"^4_v6-_v5-_^6-_^4_v2-_2-",3
"1100",39534,727.10999999987,"me","le",0,7,"^4_v6-_v5-_^6-_^4_v2-_2-",4
"1101",39534,1823.58499999996,"ra","fa",0,7,"^4_v6-_v5-_^6-_^4_v2-_2-",5
"1102",39534,2271.22000000067,"te","ra",0,7,"^4_v6-_v5-_^6-_^4_v2-_2-",6
"1103",39534,551.185000000289,"ti","ra",0,7,"^4_v6-_v5-_^6-_^4_v2-_2-",7
"1104",39534,3974.23999999953,"fa","fa",1,7,"^4_^5_^6_v5_v4_v3_v2",1
"1105",39534,639.159999998752,"sol","sol",1,7,"^4_^5_^6_v5_v4_v3_v2",2
"1106",39534,982.860000000102,"la","la",1,7,"^4_^5_^6_v5_v4_v3_v2",3
"1107",39534,422.945000000298,"sol","sol",1,7,"^4_^5_^6_v5_v4_v3_v2",4
"1108",39534,478.880000000587,"fa","fa",1,7,"^4_^5_^6_v5_v4_v3_v2",5
"1109",39534,439.254999999423,"mi","mi",1,7,"^4_^5_^6_v5_v4_v3_v2",6
"1110",39534,527.054999998538,"re","re",1,7,"^4_^5_^6_v5_v4_v3_v2",7
"1111",39534,935.600000000792,"do","do",1,7,"v1_^2_v1_v7_^1_^3_v2",1
"1112",39534,447.039999999106,"re","re",1,7,"v1_^2_v1_v7_^1_^3_v2",2
"1113",39534,487.184999999823,"do","do",1,7,"v1_^2_v1_v7_^1_^3_v2",3
"1114",39534,1136.52000000002,"ti","ti",1,7,"v1_^2_v1_v7_^1_^3_v2",4
"1115",39534,821.909999998752,"do","do",1,7,"v1_^2_v1_v7_^1_^3_v2",5
"1116",39534,5919.48000000045,"mi","mi",1,7,"v1_^2_v1_v7_^1_^3_v2",6
"1117",39534,518.974999999162,"re","re",1,7,"v1_^2_v1_v7_^1_^3_v2",7
"1118",39534,1174.23499999847,"do","do",1,7,"^1_v7_v6_v5_v4_v3_v2",1
"1119",39534,430.934999998426,"ti","ti",1,7,"^1_v7_v6_v5_v4_v3_v2",2
"1120",39534,479.339999999851,"la","la",1,7,"^1_v7_v6_v5_v4_v3_v2",3
"1121",39534,496.260000000009,"sol","sol",1,7,"^1_v7_v6_v5_v4_v3_v2",4
"1122",39534,686.474999998696,"fa","fa",1,7,"^1_v7_v6_v5_v4_v3_v2",5
"1123",39534,1055.02999999956,"mi","mi",1,7,"^1_v7_v6_v5_v4_v3_v2",6
"1124",39534,527.190000000643,"re","re",1,7,"^1_v7_v6_v5_v4_v3_v2",7
"1125",39534,1526.81500000111,"sol","sol",1,7,"^5_^6_v5_v4_v3_v2_v1",1
"1126",39534,743.105000001378,"la","la",1,7,"^5_^6_v5_v4_v3_v2_v1",2
"1127",39534,631.289999999339,"sol","sol",1,7,"^5_^6_v5_v4_v3_v2_v1",3
"1128",39534,479.284999999451,"fa","fa",1,7,"^5_^6_v5_v4_v3_v2_v1",4
"1129",39534,318.934999999357,"mi","mi",1,7,"^5_^6_v5_v4_v3_v2_v1",5
"1130",39534,503.455000000075,"re","re",1,7,"^5_^6_v5_v4_v3_v2_v1",6
"1131",39534,471.354999999516,"do","do",1,7,"^5_^6_v5_v4_v3_v2_v1",7
"1132",39534,4563.0700000003,"re","re",1,9,"^2_^3_^4_^5_^6_v5_v4_v3_v2",1
"1133",39534,902.934999998193,"mi","mi",1,9,"^2_^3_^4_^5_^6_v5_v4_v3_v2",2
"1134",39534,407.189999999711,"fa","fa",1,9,"^2_^3_^4_^5_^6_v5_v4_v3_v2",3
"1135",39534,471.359999999637,"sol","sol",1,9,"^2_^3_^4_^5_^6_v5_v4_v3_v2",4
"1136",39534,479.289999999339,"la","la",1,9,"^2_^3_^4_^5_^6_v5_v4_v3_v2",5
"1137",39534,479.090000000782,"sol","sol",1,9,"^2_^3_^4_^5_^6_v5_v4_v3_v2",6
"1138",39534,479.330000000075,"fa","fa",1,9,"^2_^3_^4_^5_^6_v5_v4_v3_v2",7
"1139",39534,439.215000000317,"mi","mi",1,9,"^2_^3_^4_^5_^6_v5_v4_v3_v2",8
"1140",39534,463.155000001192,"re","re",1,9,"^2_^3_^4_^5_^6_v5_v4_v3_v2",9
"1141",39534,1153.77500000061,"re","re",1,9,"^2_^4_v3_v2_v1_v3_v2+_^3_^5+",1
"1142",39534,542.405000000261,"fa","fa",1,9,"^2_^4_v3_v2_v1_v3_v2+_^3_^5+",2
"1143",39534,511.01500000013,"mi","mi",1,9,"^2_^4_v3_v2_v1_v3_v2+_^3_^5+",3
"1144",39534,463.579999999609,"re","re",1,9,"^2_^4_v3_v2_v1_v3_v2+_^3_^5+",4
"1145",39534,550.790000001201,"do","do",1,9,"^2_^4_v3_v2_v1_v3_v2+_^3_^5+",5
"1146",39534,510.970000001136,"me","mi",0,9,"^2_^4_v3_v2_v1_v3_v2+_^3_^5+",6
"1147",39534,1231.23500000103,"re","me",0,9,"^2_^4_v3_v2_v1_v3_v2+_^3_^5+",7
"1148",39534,6735.28500000061,"sol","mi",0,9,"^2_^4_v3_v2_v1_v3_v2+_^3_^5+",8
"1149",39534,3278.91499999887,"sol","le",0,9,"^2_^4_v3_v2_v1_v3_v2+_^3_^5+",9
"1150",39534,946.41500000027,"sol","sol",1,9,"v5_v4_v6+_^7_^3+_v3_v2_v5_^4",1
"1151",39534,623.780000000028,"fa","fa",1,9,"v5_v4_v6+_^7_^3+_v3_v2_v5_^4",2
"1152",39534,1550.53500000038,"ti","te",0,9,"v5_v4_v6+_^7_^3+_v3_v2_v5_^4",3
"1153",39534,1119.32499999949,"do","ti",0,9,"v5_v4_v6+_^7_^3+_v3_v2_v5_^4",4
"1154",39534,1551.25000000047,"me","mi",0,9,"v5_v4_v6+_^7_^3+_v3_v2_v5_^4",5
"1155",39534,551.35000000149,"re","mi",0,9,"v5_v4_v6+_^7_^3+_v3_v2_v5_^4",6
"1156",39534,1063.21000000043,"le","re",0,9,"v5_v4_v6+_^7_^3+_v3_v2_v5_^4",7
"1157",39534,631.594999999041,"la","sol",0,9,"v5_v4_v6+_^7_^3+_v3_v2_v5_^4",8
"1158",39534,2750.59500000137,"te","fa",0,9,"v5_v4_v6+_^7_^3+_v3_v2_v5_^4",9
"1159",39534,1398.25500000012,"mi","mi",1,9,"^3_^4_^5_^6_v5_v4_v3_v2_v1",1
"1160",39534,455.105000000913,"fa","fa",1,9,"^3_^4_^5_^6_v5_v4_v3_v2_v1",2
"1161",39534,1151.29999999958,"sol","sol",1,9,"^3_^4_^5_^6_v5_v4_v3_v2_v1",3
"1162",39534,486.414999999339,"la","la",1,9,"^3_^4_^5_^6_v5_v4_v3_v2_v1",4
"1163",39534,471.074999999488,"sol","sol",1,9,"^3_^4_^5_^6_v5_v4_v3_v2_v1",5
"1164",39534,390.930000001332,"fa","fa",1,9,"^3_^4_^5_^6_v5_v4_v3_v2_v1",6
"1165",39534,391.27500000177,"mi","mi",1,9,"^3_^4_^5_^6_v5_v4_v3_v2_v1",7
"1166",39534,366.990000000456,"re","re",1,9,"^3_^4_^5_^6_v5_v4_v3_v2_v1",8
"1167",39534,543.560000000056,"do","do",1,9,"^3_^4_^5_^6_v5_v4_v3_v2_v1",9
"1168",39534,8422.12500000093,"la","ti",0,9,"v7_v6_v5_^6_v5_v4_^5_^6_v5",1
"1169",39534,389.009999998845,"sol","la",0,9,"v7_v6_v5_^6_v5_v4_^5_^6_v5",2
"1170",39534,495.165000000503,"fa","sol",0,9,"v7_v6_v5_^6_v5_v4_^5_^6_v5",3
"1171",39534,383.35999999987,"sol","la",0,9,"v7_v6_v5_^6_v5_v4_^5_^6_v5",4
"1172",39534,343.50500000082,"fa","sol",0,9,"v7_v6_v5_^6_v5_v4_^5_^6_v5",5
"1173",39534,350.719999998575,"mi","fa",0,9,"v7_v6_v5_^6_v5_v4_^5_^6_v5",6
"1174",39534,303.400000000838,"fa","sol",0,9,"v7_v6_v5_^6_v5_v4_^5_^6_v5",7
"1175",39534,415.219999998808,"sol","la",0,9,"v7_v6_v5_^6_v5_v4_^5_^6_v5",8
"1176",39534,359.090000000084,"la","sol",0,9,"v7_v6_v5_^6_v5_v4_^5_^6_v5",9
"1177",39534,1614.75999999838,"mi","mi",1,9,"^3_^4_v2_v7_^1_^2_^3_3_^4",1
"1178",39534,527.169999999227,"fa","fa",1,9,"^3_^4_v2_v7_^1_^2_^3_3_^4",2
"1179",39534,511.265000000829,"mi","re",0,9,"^3_^4_v2_v7_^1_^2_^3_3_^4",3
"1180",39534,1183.16000000061,"re","ti",0,9,"^3_^4_v2_v7_^1_^2_^3_3_^4",4
"1181",39534,4864.10500000068,"ti","do",0,9,"^3_^4_v2_v7_^1_^2_^3_3_^4",5
"1182",39534,382.059999999823,"ti","re",0,9,"^3_^4_v2_v7_^1_^2_^3_3_^4",6
"1183",39534,663.610000001267,"do","mi",0,9,"^3_^4_v2_v7_^1_^2_^3_3_^4",7
"1184",39534,1599.0149999999,"mi","mi",1,9,"^3_^4_v2_v7_^1_^2_^3_3_^4",8
"1185",39534,1327.18000000017,"mi","fa",0,9,"^3_^4_v2_v7_^1_^2_^3_3_^4",9
"1186",39534,2555.81499999971,"sol","sol",1,9,"^5_^6_v5_v4_v3_v2_v1_^2_^3",1
"1187",39534,983.109999999171,"la","la",1,9,"^5_^6_v5_v4_v3_v2_v1_^2_^3",2
"1188",39534,719.124999999767,"sol","sol",1,9,"^5_^6_v5_v4_v3_v2_v1_^2_^3",3
"1189",39534,439.11999999918,"fa","fa",1,9,"^5_^6_v5_v4_v3_v2_v1_^2_^3",4
"1190",39534,423.034999999916,"mi","mi",1,9,"^5_^6_v5_v4_v3_v2_v1_^2_^3",5
"1191",39534,503.160000000382,"re","re",1,9,"^5_^6_v5_v4_v3_v2_v1_^2_^3",6
"1192",39534,439.06500000041,"do","do",1,9,"^5_^6_v5_v4_v3_v2_v1_^2_^3",7
"1193",39534,527.640000000363,"re","re",1,9,"^5_^6_v5_v4_v3_v2_v1_^2_^3",8
"1194",39534,495.419999999227,"mi","mi",1,9,"^5_^6_v5_v4_v3_v2_v1_^2_^3",9
"1195",4004,7805,"mi","mi",1,2,"v3_v2",1
"1196",4004,1965,"re","re",1,2,"v3_v2",2
"1197",4004,1554,"re","re",1,2,"v2_v1",1
"1198",4004,1136,"do","do",1,2,"v2_v1",2
"1199",4004,3349,"re","re",1,2,"^2_v7-",1
"1200",4004,1044,"te","te",1,2,"^2_v7-",2
"1201",4004,1242,"la","mi",0,2,"3_^6",1
"1202",4004,1158,"do","la",0,2,"3_^6",2
"1203",4004,6591,"fi","sol",0,2,"v5_v1+",1
"1204",4004,1741,"ra","ra",1,2,"v5_v1+",2
"1205",4004,7819,"la","sol",0,2,"^5_^1+",1
"1206",4004,5778,"mi","ra",0,2,"^5_^1+",2
"1207",4004,11754,"re","mi",0,2,"^3_v4+",1
"1208",4004,714,"fa","fi",0,2,"^3_v4+",2
"1209",4004,9516,"le","ti",0,2,"v7_v3",1
"1210",4004,765,"fa","mi",0,2,"v7_v3",2
"1211",4004,10785,"ti","do",0,2,"^1_^2+",1
"1212",4004,3114,"me","me",1,2,"^1_^2+",2
"1213",4004,4538,"fa","fa",1,2,"v4_v3",1
"1214",4004,702,"mi","mi",1,2,"v4_v3",2
"1215",4004,3119,"mi","mi",1,3,"v3_v2_v1",1
"1216",4004,1034,"re","re",1,3,"v3_v2_v1",2
"1217",4004,949,"do","do",1,3,"v3_v2_v1",3
"1218",4004,7840,"sol","do",0,3,"^1_v6_v5+",1
"1219",4004,629,"fi","la",0,3,"^1_v6_v5+",2
"1220",4004,1865,"mi","le",0,3,"^1_v6_v5+",3
"1221",4004,8920,"le","do",0,3,"v1_v7-_^7",1
"1222",4004,602,"fi","te",0,3,"v1_v7-_^7",2
"1223",4004,563,"sol","ti",0,3,"v1_v7-_^7",3
"1224",4004,2746,"fa","fa",1,3,"v4_v3_v2",1
"1225",4004,480,"mi","mi",1,3,"v4_v3_v2",2
"1226",4004,600,"re","re",1,3,"v4_v3_v2",3
"1227",4004,5187,"sol","sol",1,3,"v5_v4_v3",1
"1228",4004,711,"fa","fa",1,3,"v5_v4_v3",2
"1229",4004,1062,"mi","mi",1,3,"v5_v4_v3",3
"1230",4004,6994,"do","do",1,3,"v1_v7-_v7-",1
"1231",4004,2383,"te","te",1,3,"v1_v7-_v7-",2
"1232",4004,551,"te","te",1,3,"v1_v7-_v7-",3
"1233",4004,7257,"re","re",1,3,"v2_v5_^3",1
"1234",4004,3696,"sol","sol",1,3,"v2_v5_^3",2
"1235",4004,4093,"mi","mi",1,3,"v2_v5_^3",3
"1236",4004,7457,"la","la",1,3,"6_^1_v5",1
"1237",4004,10174,"ti","do",0,3,"6_^1_v5",2
"1238",4004,1916,"sol","sol",1,3,"6_^1_v5",3
"1239",4004,3544,"ra","do",0,3,"1_v1+_^2",1
"1240",4004,825,"re","ra",0,3,"1_v1+_^2",2
"1241",4004,777,"me","re",0,3,"1_v1+_^2",3
"1242",4004,6791,"re","re",1,5,"v2_2_^3_^4_v2",1
"1243",4004,991,"re","re",1,5,"v2_2_^3_^4_v2",2
"1244",4004,11197,"mi","mi",1,5,"v2_2_^3_^4_v2",3
"1245",4004,3130,"fa","fa",1,5,"v2_2_^3_^4_v2",4
"1246",4004,634,"mi","re",0,5,"v2_2_^3_^4_v2",5
"1247",4004,1500,"sol","sol",1,5,"v5_v4_v3_v2_v1",1
"1248",4004,866,"fa","fa",1,5,"v5_v4_v3_v2_v1",2
"1249",4004,716,"mi","mi",1,5,"v5_v4_v3_v2_v1",3
"1250",4004,798,"re","re",1,5,"v5_v4_v3_v2_v1",4
"1251",4004,792,"do","do",1,5,"v5_v4_v3_v2_v1",5
"1252",4004,3028,"sol","sol",1,5,"v5_^6+_^7_^1_5",1
"1253",4004,789,"la","te",0,5,"v5_^6+_^7_^1_5",2
"1254",4004,712,"ti","ti",1,5,"v5_^6+_^7_^1_5",3
"1255",4004,958,"do","do",1,5,"v5_^6+_^7_^1_5",4
"1256",4004,3134,"sol","sol",1,5,"v5_^6+_^7_^1_5",5
"1257",4004,4882,"te","fi",0,5,"v5-_v3_3_^4+_v3",1
"1258",4004,4288,"le","mi",0,5,"v5-_v3_3_^4+_v3",2
"1259",4004,826,"le","mi",0,5,"v5-_v3_3_^4+_v3",3
"1260",4004,1389,"te","fi",0,5,"v5-_v3_3_^4+_v3",4
"1261",4004,1489,"la","mi",0,5,"v5-_v3_3_^4+_v3",5
"1262",4004,8757,"mi","la",0,5,"^6_v5_v4_v3_v2",1
"1263",4004,855,"re","sol",0,5,"^6_v5_v4_v3_v2",2
"1264",4004,696,"do","fa",0,5,"^6_v5_v4_v3_v2",3
"1265",4004,868,"ti","mi",0,5,"^6_v5_v4_v3_v2",4
"1266",4004,942,"la","re",0,5,"^6_v5_v4_v3_v2",5
"1267",4004,4370,"sol","sol",1,5,"^5_^6_v5_v4_v3",1
"1268",4004,1023,"la","la",1,5,"^5_^6_v5_v4_v3",2
"1269",4004,703,"sol","sol",1,5,"^5_^6_v5_v4_v3",3
"1270",4004,5483,"fa","fa",1,5,"^5_^6_v5_v4_v3",4
"1271",4004,1120,"mi","mi",1,5,"^5_^6_v5_v4_v3",5
"1272",4004,8707,"sol","sol",1,5,"v5_v4_v3_v2_v1",6
"1273",4004,593,"fa","fa",1,5,"v5_v4_v3_v2_v1",7
"1274",4004,906,"mi","mi",1,5,"v5_v4_v3_v2_v1",8
"1275",4004,646,"re","re",1,5,"v5_v4_v3_v2_v1",9
"1276",4004,501,"do","do",1,5,"v5_v4_v3_v2_v1",10
"1277",4004,8110,"sol","la",0,5,"^6_v4_v3_^4_^5",1
"1278",4004,4066,"mi","fa",0,5,"^6_v4_v3_^4_^5",2
"1279",4004,5213,"re","mi",0,5,"^6_v4_v3_^4_^5",3
"1280",4004,4404,"fa","fa",1,5,"^6_v4_v3_^4_^5",4
"1281",4004,3667,"sol","sol",1,5,"^6_v4_v3_^4_^5",5
"1282",4004,14293,"fi","la",0,7,"^6_v5+_v4_^5+_v3_v1_v7-",1
"1283",4004,5117,"me","le",0,7,"^6_v5+_v4_^5+_v3_v1_v7-",2
"1284",4004,554,"ra","fa",0,7,"^6_v5+_v4_^5+_v3_v1_v7-",3
"1285",4004,9354,"fi","le",0,7,"^6_v5+_v4_^5+_v3_v1_v7-",4
"1286",4004,951,"mi","mi",1,7,"^6_v5+_v4_^5+_v3_v1_v7-",5
"1287",4004,3573,"me","do",0,7,"^6_v5+_v4_^5+_v3_v1_v7-",6
"1288",4004,427,"re","te",0,7,"^6_v5+_v4_^5+_v3_v1_v7-",7
"1289",4004,8782,"fa","fa",1,7,"^4_v6-_v5-_^6-_^4_v2-_2-",1
"1290",4004,3260,"sol","le",0,7,"^4_v6-_v5-_^6-_^4_v2-_2-",2
"1291",4004,4846,"fa","fi",0,7,"^4_v6-_v5-_^6-_^4_v2-_2-",3
"1292",4004,592,"sol","le",0,7,"^4_v6-_v5-_^6-_^4_v2-_2-",4
"1293",4004,2614,"re","fa",0,7,"^4_v6-_v5-_^6-_^4_v2-_2-",5
"1294",4004,989,"do","ra",0,7,"^4_v6-_v5-_^6-_^4_v2-_2-",6
"1295",4004,1168,"do","ra",0,7,"^4_v6-_v5-_^6-_^4_v2-_2-",7
"1296",4004,1289,"do","do",1,7,"1_^3_v1_^5_v3_v2_^3",1
"1297",4004,566,"re","mi",0,7,"1_^3_v1_^5_v3_v2_^3",2
"1298",4004,644,"do","do",1,7,"1_^3_v1_^5_v3_v2_^3",3
"1299",4004,3394,"fa","sol",0,7,"1_^3_v1_^5_v3_v2_^3",4
"1300",4004,6732,"re","mi",0,7,"1_^3_v1_^5_v3_v2_^3",5
"1301",4004,16357,"mi","re",0,7,"1_^3_v1_^5_v3_v2_^3",6
"1302",4004,405,"fa","mi",0,7,"1_^3_v1_^5_v3_v2_^3",7
"1303",4004,1237,"do","do",1,7,"^1_v7_v6_v5_v4_v3_v2",1
"1304",4004,500,"ti","ti",1,7,"^1_v7_v6_v5_v4_v3_v2",2
"1305",4004,550,"la","la",1,7,"^1_v7_v6_v5_v4_v3_v2",3
"1306",4004,686,"sol","sol",1,7,"^1_v7_v6_v5_v4_v3_v2",4
"1307",4004,858,"fa","fa",1,7,"^1_v7_v6_v5_v4_v3_v2",5
"1308",4004,792,"me","mi",0,7,"^1_v7_v6_v5_v4_v3_v2",6
"1309",4004,819,"re","re",1,7,"^1_v7_v6_v5_v4_v3_v2",7
"1310",4004,1498,"do","do",1,7,"v1_^2_v1_v7_^1_^3_v2",1
"1311",4004,553,"re","re",1,7,"v1_^2_v1_v7_^1_^3_v2",2
"1312",4004,635,"do","do",1,7,"v1_^2_v1_v7_^1_^3_v2",3
"1313",4004,1795,"ti","ti",1,7,"v1_^2_v1_v7_^1_^3_v2",4
"1314",4004,6480,"do","do",1,7,"v1_^2_v1_v7_^1_^3_v2",5
"1315",4004,2907,"mi","mi",1,7,"v1_^2_v1_v7_^1_^3_v2",6
"1316",4004,1275,"do","re",0,7,"v1_^2_v1_v7_^1_^3_v2",7
"1317",4004,2947,"sol","sol",1,7,"^5_^6_v5_v4_v3_v2_v1",1
"1318",4004,2474,"la","la",1,7,"^5_^6_v5_v4_v3_v2_v1",2
"1319",4004,606,"sol","sol",1,7,"^5_^6_v5_v4_v3_v2_v1",3
"1320",4004,497,"fa","fa",1,7,"^5_^6_v5_v4_v3_v2_v1",4
"1321",4004,605,"mi","mi",1,7,"^5_^6_v5_v4_v3_v2_v1",5
"1322",4004,545,"re","re",1,7,"^5_^6_v5_v4_v3_v2_v1",6
"1323",4004,617,"do","do",1,7,"^5_^6_v5_v4_v3_v2_v1",7
"1324",4004,12684,"la","fa",0,7,"^4_^5_^6_v5_v4_v3_v2",1
"1325",4004,691,"ti","sol",0,7,"^4_^5_^6_v5_v4_v3_v2",2
"1326",4004,421,"do","la",0,7,"^4_^5_^6_v5_v4_v3_v2",3
"1327",4004,723,"ti","sol",0,7,"^4_^5_^6_v5_v4_v3_v2",4
"1328",4004,469,"la","fa",0,7,"^4_^5_^6_v5_v4_v3_v2",5
"1329",4004,568,"sol","mi",0,7,"^4_^5_^6_v5_v4_v3_v2",6
"1330",4004,411,"fa","re",0,7,"^4_^5_^6_v5_v4_v3_v2",7
"1331",4004,6759,"le","sol",0,9,"v5_v4_v6+_^7_^3+_v3_v2_v5_^4",1
"1332",4004,583,"sol","fa",0,9,"v5_v4_v6+_^7_^3+_v3_v2_v5_^4",2
"1333",4004,1792,"mi","te",0,9,"v5_v4_v6+_^7_^3+_v3_v2_v5_^4",3
"1334",4004,444,"fa","ti",0,9,"v5_v4_v6+_^7_^3+_v3_v2_v5_^4",4
"1335",4004,3741,"sol","mi",0,9,"v5_v4_v6+_^7_^3+_v3_v2_v5_^4",5
"1336",4004,425,"fi","mi",0,9,"v5_v4_v6+_^7_^3+_v3_v2_v5_^4",6
"1337",4004,652,"fa","re",0,9,"v5_v4_v6+_^7_^3+_v3_v2_v5_^4",7
"1338",4004,3935,"ra","sol",0,9,"v5_v4_v6+_^7_^3+_v3_v2_v5_^4",8
"1339",4004,1829,"re","fa",0,9,"v5_v4_v6+_^7_^3+_v3_v2_v5_^4",9
"1340",4004,21498,"sol","sol",1,9,"^5_^6_v5_v4_v3_v2_v1_^2_^3",1
"1341",4004,9864,"sol","la",0,9,"^5_^6_v5_v4_v3_v2_v1_^2_^3",2
"1342",4004,531,"fa","sol",0,9,"^5_^6_v5_v4_v3_v2_v1_^2_^3",3
"1343",4004,1045,"me","fa",0,9,"^5_^6_v5_v4_v3_v2_v1_^2_^3",4
"1344",4004,1541,"re","mi",0,9,"^5_^6_v5_v4_v3_v2_v1_^2_^3",5
"1345",4004,618,"do","re",0,9,"^5_^6_v5_v4_v3_v2_v1_^2_^3",6
"1346",4004,15759,"mi","do",0,9,"^5_^6_v5_v4_v3_v2_v1_^2_^3",7
"1347",4004,739,"fa","re",0,9,"^5_^6_v5_v4_v3_v2_v1_^2_^3",8
"1348",4004,339,"sol","mi",0,9,"^5_^6_v5_v4_v3_v2_v1_^2_^3",9
"1349",4004,6915,"re","mi",0,9,"^3_^4_v2_v7_^1_^2_^3_3_^4",1
"1350",4004,3912,"mi","fa",0,9,"^3_^4_v2_v7_^1_^2_^3_3_^4",2
"1351",4004,1543,"re","re",1,9,"^3_^4_v2_v7_^1_^2_^3_3_^4",3
"1352",4004,732,"do","ti",0,9,"^3_^4_v2_v7_^1_^2_^3_3_^4",4
"1353",4004,7950,"re","do",0,9,"^3_^4_v2_v7_^1_^2_^3_3_^4",5
"1354",4004,581,"mi","re",0,9,"^3_^4_v2_v7_^1_^2_^3_3_^4",6
"1355",4004,1663,"re","mi",0,9,"^3_^4_v2_v7_^1_^2_^3_3_^4",7
"1356",4004,564,"mi","mi",1,9,"^3_^4_v2_v7_^1_^2_^3_3_^4",8
"1357",4004,522,"fa","fa",1,9,"^3_^4_v2_v7_^1_^2_^3_3_^4",9
"1358",4004,2867,"ti","ti",1,9,"v7_v6_v5_^6_v5_v4_^5_^6_v5",1
"1359",4004,1042,"la","la",1,9,"v7_v6_v5_^6_v5_v4_^5_^6_v5",2
"1360",4004,3184,"sol","sol",1,9,"v7_v6_v5_^6_v5_v4_^5_^6_v5",3
"1361",4004,1215,"la","la",1,9,"v7_v6_v5_^6_v5_v4_^5_^6_v5",4
"1362",4004,2064,"sol","sol",1,9,"v7_v6_v5_^6_v5_v4_^5_^6_v5",5
"1363",4004,3817,"la","fa",0,9,"v7_v6_v5_^6_v5_v4_^5_^6_v5",6
"1364",4004,6057,"mi","sol",0,9,"v7_v6_v5_^6_v5_v4_^5_^6_v5",7
"1365",4004,383,"fa","la",0,9,"v7_v6_v5_^6_v5_v4_^5_^6_v5",8
"1366",4004,733,"sol","sol",1,9,"v7_v6_v5_^6_v5_v4_^5_^6_v5",9
"1367",4004,15434,"la","re",0,9,"^2_^3_^4_^5_^6_v5_v4_v3_v2",1
"1368",4004,704,"te","mi",0,9,"^2_^3_^4_^5_^6_v5_v4_v3_v2",2
"1369",4004,778,"do","fa",0,9,"^2_^3_^4_^5_^6_v5_v4_v3_v2",3
"1370",4004,4464,"re","sol",0,9,"^2_^3_^4_^5_^6_v5_v4_v3_v2",4
"1371",4004,633,"mi","la",0,9,"^2_^3_^4_^5_^6_v5_v4_v3_v2",5
"1372",4004,488,"re","sol",0,9,"^2_^3_^4_^5_^6_v5_v4_v3_v2",6
"1373",4004,483,"do","fa",0,9,"^2_^3_^4_^5_^6_v5_v4_v3_v2",7
"1374",4004,2676,"te","mi",0,9,"^2_^3_^4_^5_^6_v5_v4_v3_v2",8
"1375",4004,480,"la","re",0,9,"^2_^3_^4_^5_^6_v5_v4_v3_v2",9
"1376",4004,18778,"do","re",0,9,"^2_^4_v3_v2_v1_v3_v2+_^3_^5+",1
"1377",4004,3288,"mi","fa",0,9,"^2_^4_v3_v2_v1_v3_v2+_^3_^5+",2
"1378",4004,587,"fa","mi",0,9,"^2_^4_v3_v2_v1_v3_v2+_^3_^5+",3
"1379",4004,588,"mi","re",0,9,"^2_^4_v3_v2_v1_v3_v2+_^3_^5+",4
"1380",4004,3920,"re","do",0,9,"^2_^4_v3_v2_v1_v3_v2+_^3_^5+",5
"1381",4004,884,"fi","mi",0,9,"^2_^4_v3_v2_v1_v3_v2+_^3_^5+",6
"1382",4004,12147,"me","me",1,9,"^2_^4_v3_v2_v1_v3_v2+_^3_^5+",7
"1383",4004,487,"fa","mi",0,9,"^2_^4_v3_v2_v1_v3_v2+_^3_^5+",8
"1384",4004,618,"fi","le",0,9,"^2_^4_v3_v2_v1_v3_v2+_^3_^5+",9
"1385",4004,1634,"do","mi",0,9,"^3_^4_^5_^6_v5_v4_v3_v2_v1",1
"1386",4004,561,"re","fa",0,9,"^3_^4_^5_^6_v5_v4_v3_v2_v1",2
"1387",4004,628,"mi","sol",0,9,"^3_^4_^5_^6_v5_v4_v3_v2_v1",3
"1388",4004,1118,"fa","la",0,9,"^3_^4_^5_^6_v5_v4_v3_v2_v1",4
"1389",4004,506,"mi","sol",0,9,"^3_^4_^5_^6_v5_v4_v3_v2_v1",5
"1390",4004,588,"re","fa",0,9,"^3_^4_^5_^6_v5_v4_v3_v2_v1",6
"1391",4004,1012,"do","mi",0,9,"^3_^4_^5_^6_v5_v4_v3_v2_v1",7
"1392",4004,2929,"ti","re",0,9,"^3_^4_^5_^6_v5_v4_v3_v2_v1",8
"1393",4004,1087,"do","do",1,9,"^3_^4_^5_^6_v5_v4_v3_v2_v1",9
"1394",43031,4047.46500000008,"ti","ti",1,2,"v7_v3",1
"1395",43031,2213.43000000028,"mi","mi",1,2,"v7_v3",2
"1396",43031,1580.755,"sol","sol",1,2,"^5_^1+",1
"1397",43031,2765.21000000008,"ra","ra",1,2,"^5_^1+",2
"1398",43031,1624.35499999998,"mi","mi",1,2,"3_^6",1
"1399",43031,762.005000000005,"la","la",1,2,"3_^6",2
"1400",43031,1137.44499999983,"do","do",1,2,"^1_^2+",1
"1401",43031,638.300000000047,"me","me",1,2,"^1_^2+",2
"1402",43031,1087.59000000008,"re","re",1,2,"v2_v1",1
"1403",43031,761.649999999907,"do","do",1,2,"v2_v1",2
"1404",43031,1506.98999999987,"fa","fa",1,2,"v4_v3",1
"1405",43031,424.799999999814,"mi","mi",1,2,"v4_v3",2
"1406",43031,1028.48000000045,"mi","mi",1,2,"^3_v4+",1
"1407",43031,594.904999999912,"fi","fi",1,2,"^3_v4+",2
"1408",43031,3392.33499999996,"re","re",1,2,"^2_v7-",1
"1409",43031,1256.87000000023,"te","te",1,2,"^2_v7-",2
"1410",43031,1371.6950000003,"sol","sol",1,2,"v5_v1+",1
"1411",43031,819.5,"ra","ra",1,2,"v5_v1+",2
"1412",43031,1571.73999999987,"mi","mi",1,2,"v3_v2",1
"1413",43031,625.970000000088,"re","re",1,2,"v3_v2",2
"1414",43031,1519.33000000007,"mi","mi",1,3,"v3_v2_v1",1
"1415",43031,628.299999999814,"re","re",1,3,"v3_v2_v1",2
"1416",43031,593.414999999804,"do","do",1,3,"v3_v2_v1",3
"1417",43031,1160.00499999977,"do","do",1,3,"v1_v7-_^7",1
"1418",43031,492.885000000126,"te","te",1,3,"v1_v7-_^7",2
"1419",43031,503.360000000219,"ti","ti",1,3,"v1_v7-_^7",3
"1420",43031,1049.43000000005,"do","do",1,3,"^1_v6_v5+",1
"1421",43031,897.085000000079,"la","la",1,3,"^1_v6_v5+",2
"1422",43031,402.499999999651,"le","le",1,3,"^1_v6_v5+",3
"1423",43031,1118.79000000004,"la","la",1,3,"6_^1_v5",1
"1424",43031,875.785000000149,"do","do",1,3,"6_^1_v5",2
"1425",43031,1323.33999999985,"sol","sol",1,3,"6_^1_v5",3
"1426",43031,1281.55500000005,"sol","sol",1,3,"v5_v4_v3",1
"1427",43031,515.385000000242,"fa","fa",1,3,"v5_v4_v3",2
"1428",43031,942.399999999907,"mi","mi",1,3,"v5_v4_v3",3
"1429",43031,1035.15500000003,"fa","fa",1,3,"v4_v3_v2",1
"1430",43031,514.3400000002,"mi","mi",1,3,"v4_v3_v2",2
"1431",43031,584.139999999898,"re","re",1,3,"v4_v3_v2",3
"1432",43031,1073.85999999999,"do","do",1,3,"1_v1+_^2",1
"1433",43031,447.595000000088,"ra","ra",1,3,"1_v1+_^2",2
"1434",43031,435.195000000065,"re","re",1,3,"1_v1+_^2",3
"1435",43031,1250.58499999973,"re","re",1,3,"v2_v5_^3",1
"1436",43031,920.595000000088,"sol","sol",1,3,"v2_v5_^3",2
"1437",43031,1053.79499999981,"mi","mi",1,3,"v2_v5_^3",3
"1438",43031,1143.74999999965,"do","do",1,3,"v1_v7-_v7-",1
"1439",43031,739.055000000051,"te","te",1,3,"v1_v7-_v7-",2
"1440",43031,570.364999999991,"te","te",1,3,"v1_v7-_v7-",3
"1441",43031,1226.22499999986,"sol","sol",1,5,"v5_v4_v3_v2_v1",1
"1442",43031,571.074999999837,"fa","fa",1,5,"v5_v4_v3_v2_v1",2
"1443",43031,482.504999999888,"mi","mi",1,5,"v5_v4_v3_v2_v1",3
"1444",43031,909.010000000242,"re","re",1,5,"v5_v4_v3_v2_v1",4
"1445",43031,740.135000000009,"do","do",1,5,"v5_v4_v3_v2_v1",5
"1446",43031,1264.69999999972,"sol","sol",1,5,"v5_v4_v3_v2_v1",6
"1447",43031,595.010000000009,"fa","fa",1,5,"v5_v4_v3_v2_v1",7
"1448",43031,526.045000000042,"mi","mi",1,5,"v5_v4_v3_v2_v1",8
"1449",43031,672.004999999888,"re","re",1,5,"v5_v4_v3_v2_v1",9
"1450",43031,604.660000000033,"do","do",1,5,"v5_v4_v3_v2_v1",10
"1451",43031,2175.33500000031,"la","la",1,5,"^6_v4_v3_^4_^5",1
"1452",43031,976.269999999669,"fa","fa",1,5,"^6_v4_v3_^4_^5",2
"1453",43031,469.364999999874,"mi","mi",1,5,"^6_v4_v3_^4_^5",3
"1454",43031,448.894999999902,"fa","fa",1,5,"^6_v4_v3_^4_^5",4
"1455",43031,526.419999999693,"sol","sol",1,5,"^6_v4_v3_^4_^5",5
"1456",43031,3322.61499999999,"fi","fi",1,5,"v5-_v3_3_^4+_v3",1
"1457",43031,628.07500000007,"mi","mi",1,5,"v5-_v3_3_^4+_v3",2
"1458",43031,412.365000000107,"mi","mi",1,5,"v5-_v3_3_^4+_v3",3
"1459",43031,538.035000000033,"fi","fi",1,5,"v5-_v3_3_^4+_v3",4
"1460",43031,616.684999999939,"mi","mi",1,5,"v5-_v3_3_^4+_v3",5
"1461",43031,2136.77499999991,"sol","sol",1,5,"v5_^6+_^7_^1_5",1
"1462",43031,627.800000000163,"la","te",0,5,"v5_^6+_^7_^1_5",2
"1463",43031,615.844999999739,"ti","ti",1,5,"v5_^6+_^7_^1_5",3
"1464",43031,515.754999999888,"do","do",1,5,"v5_^6+_^7_^1_5",4
"1465",43031,1089.06999999995,"sol","sol",1,5,"v5_^6+_^7_^1_5",5
"1466",43031,1686.73500000022,"sol","sol",1,5,"^5_^6_v5_v4_v3",1
"1467",43031,662.609999999404,"la","la",1,5,"^5_^6_v5_v4_v3",2
"1468",43031,514.779999999562,"sol","sol",1,5,"^5_^6_v5_v4_v3",3
"1469",43031,513.695000000531,"fa","fa",1,5,"^5_^6_v5_v4_v3",4
"1470",43031,447.400000000023,"mi","mi",1,5,"^5_^6_v5_v4_v3",5
"1471",43031,1993.87000000023,"re","re",1,5,"v2_2_^3_^4_v2",1
"1472",43031,526.735000000452,"re","re",1,5,"v2_2_^3_^4_v2",2
"1473",43031,627.954999999958,"mi","mi",1,5,"v2_2_^3_^4_v2",3
"1474",43031,470.459999999497,"fa","fa",1,5,"v2_2_^3_^4_v2",4
"1475",43031,828.570000000647,"re","re",1,5,"v2_2_^3_^4_v2",5
"1476",43031,1595.27999999956,"la","la",1,5,"^6_v5_v4_v3_v2",1
"1477",43031,547.915000000037,"sol","sol",1,5,"^6_v5_v4_v3_v2",2
"1478",43031,583.36500000034,"fa","fa",1,5,"^6_v5_v4_v3_v2",3
"1479",43031,469.224999999744,"mi","mi",1,5,"^6_v5_v4_v3_v2",4
"1480",43031,774.959999999846,"re","re",1,5,"^6_v5_v4_v3_v2",5
"1481",43031,1569.03499999945,"do","do",1,7,"v1_^2_v1_v7_^1_^3_v2",1
"1482",43031,571.565000000177,"re","re",1,7,"v1_^2_v1_v7_^1_^3_v2",2
"1483",43031,638.679999999935,"do","do",1,7,"v1_^2_v1_v7_^1_^3_v2",3
"1484",43031,1076.95000000042,"ti","ti",1,7,"v1_^2_v1_v7_^1_^3_v2",4
"1485",43031,1168.5699999996,"do","do",1,7,"v1_^2_v1_v7_^1_^3_v2",5
"1486",43031,1279.35500000068,"mi","mi",1,7,"v1_^2_v1_v7_^1_^3_v2",6
"1487",43031,546.344999999739,"re","re",1,7,"v1_^2_v1_v7_^1_^3_v2",7
"1488",43031,1168.56000000006,"do","do",1,7,"^1_v7_v6_v5_v4_v3_v2",1
"1489",43031,487.895000000251,"ti","ti",1,7,"^1_v7_v6_v5_v4_v3_v2",2
"1490",43031,559.355000000214,"la","la",1,7,"^1_v7_v6_v5_v4_v3_v2",3
"1491",43031,559.339999999851,"sol","sol",1,7,"^1_v7_v6_v5_v4_v3_v2",4
"1492",43031,583.714999999618,"fa","fa",1,7,"^1_v7_v6_v5_v4_v3_v2",5
"1493",43031,458.724999999627,"mi","mi",1,7,"^1_v7_v6_v5_v4_v3_v2",6
"1494",43031,919.364999999758,"re","re",1,7,"^1_v7_v6_v5_v4_v3_v2",7
"1495",43031,3109.97999999998,"fa","fa",1,7,"^4_v6-_v5-_^6-_^4_v2-_2-",1
"1496",43031,1066.41500000027,"le","le",1,7,"^4_v6-_v5-_^6-_^4_v2-_2-",2
"1497",43031,886.825000000419,"fi","fi",1,7,"^4_v6-_v5-_^6-_^4_v2-_2-",3
"1498",43031,790.415000000503,"le","le",1,7,"^4_v6-_v5-_^6-_^4_v2-_2-",4
"1499",43031,1775.17499999981,"fa","fa",1,7,"^4_v6-_v5-_^6-_^4_v2-_2-",5
"1500",43031,1819.9850000001,"ra","ra",1,7,"^4_v6-_v5-_^6-_^4_v2-_2-",6
"1501",43031,436.549999999581,"ra","ra",1,7,"^4_v6-_v5-_^6-_^4_v2-_2-",7
"1502",43031,1709.20999999996,"la","la",1,7,"^6_v5+_v4_^5+_v3_v1_v7-",1
"1503",43031,1382.55999999982,"le","le",1,7,"^6_v5+_v4_^5+_v3_v1_v7-",2
"1504",43031,737.459999999264,"fa","fa",1,7,"^6_v5+_v4_^5+_v3_v1_v7-",3
"1505",43031,751.839999999851,"le","le",1,7,"^6_v5+_v4_^5+_v3_v1_v7-",4
"1506",43031,1021.6399999999,"mi","mi",1,7,"^6_v5+_v4_^5+_v3_v1_v7-",5
"1507",43031,2832.37499999977,"do","do",1,7,"^6_v5+_v4_^5+_v3_v1_v7-",6
"1508",43031,1426.37000000011,"te","te",1,7,"^6_v5+_v4_^5+_v3_v1_v7-",7
"1509",43031,1313.59499999951,"do","do",1,7,"1_^3_v1_^5_v3_v2_^3",1
"1510",43031,717.58000000054,"mi","mi",1,7,"1_^3_v1_^5_v3_v2_^3",2
"1511",43031,695.27500000014,"do","do",1,7,"1_^3_v1_^5_v3_v2_^3",3
"1512",43031,886.414999999804,"sol","sol",1,7,"1_^3_v1_^5_v3_v2_^3",4
"1513",43031,729.564999999711,"mi","mi",1,7,"1_^3_v1_^5_v3_v2_^3",5
"1514",43031,560.474999999162,"re","re",1,7,"1_^3_v1_^5_v3_v2_^3",6
"1515",43031,537.590000000084,"mi","mi",1,7,"1_^3_v1_^5_v3_v2_^3",7
"1516",43031,1550.99499999965,"sol","sol",1,7,"^5_^6_v5_v4_v3_v2_v1",1
"1517",43031,571.280000000261,"la","la",1,7,"^5_^6_v5_v4_v3_v2_v1",2
"1518",43031,480.93499999959,"sol","sol",1,7,"^5_^6_v5_v4_v3_v2_v1",3
"1519",43031,503.985000000335,"fa","fa",1,7,"^5_^6_v5_v4_v3_v2_v1",4
"1520",43031,436.859999999637,"mi","mi",1,7,"^5_^6_v5_v4_v3_v2_v1",5
"1521",43031,524.655000000261,"re","re",1,7,"^5_^6_v5_v4_v3_v2_v1",6
"1522",43031,650.780000000028,"do","do",1,7,"^5_^6_v5_v4_v3_v2_v1",7
"1523",43031,1348.71999999974,"fa","fa",1,7,"^4_^5_^6_v5_v4_v3_v2",1
"1524",43031,549.079999999842,"sol","sol",1,7,"^4_^5_^6_v5_v4_v3_v2",2
"1525",43031,730.415000000037,"la","la",1,7,"^4_^5_^6_v5_v4_v3_v2",3
"1526",43031,547.449999999953,"sol","sol",1,7,"^4_^5_^6_v5_v4_v3_v2",4
"1527",43031,481.340000000317,"fa","fa",1,7,"^4_^5_^6_v5_v4_v3_v2",5
"1528",43031,403.175000000512,"mi","mi",1,7,"^4_^5_^6_v5_v4_v3_v2",6
"1529",43031,504.02500000014,"re","re",1,7,"^4_^5_^6_v5_v4_v3_v2",7
"1530",43031,1129.89000000013,"sol","sol",1,9,"^5_^6_v5_v4_v3_v2_v1_^2_^3",1
"1531",43031,505.049999999814,"la","la",1,9,"^5_^6_v5_v4_v3_v2_v1_^2_^3",2
"1532",43031,514.22499999986,"sol","sol",1,9,"^5_^6_v5_v4_v3_v2_v1_^2_^3",3
"1533",43031,514.374999999767,"fa","fa",1,9,"^5_^6_v5_v4_v3_v2_v1_^2_^3",4
"1534",43031,493.529999999795,"mi","mi",1,9,"^5_^6_v5_v4_v3_v2_v1_^2_^3",5
"1535",43031,627.685000000522,"re","re",1,9,"^5_^6_v5_v4_v3_v2_v1_^2_^3",6
"1536",43031,1235.26500000013,"do","do",1,9,"^5_^6_v5_v4_v3_v2_v1_^2_^3",7
"1537",43031,593.090000000084,"re","re",1,9,"^5_^6_v5_v4_v3_v2_v1_^2_^3",8
"1538",43031,527.240000000456,"mi","mi",1,9,"^5_^6_v5_v4_v3_v2_v1_^2_^3",9
"1539",43031,2136.08000000031,"mi","mi",1,9,"^3_^4_^5_^6_v5_v4_v3_v2_v1",1
"1540",43031,426.280000000494,"fa","fa",1,9,"^3_^4_^5_^6_v5_v4_v3_v2_v1",2
"1541",43031,709.684999999823,"sol","sol",1,9,"^3_^4_^5_^6_v5_v4_v3_v2_v1",3
"1542",43031,594.844999999506,"la","la",1,9,"^3_^4_^5_^6_v5_v4_v3_v2_v1",4
"1543",43031,582.260000000242,"sol","sol",1,9,"^3_^4_^5_^6_v5_v4_v3_v2_v1",5
"1544",43031,570.555000000168,"fa","fa",1,9,"^3_^4_^5_^6_v5_v4_v3_v2_v1",6
"1545",43031,471.305000000168,"mi","mi",1,9,"^3_^4_^5_^6_v5_v4_v3_v2_v1",7
"1546",43031,671.200000000652,"re","re",1,9,"^3_^4_^5_^6_v5_v4_v3_v2_v1",8
"1547",43031,548.5,"do","do",1,9,"^3_^4_^5_^6_v5_v4_v3_v2_v1",9
"1548",43031,2861.68999999971,"ti","ti",1,9,"v7_v6_v5_^6_v5_v4_^5_^6_v5",1
"1549",43031,638.825000000186,"la","la",1,9,"v7_v6_v5_^6_v5_v4_^5_^6_v5",2
"1550",43031,650.169999999925,"sol","sol",1,9,"v7_v6_v5_^6_v5_v4_^5_^6_v5",3
"1551",43031,696.3050000004,"fa","la",0,9,"v7_v6_v5_^6_v5_v4_^5_^6_v5",4
"1552",43031,4271.72500000033,"mi","sol",0,9,"v7_v6_v5_^6_v5_v4_^5_^6_v5",5
"1553",43031,571.179999999935,"fa","fa",1,9,"v7_v6_v5_^6_v5_v4_^5_^6_v5",6
"1554",43031,616.969999999972,"sol","sol",1,9,"v7_v6_v5_^6_v5_v4_^5_^6_v5",7
"1555",43031,650.555000000168,"la","la",1,9,"v7_v6_v5_^6_v5_v4_^5_^6_v5",8
"1556",43031,582.415000000037,"sol","sol",1,9,"v7_v6_v5_^6_v5_v4_^5_^6_v5",9
"1557",43031,1638.0950000002,"sol","sol",1,9,"v5_v4_v6+_^7_^3+_v3_v2_v5_^4",1
"1558",43031,748.165000000037,"fa","fa",1,9,"v5_v4_v6+_^7_^3+_v3_v2_v5_^4",2
"1559",43031,5465.58499999996,"le","te",0,9,"v5_v4_v6+_^7_^3+_v3_v2_v5_^4",3
"1560",43031,537.769999999786,"la","ti",0,9,"v5_v4_v6+_^7_^3+_v3_v2_v5_^4",4
"1561",43031,954.284999999916,"mi","mi",1,9,"v5_v4_v6+_^7_^3+_v3_v2_v5_^4",5
"1562",43031,833.665000000037,"me","mi",0,9,"v5_v4_v6+_^7_^3+_v3_v2_v5_^4",6
"1563",43031,3081.14000000013,"re","re",1,9,"v5_v4_v6+_^7_^3+_v3_v2_v5_^4",7
"1564",43031,1357.85000000056,"sol","sol",1,9,"v5_v4_v6+_^7_^3+_v3_v2_v5_^4",8
"1565",43031,1044.24500000011,"fa","fa",1,9,"v5_v4_v6+_^7_^3+_v3_v2_v5_^4",9
"1566",43031,1567.5150000006,"re","re",1,9,"^2_^4_v3_v2_v1_v3_v2+_^3_^5+",1
"1567",43031,650.34999999986,"fa","fa",1,9,"^2_^4_v3_v2_v1_v3_v2+_^3_^5+",2
"1568",43031,560.970000000438,"mi","mi",1,9,"^2_^4_v3_v2_v1_v3_v2+_^3_^5+",3
"1569",43031,547.929999999702,"me","re",0,9,"^2_^4_v3_v2_v1_v3_v2+_^3_^5+",4
"1570",43031,840.45500000054,"re","do",0,9,"^2_^4_v3_v2_v1_v3_v2+_^3_^5+",5
"1571",43031,672.625,"ra","mi",0,9,"^2_^4_v3_v2_v1_v3_v2+_^3_^5+",6
"1572",43031,537.995000000577,"do","me",0,9,"^2_^4_v3_v2_v1_v3_v2+_^3_^5+",7
"1573",43031,920.690000000643,"mi","mi",1,9,"^2_^4_v3_v2_v1_v3_v2+_^3_^5+",8
"1574",43031,503.705000000075,"me","le",0,9,"^2_^4_v3_v2_v1_v3_v2+_^3_^5+",9
"1575",43031,1030.32499999972,"mi","mi",1,9,"^3_^4_v2_v7_^1_^2_^3_3_^4",1
"1576",43031,447.970000000205,"fa","fa",1,9,"^3_^4_v2_v7_^1_^2_^3_3_^4",2
"1577",43031,830.800000000512,"re","re",1,9,"^3_^4_v2_v7_^1_^2_^3_3_^4",3
"1578",43031,898.174999999348,"ti","ti",1,9,"^3_^4_v2_v7_^1_^2_^3_3_^4",4
"1579",43031,525.464999999851,"do","do",1,9,"^3_^4_v2_v7_^1_^2_^3_3_^4",5
"1580",43031,1392.94000000064,"re","re",1,9,"^3_^4_v2_v7_^1_^2_^3_3_^4",6
"1581",43031,505.009999999776,"me","mi",0,9,"^3_^4_v2_v7_^1_^2_^3_3_^4",7
"1582",43031,886.964999999618,"mi","mi",1,9,"^3_^4_v2_v7_^1_^2_^3_3_^4",8
"1583",43031,536.830000000075,"fa","fa",1,9,"^3_^4_v2_v7_^1_^2_^3_3_^4",9
"1584",43031,1408.93500000052,"re","re",1,9,"^2_^3_^4_^5_^6_v5_v4_v3_v2",1
"1585",43031,637.595000000205,"mi","mi",1,9,"^2_^3_^4_^5_^6_v5_v4_v3_v2",2
"1586",43031,446.989999999525,"fa","fa",1,9,"^2_^3_^4_^5_^6_v5_v4_v3_v2",3
"1587",43031,548.8050000004,"sol","sol",1,9,"^2_^3_^4_^5_^6_v5_v4_v3_v2",4
"1588",43031,618.125,"la","la",1,9,"^2_^3_^4_^5_^6_v5_v4_v3_v2",5
"1589",43031,536.179999999935,"sol","sol",1,9,"^2_^3_^4_^5_^6_v5_v4_v3_v2",6
"1590",43031,493.125,"fa","fa",1,9,"^2_^3_^4_^5_^6_v5_v4_v3_v2",7
"1591",43031,717.375000000233,"mi","mi",1,9,"^2_^3_^4_^5_^6_v5_v4_v3_v2",8
"1592",43031,1009.9449999996,"re","re",1,9,"^2_^3_^4_^5_^6_v5_v4_v3_v2",9
"1593",43104,5712.88500074297,"re","re",1,2,"^2_v7-",1
"1594",43104,918.270000256598,"te","te",1,2,"^2_v7-",2
"1595",43104,3165.26000015438,"sol","sol",1,2,"v5_v1+",1
"1596",43104,7839.39999993891,"ra","ra",1,2,"v5_v1+",2
"1597",43104,4238.02000004798,"ti","ti",1,2,"v7_v3",1
"1598",43104,998.970000073314,"mi","mi",1,2,"v7_v3",2
"1599",43104,1376.58499926329,"fa","fa",1,2,"v4_v3",1
"1600",43104,334.459999576211,"mi","mi",1,2,"v4_v3",2
"1601",43104,3678.07499971241,"mi","mi",1,2,"^3_v4+",1
"1602",43104,574.829999357462,"fi","fi",1,2,"^3_v4+",2
"1603",43104,1015.97500033677,"do","do",1,2,"^1_^2+",1
"1604",43104,967.024999670684,"me","me",1,2,"^1_^2+",2
"1605",43104,3311.7800001055,"me","mi",0,2,"3_^6",1
"1606",43104,1886.95499952883,"la","la",1,2,"3_^6",2
"1607",43104,2372.63499945402,"sol","sol",1,2,"^5_^1+",1
"1608",43104,7734.43999979645,"do","ra",0,2,"^5_^1+",2
"1609",43104,1729.63999956846,"mi","mi",1,2,"v3_v2",1
"1610",43104,630.785000510514,"re","re",1,2,"v3_v2",2
"1611",43104,1271.82499971241,"re","re",1,2,"v2_v1",1
"1612",43104,565.840000286698,"do","do",1,2,"v2_v1",2
"1613",43104,1856.22000042349,"sol","sol",1,3,"v5_v4_v3",1
"1614",43104,582.755000330508,"fa","fa",1,3,"v5_v4_v3",2
"1615",43104,1134.99499950558,"mi","mi",1,3,"v5_v4_v3",3
"1616",43104,754.025000147521,"do","do",1,3,"v1_v7-_^7",1
"1617",43104,542.999999597669,"te","te",1,3,"v1_v7-_^7",2
"1618",43104,287.045000120997,"ti","ti",1,3,"v1_v7-_^7",3
"1619",43104,1158.01999997348,"do","do",1,3,"v1_v7-_v7-",1
"1620",43104,662.995000369847,"te","te",1,3,"v1_v7-_v7-",2
"1621",43104,423.174999654293,"te","te",1,3,"v1_v7-_v7-",3
"1622",43104,958.265000022948,"do","do",1,3,"1_v1+_^2",1
